accx,accy,accz
12.576185,-7.396348,5.5580325
12.576185,-7.396348,5.5580325
11.995328333333333,-6.828257333333333,5.439946166666668
11.414471666666666,-6.260166666666667,5.321859833333335
10.833615,-5.692076,5.203773500000001
10.833615,-5.692076,5.203773500000001
10.377227666666665,-5.6250539999999996,4.843131666666668
9.92084033333333,-5.558032,4.482489833333335
9.464452999999997,-5.491009999999999,4.121848000000001
9.464452999999997,-5.491009999999999,4.121848000000001
9.442112333333329,-5.366540766666666,3.7420571666666675
9.419771666666662,-5.242071533333331,3.3622663333333342
9.397430999999996,-5.117602299999998,2.982475500000001
9.397430999999996,-5.117602299999997,2.982475500000001
9.311259999999995,-4.367595199999998,2.9250281666666673
9.225088999999997,-3.617588099999997,2.8675808333333337
9.138917999999999,-2.8675809999999973,2.8101335000000005
9.138918,-2.8675809999999973,2.8101335000000005
9.215514666666667,-2.570769566666664,2.7941759000000004
9.292111333333334,-2.273958133333331,2.7782183000000003
9.368708000000002,-1.977146699999998,2.7622607
9.368708000000003,-1.977146699999998,2.7622607
9.585731000000003,-1.881401099999998,2.717579366666666
9.802754000000002,-1.7856554999999978,2.672898033333333
10.019777000000003,-1.6899098999999975,2.6282167
9.79637066666667,-1.855868933333331,2.4143848999999995
9.572964333333339,-2.0218279666666645,2.2005530999999996
9.349558000000007,-2.187786999999998,1.9867212999999995
9.349558000000007,-2.187786999999998,1.9867212999999995
9.349558000000007,-2.187786999999998,1.9867212999999995
9.35594133333334,-2.366512166666664,1.9899127999999993
9.362324666666671,-2.5452373333333305,1.993104299999999
9.368708000000003,-2.7239624999999967,1.9962957999999988
9.394240000000003,-2.628216866666663,2.025019466666665
9.419772000000004,-2.5324712333333297,2.0537431333333322
9.445304000000005,-2.4367255999999964,2.082466799999999
9.445304000000005,-2.4367255999999964,2.082466799999999
9.44211233333334,-2.340980066666663,2.104807533333332
9.438920666666673,-2.24523453333333,2.1271482666666652
9.435729000000007,-2.1494889999999964,2.1494889999999987
9.435729000000007,-2.1494889999999964,2.1494889999999987
9.499559333333341,-2.171829599999996,2.1814041666666655
9.563389666666675,-2.194170199999996,2.213319333333332
9.627220000000007,-2.2165107999999956,2.2452344999999982
9.627220000000007,-2.216510799999995,2.2452344999999982
9.639986333333338,-2.299490299999995,2.1941701666666646
9.65275266666667,-2.382469799999995,2.1431058333333315
9.665519000000002,-2.4654492999999946,2.0920414999999983
9.665519,-2.4654492999999946,2.0920414999999983
9.576156333333333,-2.366512199999995,1.9611891666666648
9.486793666666667,-2.267575099999995,1.8303368333333314
9.397431000000001,-2.1686379999999947,1.699484499999998
9.397431000000003,-2.1686379999999947,1.699484499999998
9.467644333333338,-2.088849999999995,1.8048046666666646
9.537857666666673,-2.009061999999995,1.910124833333331
9.608071000000008,-1.9292739999999948,2.0154449999999975
9.608071000000008,-1.9292739999999948,2.0154449999999975
9.582539000000006,-2.0122534666666616,2.025019566666664
9.557007000000006,-2.095232933333328,2.034594133333331
9.531475000000006,-2.1782123999999947,2.044168699999998
9.49955966666667,-2.2771495999999956,1.9962958666666644
9.467644333333334,-2.376086799999996,1.9484230333333308
9.435729,-2.4750239999999963,1.9005501999999972
9.435728999999998,-2.475023999999997,1.9005501999999972
9.435728999999998,-2.475023999999997,1.9005501999999972
9.483602,-2.29629883333333,2.018636466666664
9.531474999999999,-2.117573666666663,2.1367227333333307
9.579348,-1.9388484999999962,2.2548089999999976
9.566582,-1.9579975999999961,2.1558718666666645
9.553816000000001,-1.977146699999996,2.0569347333333314
9.541050000000002,-1.996295799999996,1.9579975999999981
9.541050000000004,-1.9962957999999957,1.9579975999999981
9.553816000000003,-1.9994872999999955,2.0441686666666645
9.566582000000002,-2.002678799999995,2.130339733333331
9.579348000000001,-2.005870299999995,2.216510799999998
9.579348,-2.005870299999995,2.216510799999998
9.534666666666665,-2.0633176666666615,2.251617533333331
9.489985333333331,-2.120765033333328,2.286724266666664
9.445303999999997,-2.1782123999999947,2.3218309999999973
9.445303999999995,-2.1782123999999947,2.3218309999999973
9.45807033333333,-2.1782123999999947,2.2707666666666637
9.470836666666663,-2.1782123999999947,2.2197023333333306
9.483602999999997,-2.1782123999999947,2.1686379999999974
9.483602999999997,-2.1782123999999947,2.1686379999999974
9.509134999999995,-2.120765033333328,2.1909785999999976
9.534666999999994,-2.0633176666666615,2.2133191999999977
9.560198999999992,-2.005870299999995,2.2356597999999983
9.560198999999992,-2.005870299999995,2.2356597999999983
9.566581999999991,-2.0250194666666617,2.2037446333333315
9.572964999999991,-2.0441686333333284,2.171829466666665
9.57934799999999,-2.063317799999995,2.1399142999999987
9.54743299999999,-2.0505517333333287,2.098424533333332
9.51551799999999,-2.0377856666666623,2.0569347666666653
9.48360299999999,-2.0250195999999954,2.015444999999999
9.483602999999988,-2.0250195999999954,2.0154449999999993
9.502751999999987,-2.0154449999999957,2.0728923333333324
9.521900999999986,-2.0058703999999956,2.130339666666666
9.541049999999984,-1.9962957999999957,2.1877869999999997
9.541049999999984,-1.9962957999999957,2.1877869999999997
9.557007499999985,-2.072892266666662,2.216510733333333
9.572964999999988,-2.1494887333333286,2.245234466666666
9.588922499999988,-2.226085199999995,2.273958199999999
9.588922499999988,-2.226085199999995,2.2739581999999987
9.54424133333332,-2.139914199999995,2.2260853333333324
9.499560166666653,-2.0537431999999947,2.1782124666666656
9.454878999999984,-1.9675721999999947,2.130339599999999
9.454878999999984,-1.9675721999999947,2.130339599999999
9.464453666666651,-2.047360166666661,2.2324682666666655
9.47402833333332,-2.127148133333328,2.3345969333333323
9.483602999999988,-2.206936099999995,2.4367255999999986
9.483602999999988,-2.206936099999995,2.4367255999999986
9.467644999999985,-2.2452343999999953,2.4016188666666656
9.451686999999984,-2.283532699999995,2.3665121333333325
9.43572899999998,-2.3218309999999946,2.331405399999999
9.435728999999979,-2.3218309999999946,2.3314053999999995
9.413388666666647,-2.318639433333328,2.3026817666666664
9.391048333333314,-2.3154478666666614,2.2739581333333336
9.368707999999982,-2.3122562999999947,2.2452345000000005
9.400622999999984,-2.213319199999995,2.1941701666666673
9.432537999999985,-2.114382099999995,2.1431058333333337
9.464452999999985,-2.015444999999995,2.0920415000000006
9.464452999999985,-2.015444999999995,2.0920415000000006
9.464452999999985,-2.015444999999995,2.0920415000000006
9.534666666666652,-1.9739552333333286,2.123956666666667
9.60488033333332,-1.932465466666662,2.1558718333333338
9.675093999999987,-1.8909756999999956,2.187787
9.620837999999987,-1.9420400333333288,2.1654464000000004
9.566581999999988,-1.9931043666666621,2.1431058000000007
9.512325999999987,-2.0441686999999953,2.120765200000001
9.512325999999987,-2.0441686999999953,2.1207652000000015
9.525091999999987,-2.066509333333329,2.1590634000000013
9.537857999999986,-2.0888499666666624,2.197361600000001
9.550623999999985,-2.1111905999999956,2.235659800000001
9.550623999999985,-2.1111905999999956,2.2356598000000005
9.569772999999985,-2.082466933333329,2.242042866666667
9.588921999999988,-2.0537432666666624,2.2484259333333334
9.608070999999988,-2.0250195999999954,2.254809
9.608070999999988,-2.0250195999999954,2.254809
9.563389999999986,-2.031402633333329,2.2292767999999996
9.518708999999985,-2.0377856666666623,2.2037446
9.474027999999983,-2.0441686999999953,2.1782123999999996
9.474027999999981,-2.0441686999999953,2.1782123999999996
9.477219666666647,-2.0345941333333286,2.1271481333333333
9.480411333333313,-2.025019566666662,2.0760838666666666
9.48360299999998,-2.015444999999995,2.0250196000000003
9.48360299999998,-2.015444999999995,2.0250196000000003
9.445304666666644,-2.1048075333333287,2.1590634000000004
9.407006333333308,-2.1941700666666626,2.2931072
9.368707999999975,-2.283532599999996,2.4271510000000003
9.368707999999975,-2.2835325999999965,2.4271510000000003
9.445303999999973,-2.30906473333333,2.4399171
9.521899999999974,-2.3345968666666628,2.4526831999999996
9.598495999999974,-2.360128999999996,2.4654492999999995
9.560198333333307,-2.2037445666666624,2.3760867666666665
9.52190066666664,-2.047360133333329,2.286724233333333
9.483602999999972,-1.8909756999999956,2.1973617
9.483602999999972,-1.8909756999999956,2.1973617
9.483602999999972,-1.8845926333333287,2.1750210000000005
9.483602999999972,-1.878209566666662,2.1526803000000005
9.483602999999972,-1.8718264999999954,2.130339600000001
9.483602999999972,-1.8718264999999954,2.1303396000000014
9.512326333333304,-1.878209566666662,2.1367227333333347
9.541049666666636,-1.8845926333333287,2.143105866666668
9.569772999999968,-1.8909756999999956,2.1494890000000013
9.569772999999968,-1.8909756999999956,2.1494890000000013
9.537857999999966,-1.8558689666666621,2.123956800000001
9.505942999999968,-1.8207622333333287,2.098424600000001
9.47402799999997,-1.7856554999999952,2.072892400000001
9.474027999999972,-1.7856554999999952,2.0728924000000006
9.474027999999972,-1.8111876666666618,2.1207652000000006
9.474027999999972,-1.8367198333333283,2.168638
9.474027999999972,-1.8622519999999951,2.2165108
9.474027999999972,-1.8622519999999951,2.2165108
9.483602333333305,-1.8909756666666617,2.235659933333334
9.493176666666638,-1.9196993333333285,2.254809066666667
9.502750999999972,-1.9484229999999954,2.273958200000001
9.502750999999972,-1.9484229999999954,2.2739582000000014
9.560198666666638,-1.9803382333333286,2.2611920666666676
9.617646333333303,-2.012253466666662,2.2484259333333343
9.67509399999997,-2.0441686999999953,2.235659800000001
9.630412666666636,-1.9675721999999956,2.1558718000000003
9.585731333333301,-1.8909756999999956,2.0760838000000006
9.541049999999968,-1.8143791999999956,1.9962958000000004
9.541049999999968,-1.8143791999999956,1.9962958000000004
9.544241333333302,-1.8207622333333289,1.9962958000000004
9.547432666666635,-1.827145266666662,1.9962958000000004
9.550623999999969,-1.8335282999999956,1.9962958000000004
9.550623999999969,-1.8335282999999956,1.9962958000000004
9.56977299999997,-1.8750180666666623,2.034594066666667
9.58892199999997,-1.916507833333329,2.072892333333334
9.608070999999972,-1.957997599999996,2.1111906000000005
9.608070999999972,-1.957997599999996,2.1111906000000005
9.598496666666636,-1.9739551666666622,2.120765166666667
9.588922333333302,-1.9899127333333286,2.1303397333333343
9.57934799999997,-2.005870299999995,2.139914300000001
9.579347999999971,-2.005870299999995,2.1399143000000014
9.566581999999972,-1.9516144999999951,2.107999100000001
9.553815999999973,-1.8973586999999952,2.076083900000001
9.541049999999974,-1.8431028999999952,2.0441687000000006
9.541049999999975,-1.8431028999999952,2.0441687
9.541049999999975,-1.798421599999995,2.009061966666667
9.541049999999975,-1.7537402999999951,1.9739552333333334
9.541049999999975,-1.7090589999999952,1.9388485
9.569773333333309,-1.817570666666662,2.002678866666667
9.598496666666643,-1.9260823333333288,2.0665092333333335
9.627219999999978,-2.0345939999999954,2.1303396
9.627219999999978,-2.0345939999999954,2.1303396
9.627219999999978,-2.0345939999999954,2.1303396
9.614454166666645,-1.9803381666666624,2.155871766666667
9.601688333333312,-1.9260823333333292,2.181403933333334
9.58892249999998,-1.8718264999999963,2.206936100000001
9.598496999999979,-1.9069332333333298,2.165446333333334
9.608071499999978,-1.9420399666666628,2.1239565666666675
9.617645999999977,-1.977146699999996,2.082466800000001
9.617645999999977,-1.9771466999999958,2.082466800000001
9.59530533333331,-1.9420399666666626,2.076083800000001
9.572964666666643,-1.9069332333333293,2.069700800000001
9.550623999999976,-1.8718264999999963,2.0633178000000005
9.550623999999976,-1.8718264999999963,2.0633178000000005
9.553815666666642,-1.8718264999999963,2.0569347666666675
9.557007333333308,-1.8718264999999963,2.050551733333334
9.560198999999974,-1.8718264999999963,2.0441687000000006
9.560198999999972,-1.8718264999999963,2.0441687000000006
9.553815999999973,-1.887784099999996,2.066509333333334
9.547432999999973,-1.903741699999996,2.088849966666668
9.541049999999974,-1.9196992999999962,2.111190600000001
9.541049999999975,-1.9196992999999967,2.111190600000001
9.53147533333331,-1.8845925999999966,2.168637933333334
9.521900666666644,-1.8494858999999966,2.2260852666666673
9.512325999999979,-1.8143791999999965,2.283532600000001
9.512325999999979,-1.8143791999999965,2.2835326000000014
9.512325999999979,-1.90374173333333,2.321830900000001
9.512325999999979,-1.993104266666663,2.3601292000000007
9.512325999999979,-2.082466799999996,2.398427500000001
9.512325999999979,-2.0824667999999957,2.3984275000000004
9.44849533333331,-2.053743133333329,2.423959666666667
9.384664666666643,-2.0250194666666625,2.4494918333333344
9.320833999999975,-1.9962957999999957,2.4750240000000012
9.352749333333309,-1.9707636333333287,2.4335342333333343
9.384664666666644,-1.9452314666666617,2.392044466666668
9.41657999999998,-1.919699299999995,2.3505547000000013
9.41657999999998,-1.919699299999995,2.3505547000000018
9.41657999999998,-1.919699299999995,2.3505547000000018
9.438920999999981,-1.8016130999999949,2.178212566666668
9.46126199999998,-1.683526899999995,2.005870433333335
9.48360299999998,-1.5654406999999952,1.833528300000001
9.480411333333313,-1.5494830999999951,1.8686350333333344
9.477219666666647,-1.533525499999995,1.9037417666666674
9.474027999999981,-1.5175678999999949,1.9388485000000006
9.474027999999981,-1.5175678999999949,1.9388485000000006
9.474027999999981,-1.6005473999999948,2.047360200000001
9.474027999999981,-1.683526899999995,2.1558719000000006
9.474027999999981,-1.7665063999999953,2.264383600000001
9.474027999999981,-1.7665063999999953,2.2643836000000004
9.387856666666648,-1.9101248333333285,2.2228938333333335
9.301685333333316,-2.053743266666662,2.181404066666666
9.215513999999983,-2.197361699999995,2.139914299999999
9.215513999999985,-2.197361699999995,2.1399142999999987
9.001682166666653,-2.197361699999995,2.050551699999999
8.787850333333319,-2.197361699999995,1.9611890999999988
8.574018499999987,-2.197361699999995,1.871826499999999
8.574018499999987,-2.197361699999995,1.871826499999999
9.033597666666653,-2.4814069999999955,2.114382099999999
9.49317683333332,-2.7654522999999958,2.3569376999999987
9.952755999999987,-3.0494975999999956,2.5994932999999985
9.952755999999987,-3.0494975999999956,2.5994932999999985
9.959138999999986,-3.011199299999996,2.806942099999999
9.965521999999986,-2.9729009999999962,3.0143909
9.971904999999985,-2.934602699999996,3.2218397000000003
9.713391666666652,-2.7367284666666634,3.263329466666667
9.454878333333319,-2.5388542333333297,3.3048192333333333
9.196364999999986,-2.340979999999997,3.3463089999999998
9.196364999999986,-2.3409799999999965,3.3463089999999998
8.992107666666653,-2.3345969999999965,3.3399258666666665
8.787850333333319,-2.328213999999996,3.333542733333333
8.583592999999986,-2.321830999999996,3.3271596
8.583592999999986,-2.321830999999996,3.3271596
8.56125233333332,-2.2516175333333295,3.1803497333333333
8.538911666666651,-2.1814040666666634,3.0335398666666666
8.516570999999985,-2.111190599999997,2.88673
8.516570999999985,-2.111190599999997,2.88673
8.842105999999985,-2.28353263333333,2.790984433333333
9.167640999999984,-2.455874666666663,2.695238866666666
9.493175999999984,-2.628216699999996,2.599493299999999
9.493175999999984,-2.6282166999999954,2.5994932999999985
9.713390999999985,-2.6856641333333293,2.558003533333332
9.933605999999985,-2.743111566666663,2.5165137666666655
10.153820999999986,-2.8005589999999962,2.475023999999999
10.153820999999986,-2.8005589999999962,2.475023999999999
10.153820999999986,-2.8005589999999962,2.475023999999999
10.153820999999986,-2.8005589999999962,2.475023999999999
10.153820999999986,-2.8005589999999962,2.475023999999999
11.200639666666653,-2.532471266666663,2.092041533333332
12.24745833333332,-2.26438353333333,1.7090590666666656
13.294276999999987,-1.9962957999999968,1.3260765999999988
13.294276999999987,-1.9962957999999968,1.3260765999999988
12.732569666666654,-1.5271423666666635,1.0484143499999987
12.17086233333332,-1.05798893333333,0.7707520999999987
11.609154999999987,-0.5888354999999968,0.49308984999999866
11.609154999999987,-0.5888354999999968,0.49308984999999866
10.881488333333321,-0.7005386899999969,0.38776968999999867
10.153821666666653,-0.812241879999997,0.28244952999999867
9.426154999999987,-0.923945069999997,0.17712936999999865
9.426154999999987,-0.923945069999997,0.17712936999999865
9.295302666666652,-0.971817879999997,0.3430884133333319
9.164450333333319,-1.0196906899999971,0.5090474566666653
9.033597999999984,-1.067563499999997,0.6750064999999986
9.033597999999984,-1.067563499999997,0.6750064999999986
7.6899679999999835,-1.0803295999999971,0.6686234666666654
6.346337999999984,-1.0930956999999968,0.662240433333332
5.002707999999983,-1.1058617999999967,0.6558573999999987
5.38249876666665,-1.2622462666666634,1.0292652666666655
5.762289533333316,-1.4186307333333297,1.402673133333332
6.142080299999982,-1.5750151999999964,1.7760809999999985
6.142080299999982,-1.5750151999999964,1.7760809999999985
7.112302533333316,-1.7856554999999963,2.072892333333332
8.08252476666665,-1.9962957999999962,2.3697036666666658
9.052746999999984,-2.206936099999996,2.666514999999999
9.052746999999984,-2.2069360999999965,2.666514999999999
9.738923999999985,-2.248425866666663,2.704813233333333
10.425100999999986,-2.2899156333333295,2.7431114666666665
11.111277999999984,-2.331405399999996,2.7814096999999998
11.111277999999984,-2.331405399999996,2.7814096999999998
11.210214999999986,-2.465449266666663,2.6473658666666666
11.309151999999989,-2.5994931333333295,2.5133220333333335
11.40808899999999,-2.7335369999999966,2.3792782000000003
11.40808899999999,-2.7335369999999966,2.3792782000000003
12.432566999999986,-3.0111992666666634,2.206936133333334
13.457044999999985,-3.28886153333333,2.034594066666667
14.481522999999981,-3.566523799999997,1.8622520000000005
14.481522999999981,-3.566523799999997,1.8622520000000005
14.101731999999984,-3.2346056999999964,1.546291513333334
13.721940999999987,-2.902687599999996,1.2303310266666674
13.34214999999999,-2.5707694999999955,0.9143705400000007
12.598525999999987,-2.711196399999995,0.8505401266666673
11.854901999999987,-2.851623299999995,0.7867097133333338
11.111277999999984,-2.9920501999999956,0.7228793000000003
11.111277999999984,-2.9920501999999956,0.7228793000000003
11.111277999999984,-2.9920501999999956,0.7228793000000003
9.489985599999985,-2.4367256666666623,0.6590489000000004
7.868693199999986,-1.8814011333333294,0.5952185000000003
6.247400799999987,-1.3260765999999962,0.5313881000000003
5.66016103333332,-0.9973500333333293,0.6335167466666669
5.072921266666651,-0.6686234666666625,0.7356453933333335
4.485681499999984,-0.3398968999999958,0.8377740400000002
4.485681499999983,-0.3398968999999958,0.8377740400000002
5.034622999999983,-0.4994728999999957,0.9399026933333335
5.583564499999983,-0.6590488999999956,1.0420313466666669
6.1325059999999825,-0.8186248999999957,1.1441600000000003
6.1325059999999825,-0.8186248999999957,1.1441600000000003
7.591030833333316,-1.1792666666666622,0.9909670333333335
9.049555666666649,-1.539908433333329,0.8377740666666668
10.508080499999982,-1.900550199999996,0.6845810999999999
10.508080499999982,-1.900550199999996,0.6845810999999999
11.71766666666665,-1.9165077999999962,0.5952185333333334
12.927252833333318,-1.9324653999999963,0.5058559666666668
14.136838999999986,-1.9484229999999965,0.4164934000000002
14.136838999999986,-1.9484229999999965,0.4164934000000002
14.318755666666652,-1.8239537333333298,0.14202266000000016
14.500672333333318,-1.6994844666666633,-0.13244807999999986
14.682588999999984,-1.5750151999999966,-0.40691881999999985
14.682588999999984,-1.5750151999999966,-0.40691881999999985
13.13470166666665,-2.270766599999997,-0.03351095999999987
11.586814333333317,-2.966517999999997,0.3398969000000001
10.038926999999985,-3.6622693999999973,0.7133047600000001
10.038926999999985,-3.6622693999999973,0.7133047600000001
10.421909333333318,-3.075029666666664,1.1090532400000004
10.80489166666665,-2.4877899333333304,1.5048017200000003
11.187873999999985,-1.9005501999999972,1.9005502000000003
9.48360216666665,-0.7356453333333305,2.187787033333334
7.7793303333333155,0.4292595333333362,2.4750238666666675
6.075058499999982,1.5941644000000028,2.762260700000001
6.075058499999982,1.5941644000000028,2.762260700000001
6.075058499999982,1.5941644000000028,2.762260700000001
5.3473919333333155,0.9303281800000028,2.3409800333333344
4.619725366666649,0.26649196000000286,1.9196993666666675
3.892058799999982,-0.3973442599999972,1.4984187000000009
4.753769199999982,-0.8345825066666639,1.7186335666666672
5.615479599999982,-1.2718207533333306,1.9388484333333338
6.477189999999982,-1.7090589999999974,2.1590633
6.477189999999982,-1.7090589999999974,2.1590633
7.830394666666648,-1.9484229999999976,2.2356598000000005
9.183599333333314,-2.187786999999998,2.312256300000001
10.536803999999982,-2.427150999999998,2.388852800000001
10.53680399999998,-2.427150999999998,2.388852800000001
11.752772999999982,-2.6282167666666645,2.739920033333334
12.968741999999983,-2.829282533333331,3.090987266666667
14.184710999999984,-3.0303482999999978,3.4420545
14.184710999999984,-3.0303482999999978,3.4420545
14.347478666666651,-2.845240199999998,3.6303542333333336
14.510246333333319,-2.6601320999999984,3.8186539666666675
14.673013999999986,-2.475023999999999,4.006953700000001
14.673013999999986,-2.475023999999999,4.0069537
14.293222999999985,-2.6250254333333323,3.122902566666667
13.913431999999984,-2.7750268666666655,2.238851433333334
13.533640999999982,-2.925028299999999,1.3548003000000008
13.53364099999998,-2.925028299999999,1.3548003000000008
13.147466999999978,-3.078221199999998,1.2973529333333342
12.761292999999975,-3.231414099999997,1.2399055666666676
12.375118999999975,-3.384606999999997,1.182458200000001
12.375118999999975,-3.384606999999997,1.182458200000001
12.375118999999975,-3.384606999999997,1.182458200000001
12.375118999999975,-3.384606999999997,1.182458200000001
12.375118999999975,-3.384606999999997,1.182458200000001
10.217651533333308,-3.004816166666663,1.3101190333333343
8.060184066666642,-2.62502533333333,1.4377798666666675
5.902716599999974,-2.2452344999999965,1.5654407000000008
5.902716599999974,-2.2452344999999965,1.5654407000000008
6.726128733333309,-1.7728894999999962,1.6101219666666673
7.549540866666644,-1.3005444999999962,1.6548032333333342
8.37295299999998,-0.8281994999999962,1.6994845000000012
8.37295299999998,-0.8281994999999962,1.6994845000000012
9.091044999999978,-0.9558602999999962,1.3803324666666679
9.809136999999977,-1.083521099999996,1.0611804333333343
10.527228999999975,-1.211181899999996,0.742028400000001
10.683613666666643,-1.5271423666666628,0.5760693666666676
10.83999833333331,-1.8431028333333295,0.41011033333333424
10.996382999999978,-2.159063299999996,0.24415130000000088
10.996382999999978,-2.159063299999996,0.24415130000000088
10.996382999999978,-2.159063299999996,0.24415130000000088
10.996382999999978,-2.159063299999996,0.24415130000000088
10.996382999999978,-2.159063299999996,0.24415130000000088
10.996382999999978,-2.159063299999996,0.24415130000000088
10.798508666666644,-2.6824725999999965,1.0707550333333342
10.60063433333331,-3.2058818999999965,1.8973587666666674
10.402759999999978,-3.729291199999997,2.7239625000000007
10.150629999999977,-2.9250281666666633,3.0494975666666675
9.898499999999975,-2.1207651333333293,3.3750326333333347
9.646369999999974,-1.316502099999996,3.700567700000002
9.646369999999974,-1.3165020999999957,3.700567700000002
8.08890806666664,-0.16755486666666233,3.461203633333335
6.531446133333307,0.981392366666671,3.221839566666668
4.973984199999974,2.130339600000004,2.982475500000001
4.9739841999999745,2.130339600000004,2.982475500000001
4.555895066666641,0.9207535000000041,2.6186422333333343
4.137805933333308,-0.2888325999999959,2.2548089666666677
3.7197167999999743,-1.498418699999996,1.8909757000000014
3.7197167999999743,-1.498418699999996,1.8909757000000014
4.3867445333333075,-2.2899157333333293,2.583535566666668
5.053772266666641,-3.081412766666663,3.2760954333333347
5.720799999999975,-3.8729097999999964,3.9686553000000013
5.720799999999975,-3.8729097999999964,3.9686553000000013
7.728265999999974,-4.310148099999997,4.380361366666667
9.735731999999974,-4.747386399999997,4.792067433333335
11.743197999999973,-5.184624699999996,5.203773500000002
11.743197999999973,-5.184624699999996,5.203773500000003
12.295330999999974,-5.586756133333329,5.015473833333336
12.847463999999974,-5.988887566666662,4.827174166666669
13.399596999999973,-6.391018999999996,4.638874500000003
13.399596999999973,-6.391018999999996,4.638874500000003
13.96130466666664,-6.285698833333329,4.383552933333335
14.523012333333307,-6.1803786666666625,4.128231366666668
15.084719999999976,-6.075058499999996,3.872909800000001
14.692162999999974,-5.593138999999996,2.9473689000000007
14.299605999999974,-5.111219499999996,2.0218280000000006
13.907048999999972,-4.629299999999996,1.0962871000000003
13.907048999999972,-4.629299999999996,1.0962871000000003
13.907048999999972,-4.629299999999996,1.0962871000000003
12.454907333333304,-4.281424299999995,1.1537345000000003
11.002765666666638,-3.9335485999999946,1.2111819000000004
9.55062399999997,-3.585672899999995,1.2686293000000004
8.104865466666638,-3.154817699999995,1.115436333333334
6.659106933333305,-2.723962499999994,0.9622433666666673
5.213348399999973,-2.2931072999999937,0.8090504000000006
5.213348399999973,-2.2931072999999937,0.8090504000000006
5.443137799999971,-2.1654464666666606,0.5601118146666674
5.672927199999971,-2.037785633333328,0.3111732293333341
5.90271659999997,-1.9101247999999948,0.06223464400000075
5.90271659999997,-1.9101247999999948,0.06223464400000075
6.378253066666635,-1.7537403333333283,0.15478872933333407
6.853789533333301,-1.5973558666666616,0.24734281466666738
7.329325999999966,-1.4409713999999951,0.33989690000000067
7.329325999999966,-1.4409713999999951,0.33989690000000067
7.9261403333333,-1.6069304333333285,0.426067933333334
8.522954666666633,-1.772889466666662,0.5122389666666674
9.119768999999968,-1.9388484999999953,0.5984100000000007
9.11976899999997,-1.9388484999999953,0.5984100000000008
10.054884333333304,-2.0952329999999955,0.837774033333334
10.989999666666636,-2.2516174999999956,1.0771380666666672
11.92511499999997,-2.4080019999999958,1.3165021000000006
11.92511499999997,-2.408001999999996,1.3165021000000003
12.19958599999997,-2.22289383333333,1.4920357000000004
12.474056999999972,-2.037785666666663,1.6675693000000003
12.748527999999972,-1.8526774999999969,1.8431029
12.748527999999972,-1.8526774999999969,1.8431029
12.754910666666639,-2.379278299999997,2.5580034
12.761293333333306,-2.905879099999997,3.2729038999999998
12.767675999999973,-3.432479899999997,3.9878044
11.672984999999974,-2.47821538333333,3.831419933333333
10.578293999999973,-1.523950866666663,3.675035466666667
9.483602999999974,-0.5696863499999961,3.518651
9.483602999999974,-0.5696863499999961,3.518651
7.64209556666664,0.007978800000003838,3.228222666666667
5.8005881333333065,0.5856439500000038,2.937794333333333
3.9590806999999733,1.163309100000004,2.647366
3.9590806999999733,1.1633091000000038,2.647366
4.278232799999974,0.04946860000000375,2.3473630666666665
4.597384899999974,-1.0643718999999965,2.047360133333333
4.916536999999974,-2.1782123999999965,1.7473571999999997
4.916536999999974,-2.1782123999999965,1.7473571999999997
6.030377666666641,-2.54204573333333,1.8654434666666664
7.144218333333306,-2.9058790666666634,1.9835297333333333
8.258058999999973,-3.2697123999999964,2.101616
8.258058999999971,-3.2697123999999964,2.101616
9.017640666666638,-3.3846071333333305,2.4558747333333333
9.777222333333304,-3.4995018666666637,2.8101334666666666
10.536803999999972,-3.614396599999997,3.1643922
10.536803999999972,-3.614396599999997,3.1643922
12.078308333333306,-3.5378000666666636,3.4739695999999998
13.619812666666641,-3.46120353333333,3.783546999999999
15.161316999999977,-3.384606999999997,4.093124399999999
15.260253999999977,-2.8133249333333303,3.585672766666665
15.359190999999976,-2.242042866666664,3.0782211333333316
15.458127999999975,-1.6707607999999974,2.5707694999999986
15.458127999999975,-1.6707607999999974,2.5707694999999986
15.426212666666643,-2.2899156666666642,2.015444979999999
15.394297333333308,-2.909070533333331,1.4601204599999988
15.362381999999974,-3.528225399999998,0.9047959399999987
15.362381999999974,-3.528225399999998,0.9047959399999987
12.601717199999973,-3.378223933333331,1.3739493933333324
9.841052399999972,-3.2282224666666637,1.8431028466666657
7.080387599999972,-3.078220999999997,2.312256299999999
7.080387599999972,-3.078220999999997,2.312256299999999
6.266549899999973,-2.80055883333333,1.8686350133333327
5.452712199999973,-2.5228966666666635,1.4250137266666663
4.638874499999974,-2.2452344999999965,0.9813924399999997
4.638874499999974,-2.2452344999999965,0.9813924399999997
5.24845486666664,-2.0473602333333294,0.8664977133333331
5.858035233333307,-1.8494859666666628,0.7516029866666666
6.467615599999973,-1.651611699999996,0.6367082599999999
6.467615599999973,-1.651611699999996,0.63670826
7.986779066666639,-1.4218222333333292,0.7101132266666669
9.505942533333306,-1.1920327666666626,0.7835181933333336
11.02510599999997,-0.9622432999999958,0.8569231600000004
11.02510599999997,-0.9622432999999958,0.8569231600000004
11.647452666666636,-1.1920327666666626,0.5345796253333336
12.269799333333303,-1.4218222333333292,0.21223609066666693
12.89214599999997,-1.651611699999996,-0.11010744399999976
12.892145999999974,-1.651611699999996,-0.11010744399999976
12.97831699999997,-1.9069333333333294,-0.39415272933333306
13.064487999999969,-2.1622549666666626,-0.6781980146666663
13.150658999999967,-2.4175765999999963,-0.9622432999999996
13.150658999999967,-2.4175765999999963,-0.9622432999999996
11.979370999999967,-3.0686466333333295,-0.06542613333333291
10.808082999999968,-3.719716666666663,0.8313910333333338
9.63679499999997,-4.370786699999996,1.7282082000000003
10.153821333333303,-3.7388657999999957,1.9196993666666673
10.670847666666637,-3.1069448999999962,2.111190533333334
11.18787399999997,-2.4750239999999963,2.3026817000000004
11.18787399999997,-2.475023999999997,2.3026817000000004
9.29211099999997,-1.3356512666666633,2.2484258999999995
7.39634799999997,-0.1962785333333299,2.1941700999999996
5.50058499999997,0.9430942000000035,2.1399142999999996
5.50058499999997,0.9430942000000035,2.1399143
4.906962266666636,0.5186220233333368,1.9994874333333337
4.313339533333303,0.09414984666667021,1.8590605666666669
3.71971679999997,-0.33032232999999644,1.7186337
3.71971679999997,-0.33032232999999644,1.7186337
4.227168399999969,-1.0228822199999965,1.6037389333333334
4.7346199999999685,-1.7154421099999968,1.4888441666666667
5.242071599999968,-2.4080019999999966,1.3739494
5.242071599999968,-2.4080019999999966,1.3739494
6.541020399999969,-2.644174499999997,2.025019466666667
7.839969199999969,-2.880346999999997,2.6760895333333337
9.13891799999997,-3.116519499999997,3.3271596
9.13891799999997,-3.116519499999997,3.3271596
10.945318333333304,-2.8005589999999962,3.6431200666666665
12.751718666666639,-2.484598499999996,3.959080533333333
14.558118999999971,-2.1686379999999965,4.275041
14.558118999999971,-2.1686379999999965,4.275040999999999
15.828343666666639,-1.8335283666666633,4.281424133333332
17.098568333333308,-1.4984187333333299,4.287807266666666
18.368792999999975,-1.1633090999999964,4.294190399999999
18.36879299999998,-1.1633090999999964,4.294190399999999
17.395379666666646,-1.3899070333333297,3.1612007333333323
16.421966333333316,-1.6165049666666629,2.0282110666666653
15.448552999999984,-1.843102899999996,0.8952213999999978
15.448552999999984,-1.843102899999996,0.8952213999999978
13.855984666666652,-2.660132066666663,1.1122447666666644
12.26341633333332,-3.47716123333333,1.3292681333333312
10.670847999999987,-4.294190399999997,1.546291499999998
10.670847999999987,-4.294190399999997,1.5462914999999977
8.813383166666656,-3.8505690999999964,1.3579918133333309
6.955918333333323,-3.406947799999996,1.1696921266666644
5.098453499999991,-2.963326499999996,0.9813924399999977
5.120794133333323,-2.388852866666663,0.914370513333331
5.143134766666656,-1.8143792333333293,0.8473485866666643
5.16547539999999,-1.239905599999996,0.7803266599999977
5.16547539999999,-1.239905599999996,0.7803266599999977
5.16547539999999,-1.239905599999996,0.7803266599999977
6.119739933333324,-1.233522533333329,0.7292623399999977
7.074004466666658,-1.227139466666662,0.6781980199999976
8.028268999999993,-1.2207563999999949,0.6271336999999976
9.001682666666659,-1.3611833333333283,0.6016015333333309
9.975096333333324,-1.5016102666666615,0.5760693666666642
10.94850999999999,-1.6420371999999948,0.5505371999999976
10.94850999999999,-1.6420371999999948,0.5505371999999976
10.94850999999999,-1.6420371999999948,0.5505371999999976
11.171916333333323,-1.6962930333333281,0.1771293499999976
11.395322666666658,-1.7505488666666615,-0.19627850000000238
11.618728999999993,-1.804804699999995,-0.5696863500000023
11.618728999999993,-1.804804699999995,-0.5696863500000023
11.883625333333326,-2.149488866666662,-0.6558574000000025
12.148521666666658,-2.4941730333333285,-0.7420284500000025
12.413417999999991,-2.8388571999999948,-0.8281995000000025
11.979371333333324,-3.285669966666662,0.5186219999999975
11.545324666666657,-3.732482733333329,1.8654434999999976
11.11127799999999,-4.179295499999996,3.2122649999999973
11.11127799999999,-4.179295499999996,3.2122649999999973
10.41871799999999,-2.8835383666666625,3.161200666666664
9.72615799999999,-1.5877812333333292,3.110136333333331
9.033597999999989,-0.29202409999999573,3.0590719999999973
9.033597999999989,-0.29202409999999573,3.0590719999999973
7.536774999999989,0.15159720000000432,2.937794266666664
6.03995199999999,0.5952185000000044,2.816516533333331
4.543128999999991,1.0388398000000043,2.695238799999997
4.543128999999991,1.0388398000000043,2.695238799999997
4.48249009999999,-0.10691596666666237,2.3409800333333304
4.421851199999989,-1.2526717333333288,1.9867212666666638
4.3612122999999885,-2.3984274999999955,1.6324624999999973
4.3612122999999885,-2.3984274999999955,1.6324624999999973
5.8069708666666555,-3.065455133333329,1.986721266666664
7.252729433333322,-3.7324827666666622,2.3409800333333304
8.698487999999989,-4.399510399999996,2.695238799999997
8.698487999999987,-4.399510399999996,2.695238799999997
10.109139999999986,-4.134614266666662,3.2537547666666637
11.519791999999986,-3.8697181333333277,3.8122707333333303
12.930443999999985,-3.6048219999999946,4.370786699999997
12.930443999999985,-3.6048219999999946,4.370786699999997
13.240021666666651,-3.1324769999999944,4.192061599999998
13.549599333333319,-2.660131999999994,4.013336499999998
13.859176999999987,-2.1877869999999944,3.834611399999998
13.859176999999987,-2.1877869999999944,3.834611399999998
14.219818666666653,-2.7207708666666606,3.445245933333331
14.580460333333319,-3.253754733333327,3.0558804666666646
14.941101999999985,-3.786738599999994,2.666514999999998
14.941101999999985,-3.786738599999994,2.666514999999998
14.826206999999984,-3.920782533333327,2.053743166666665
14.711311999999985,-4.05482646666666,1.4409713333333312
14.596416999999986,-4.188870399999993,0.828199499999998
14.596416999999986,-4.188870399999993,0.828199499999998
12.49958833333332,-3.930357199999994,1.0324567999999978
10.402759666666652,-3.6718439999999943,1.236714099999998
8.305930999999985,-3.413330799999995,1.440971399999998
8.305930999999985,-3.413330799999995,1.440971399999998
7.44102916666665,-3.0111992333333277,1.3867155333333312
6.576127333333315,-2.609067666666661,1.3324596666666646
5.711225499999981,-2.2069360999999943,1.2782037999999978
5.711225499999981,-2.2069360999999943,1.2782037999999976
6.186761999999983,-1.9516145333333277,1.0675634833333312
6.662298499999984,-1.696292966666661,0.8569231666666645
7.137834999999986,-1.4409713999999945,0.6462828499999977
7.900608333333319,-1.4026731333333278,0.6526658999999978
8.663381666666652,-1.364374866666661,0.6590489499999977
9.426154999999985,-1.3260765999999946,0.6654319999999978
9.426154999999985,-1.3260765999999944,0.6654319999999978
9.426154999999985,-1.3260765999999944,0.6654319999999978
10.010202999999985,-1.3739493999999943,0.5409626999999978
10.594250999999986,-1.421822199999994,0.41649339999999774
11.178298999999987,-1.4696949999999938,0.2920240999999977
11.178298999999987,-1.4696949999999938,0.2920240999999976
11.893199666666652,-1.3452256999999939,-0.05585160000000237
12.608100333333317,-1.2207563999999937,-0.4037273000000024
13.323000999999982,-1.0962870999999936,-0.7516030000000025
13.323000999999982,-1.0962870999999936,-0.7516030000000024
13.064487833333315,-1.603738833333327,-0.499472906666669
12.80597466666665,-2.1111905666666604,-0.24734281333333566
12.547461499999985,-2.6186422999999937,0.004787279999997655
12.15490433333332,-2.6026846999999935,0.7005386866666643
11.762347166666652,-2.5867270999999934,1.3962900933333309
11.369789999999986,-2.5707694999999933,2.0920414999999974
11.369789999999986,-2.570769499999993,2.0920414999999974
9.295301999999985,-1.8367198566666596,2.104807533333331
7.220813999999986,-1.1026702133333262,2.117573566666664
5.146325999999986,-0.36862056999999293,2.130339599999997
5.146325999999986,-0.36862056999999293,2.1303395999999966
4.808024999999987,-0.5313880999999929,2.1462971999999967
4.469723999999988,-0.6941556299999929,2.162254799999997
4.131422999999989,-0.8569231599999929,2.178212399999997
4.13142299999999,-0.8569231599999929,2.1782123999999974
5.0154739999999896,-1.0962871733333264,2.325022366666664
5.899524999999989,-1.3356511866666596,2.4718323333333303
6.7835759999999885,-1.575015199999993,2.618642299999997
6.7835759999999885,-1.575015199999993,2.618642299999997
8.350612333333322,-1.555866099999993,2.787792866666664
9.917648666666656,-1.5367169999999926,2.956943433333331
11.484684999999992,-1.5175678999999924,3.126093999999998
11.484684999999992,-1.5175678999999924,3.126093999999998
12.601716999999994,-2.139914266666659,3.3239682666666646
13.718748999999994,-2.762260633333326,3.521842533333331
14.835780999999992,-3.3846069999999933,3.7197167999999983
14.835780999999992,-3.3846069999999933,3.7197167999999983
15.094294166666657,-3.6973759999999936,4.093124533333332
15.352807333333322,-4.010144999999994,4.466532266666665
15.611320499999986,-4.322913999999995,4.839939999999999
15.611320499999986,-4.322913999999995,4.839939999999998
15.72621533333332,-3.981421399999995,4.322913833333332
15.841110166666653,-3.639928799999995,3.8058876666666652
15.956004999999985,-3.2984361999999954,3.288861499999998
15.956004999999985,-3.2984361999999954,3.288861499999998
14.733652666666652,-3.2537548666666622,2.886729933333332
13.511300333333319,-3.209073533333329,2.4845983666666656
12.288947999999985,-3.164392199999996,2.0824667999999993
12.288947999999985,-3.164392199999996,2.0824667999999993
10.389993666666653,-2.8643893333333295,1.7537402333333325
8.49103933333332,-2.564386466666663,1.4250136666666655
6.59208499999999,-2.2643835999999964,1.0962870999999985
6.403785333333324,-2.01863653333333,0.9079874333333319
6.215485666666656,-1.772889466666663,0.7196877666666652
6.02718599999999,-1.5271423999999965,0.5313880999999986
6.02718599999999,-1.5271423999999965,0.5313880999999986
6.02718599999999,-1.5271423999999965,0.5313880999999986
6.467615666666656,-1.4760780666666633,0.43245097666666527
6.908045333333323,-1.42501373333333,0.33351385333333194
7.34847499999999,-1.3739493999999965,0.23457672999999868
7.999544999999991,-1.2750122999999967,0.11329896666666535
8.65061499999999,-1.1760751999999968,-0.007978796666667981
9.30168499999999,-1.0771380999999967,-0.12925656000000132
9.30168499999999,-1.0771380999999967,-0.12925656000000132
10.01339399999999,-1.2016073666666633,-0.27606649000000133
10.725102999999988,-1.32607663333333,-0.4228764200000013
11.436811999999987,-1.4505458999999965,-0.5696863500000013
11.436811999999984,-1.4505458999999965,-0.5696863500000013
11.436811999999984,-1.4505458999999965,-0.5696863500000013
11.92511466666665,-1.5750151666666632,-0.7164962666666681
12.413417333333314,-1.6994844333333299,-0.8633061833333348
12.901719999999978,-1.8239536999999963,-1.0101161000000014
12.853846999999979,-2.20693613333333,-0.464366166666668
12.805973999999978,-2.5899185666666633,0.08138376666666532
12.758100999999977,-2.9729009999999962,0.6271336999999987
12.758100999999977,-2.9729009999999962,0.6271336999999987
11.947454999999977,-2.535662733333329,1.1633090666666657
11.136808999999976,-2.0984244666666623,1.6994844333333325
10.326162999999976,-1.661186199999996,2.235659799999999
10.326162999999974,-1.661186199999996,2.235659799999999
8.443166233333308,-1.1569260299999957,2.510130533333333
6.560169466666641,-0.6526658599999957,2.784601266666666
4.677172699999974,-0.14840568999999562,3.059071999999999
4.677172699999974,-0.14840568999999562,3.059071999999999
4.737811599999975,-0.6941556266666623,2.586727066666666
4.7984504999999755,-1.239905563333329,2.114382133333333
4.859089399999976,-1.7856554999999956,1.6420371999999996
4.859089399999976,-1.7856554999999956,1.6420371999999996
6.231443099999976,-2.184595499999996,1.8686351333333329
7.6037967999999765,-2.583535499999996,2.0952330666666663
8.976150499999976,-2.982475499999996,2.321831
8.976150499999976,-2.982475499999996,2.321831
10.689996666666644,-3.327159666666663,2.832474166666667
12.403842833333309,-3.6718438333333303,3.3431173333333337
14.117688999999976,-4.016527999999997,3.8537605000000004
14.117688999999976,-4.016527999999997,3.8537605000000004
14.232583999999974,-4.112273666666664,4.022911100000001
14.347478999999973,-4.20801933333333,4.192061700000001
14.462373999999974,-4.303764999999996,4.361212300000001
14.462373999999974,-4.303764999999996,4.3612123
14.261308333333309,-4.3899360999999955,4.131422866666667
14.060242666666644,-4.476107199999996,3.9016334333333345
13.85917699999998,-4.5622782999999965,3.6718440000000014
13.85917699999998,-4.5622782999999965,3.6718440000000014
14.325138666666644,-4.338871799999997,3.244180266666668
14.79110033333331,-4.115465299999998,2.816516533333335
15.257061999999975,-3.8920587999999987,2.3888528000000018
15.257061999999975,-3.8920587999999987,2.3888528000000018
13.690025666666642,-3.671843866666665,2.143105766666668
12.12298933333331,-3.451628933333332,1.8973587333333348
10.55595299999998,-3.2314139999999987,1.6516117000000012
9.301685466666646,-2.9058789999999988,1.3835240000000013
8.047417933333312,-2.580343999999999,1.1154363000000014
6.793150399999978,-2.2548089999999985,0.8473486000000013
6.793150399999978,-2.2548089999999985,0.8473486000000013
6.793150399999978,-2.2548089999999985,0.8473486000000013
6.879321599999979,-1.9420400333333319,0.6494743533333346
6.9654927999999785,-1.6292710666666652,0.451600106666668
7.051663999999978,-1.3165020999999986,0.2537258600000014
7.33890079999998,-1.2654377666666654,0.2984071400000014
7.626137599999979,-1.214373433333332,0.34308842000000134
7.91337439999998,-1.1633090999999987,0.3877697000000013
7.913374399999978,-1.1633090999999987,0.3877697000000013
7.913374399999978,-1.1633090999999987,0.3877697000000013
8.443166599999977,-1.1665005999999989,0.35266298000000135
8.972958799999974,-1.1696920999999987,0.3175562600000013
9.502750999999973,-1.1728835999999985,0.28244954000000133
9.502750999999972,-1.1728835999999982,0.28244954000000133
9.924031666666638,-1.386715466666665,0.05266008666666799
10.345312333333302,-1.600547333333332,-0.17712936666666534
10.766592999999967,-1.8143791999999987,-0.4069188199999987
11.392130999999969,-2.0633177999999988,-0.39415273666666534
12.01766899999997,-2.3122563999999985,-0.38138665333333205
12.64320699999997,-2.561194999999999,-0.3686205699999987
12.64320699999997,-2.5611949999999992,-0.3686205699999987
12.301714333333303,-2.6792812333333327,0.007978800000001304
11.960221666666635,-2.797367466666666,0.38457817000000133
11.618728999999968,-2.9154537,0.7611775400000013
11.618728999999968,-2.9154537,0.7611775400000012
11.1974483333333,-2.4526832666666665,1.2686292266666677
10.776167666666632,-1.9899128333333334,1.7760809133333344
10.354886999999964,-1.5271424,2.283532600000001
10.354886999999964,-1.5271424,2.2835326000000014
8.672955999999965,-1.1058617400000001,2.6058762000000013
6.991024999999968,-0.6845810800000004,2.928219800000001
5.309093999999968,-0.2633004200000004,3.2505634000000008
5.309093999999968,-0.2633004200000004,3.2505634000000008
5.5293088333333005,-0.821816446666667,2.800559000000001
5.749523666666633,-1.3803324733333335,2.350554600000001
5.969738499999965,-1.9388485,1.9005502000000012
5.969738499999965,-1.9388485,1.9005502000000014
7.042088999999966,-2.2994903333333334,2.1654464000000018
8.114439499999968,-2.6601321666666666,2.4303426000000017
9.186789999999968,-3.020774,2.695238800000002
9.186789999999968,-3.0207740000000007,2.695238800000002
10.447440666666635,-3.209073633333334,3.3622665333333352
11.7080913333333,-3.397373266666667,4.0292942666666685
12.968741999999965,-3.5856729,4.696322000000001
12.968741999999965,-3.5856729,4.696322000000001
14.088965333333299,-3.483544233333333,4.977175666666668
15.209188666666632,-3.381415566666666,5.258029333333335
16.329411999999966,-3.2792868999999993,5.538883000000001
16.329411999999966,-3.2792869000000002,5.538883000000001
15.892173999999967,-3.4133307333333334,4.865472333333334
15.454935999999968,-3.5473745666666665,4.192061666666667
15.01769799999997,-3.6814183999999996,3.518651
15.017697999999973,-3.6814183999999996,3.518651
14.800674666666637,-3.7867385999999996,2.7590692000000003
14.583651333333302,-3.8920587999999996,1.9994874000000002
14.366627999999968,-3.997379,1.2399056000000002
14.366627999999968,-3.997379,1.2399056000000002
12.448524333333301,-3.754823466666666,1.0739465333333333
10.530420666666634,-3.5122679333333324,0.9079874666666669
8.612316999999967,-3.269712399999999,0.7420284000000003
7.875075933333299,-2.845240199999999,0.7643690666666668
7.1378348666666325,-2.4207679999999994,0.7867097333333334
6.400593799999965,-1.9962957999999997,0.8090504
6.400593799999965,-1.9962957999999997,0.8090504
6.675064433333298,-1.763314833333333,0.7069217500000001
6.949535066666631,-1.5303338666666662,0.6047931000000002
7.224005699999965,-1.2973528999999995,0.5026644500000003
7.224005699999965,-1.2973528999999993,0.5026644500000003
7.827203133333299,-1.3133104999999994,0.39734428000000027
8.430400566666632,-1.3292680999999995,0.29202411000000034
9.033597999999964,-1.3452256999999996,0.18670394000000032
9.033597999999964,-1.3452256999999996,0.18670394000000032
9.282536666666632,-1.4186306999999996,0.004787293333333646
9.531475333333299,-1.4920356999999995,-0.17712935333333302
9.780413999999967,-1.5654406999999992,-0.3590459999999997
9.780413999999967,-1.5654406999999992,-0.3590459999999997
9.780413999999967,-1.5654406999999992,-0.3590459999999997
10.2559503333333,-1.673952366666666,-0.288832563333333
10.731486666666633,-1.7824640333333328,-0.2186191266666663
11.207022999999966,-1.8909756999999996,-0.14840568999999967
11.535749666666634,-1.9771467999999996,-0.03989400333333299
11.864476333333302,-2.0633178999999995,0.06861768333333368
12.19320299999997,-2.1494889999999995,0.17712937000000037
12.193202999999974,-2.149489,0.17712937000000037
12.371927999999974,-2.5069392333333336,0.5601117800000004
12.550652999999974,-2.8643894666666676,0.9430941900000005
12.729377999999974,-3.2218397000000016,1.3260766000000006
12.729377999999974,-3.2218397000000016,1.3260766000000004
11.117660333333305,-2.5548119333333346,1.938848466666667
9.505942666666638,-1.8877841666666673,2.5516203333333336
7.894224999999971,-1.2207564000000002,3.1643922
7.894224999999971,-1.2207564000000002,3.1643922
6.805916666666639,-0.821816400666667,3.0111992
5.717608333333306,-0.4228764013333337,2.8580062
4.629299999999973,-0.023936402000000506,2.7048132000000003
4.629299999999973,-0.023936402000000506,2.7048132000000003
5.299519333333307,-0.8377740346666672,2.4526831333333337
5.96973866666664,-1.6516116673333336,2.2005530666666666
6.6399579999999725,-2.4654493,1.948423
6.6399579999999725,-2.4654493,1.948423
8.146355333333306,-2.7654522000000004,2.4175764666666666
9.652752666666641,-3.0654551000000008,2.886729933333333
11.159149999999975,-3.3654580000000007,3.3558833999999997
11.159149999999977,-3.3654580000000007,3.3558833999999997
12.304905666666647,-3.595247433333334,3.9750384000000003
13.450661333333315,-3.8250368666666676,4.594193400000001
14.596416999999983,-4.054826300000001,5.213348400000001
14.596416999999983,-4.0548263,5.213348400000001
14.988973999999983,-3.901633366666667,5.2867532666666675
15.381530999999981,-3.748440433333334,5.360158133333333
15.77408799999998,-3.595247500000001,5.4335629999999995
15.77408799999998,-3.5952475000000015,5.4335629999999995
15.151741666666647,-3.6303542333333354,4.5271713333333325
14.529395333333314,-3.6654609666666693,3.620779666666666
13.907048999999981,-3.700567700000003,2.7143879999999996
13.907048999999981,-3.700567700000003,2.7143879999999996
13.603854666666649,-3.8984419333333364,2.3218309666666666
13.300660333333317,-4.0963161666666705,1.9292739333333333
12.997465999999983,-4.294190400000004,1.5367169
11.14638416666665,-3.7101422000000035,1.4154391333333336
9.295302333333316,-3.1260940000000033,1.294161366666667
7.444220499999982,-2.5420458000000026,1.1728836000000005
7.444220499999982,-2.5420458000000026,1.1728836000000007
7.444220499999982,-2.5420458000000026,1.1728836000000007
7.265495433333316,-2.3314054666666695,0.9111789666666673
7.0867703666666495,-2.120765133333336,0.649474333333334
6.9080452999999835,-1.9101248000000026,0.3877697000000008
7.3708155333333165,-1.728208166666669,0.41330185666666747
7.833585766666649,-1.5462915333333356,0.43883401333333416
8.296355999999982,-1.364374900000002,0.46436617000000086
8.29635599999998,-1.364374900000002,0.46436617000000097
9.020831333333314,-1.3260766333333354,0.387769690000001
9.745306666666647,-1.2877783666666687,0.31117321000000103
10.469781999999979,-1.249480100000002,0.23457673000000104
10.469781999999979,-1.249480100000002,0.23457673000000104
10.562335999999979,-1.4441628333333352,-0.2026615466666657
10.654889999999979,-1.6388455666666684,-0.6398998233333324
10.747443999999978,-1.8335283000000018,-1.0771380999999993
10.747443999999978,-1.8335283000000018,-1.0771380999999993
10.859147333333311,-1.9452315333333348,-1.0707550333333327
10.970850666666644,-2.0569347666666684,-1.064371966666666
11.082553999999979,-2.168638000000002,-1.0579888999999991
11.082553999999979,-2.168638000000002,-1.0579888999999991
11.098511333333311,-2.2962987333333356,-0.2824494999999992
11.114468666666644,-2.4239594666666693,0.4930899000000008
11.130425999999977,-2.5516202000000026,1.2686293000000006
11.130425999999977,-2.5516202000000026,1.2686293000000006
11.219788666666643,-2.0186364000000023,1.696292933333334
11.30915133333331,-1.4856526000000023,2.1239565666666675
11.398513999999976,-0.9526688000000022,2.551620200000001
11.398513999999976,-0.9526688000000022,2.5516202000000003
9.716582899999976,-0.6016015733333355,2.7367284
8.034651799999976,-0.25053434666666885,2.9218365999999993
6.352720699999975,0.10053287999999783,3.106944799999999
6.352720699999975,0.10053287999999783,3.106944799999999
6.0750584666666425,-0.4771322466666688,2.5739609333333324
5.797396233333309,-1.0547973733333353,2.0409770666666662
5.519733999999976,-1.6324625000000024,1.5079931999999996
5.519733999999976,-1.6324625000000024,1.5079931999999996
6.365486999999976,-2.117573566666669,1.5654405999999996
7.211239999999975,-2.6026846333333356,1.6228879999999997
8.056992999999975,-3.0877957000000023,1.6803353999999997
8.056992999999975,-3.0877957000000023,1.6803353999999997
9.512325999999975,-3.5441831333333353,2.248425933333333
10.967658999999976,-4.000570566666668,2.816516466666666
12.422991999999978,-4.456958000000001,3.384606999999999
12.422991999999978,-4.456958000000001,3.384606999999999
13.121934999999977,-4.843131833333334,4.093124499999999
13.820877999999977,-5.229305666666668,4.801642
14.519820999999977,-5.6154795,5.5101595
14.519820999999977,-5.6154795,5.5101595
15.681534333333309,-5.149517566666667,5.3090938
16.843247666666638,-4.683555633333334,5.108028100000001
18.004960999999973,-4.217593700000002,4.906962400000001
18.004960999999977,-4.217593700000003,4.906962400000001
17.685808666666645,-4.01014496666667,3.7739726666666678
17.366656333333314,-3.8026962333333363,2.6409829333333343
17.047503999999986,-3.5952475000000033,1.5079932000000011
14.90280266666665,-3.66865246666667,1.275012266666668
12.758101333333315,-3.7420574333333363,1.0420313333333349
10.61339999999998,-3.8154624000000026,0.8090504000000015
10.613399999999983,-3.8154624000000026,0.8090504000000015
9.499559566666647,-3.260137933333336,0.6079846133333349
8.385719133333316,-2.7048134666666694,0.4069188266666683
7.271878699999983,-2.149489000000003,0.20585304000000162
7.271878699999983,-2.1494890000000035,0.2058530400000016
7.383581933333317,-1.7537404333333368,0.1356396000000016
7.49528516666665,-1.3579918666666702,0.06542616000000162
7.606988399999984,-0.9622433000000035,-0.004787279999998377
7.606988399999984,-0.9622433000000035,-0.004787279999998376
7.977204599999983,-0.9750094000000035,0.01755336133333496
8.347420799999982,-0.9877755000000036,0.039894002666668295
8.717636999999984,-1.0005416000000036,0.062234644000001636
8.717636999999986,-1.0005416000000036,0.062234644000001636
9.164449999999986,-1.239905633333337,-0.17074632399999837
9.611262999999989,-1.47926966666667,-0.4037272919999984
10.05807599999999,-1.7186337000000034,-0.6367082599999985
10.058075999999991,-1.7186337000000034,-0.6367082599999986
10.195311333333324,-1.7409743000000033,-0.735645393333332
10.332546666666659,-1.7633149000000035,-0.8345825266666654
10.469781999999993,-1.7856555000000034,-0.9335196599999988
10.469781999999993,-1.7856555000000034,-0.9335196599999988
10.597442666666659,-1.8175707333333369,-0.9941585399999987
10.725103333333324,-1.84948596666667,-1.0547974199999988
10.852763999999992,-1.8814012000000035,-1.1154362999999987
10.852763999999992,-1.8814012000000035,-1.1154362999999987
11.526174666666657,-2.2324683666666703,-0.7484114803333318
12.199585333333324,-2.583535533333337,-0.38138666066666516
12.872995999999992,-2.934602700000004,-0.014361840999998451
12.872995999999992,-2.934602700000004,-0.014361840999998451
11.759155666666658,-2.3888527666666706,0.7547945393333347
10.645315333333324,-1.8431028333333375,1.523950919666668
9.531474999999991,-1.2973529000000041,2.2931073000000013
9.531474999999991,-1.2973529000000041,2.2931073000000013
8.254866866666658,-0.844157052000004,2.6505575333333353
6.978258733333324,-0.39096120400000406,3.008007766666669
5.701650599999991,0.062234643999995974,3.3654580000000025
5.701650599999991,0.062234643999995974,3.3654580000000025
6.116548199999991,-0.6781980040000041,2.806941966666669
6.53144579999999,-1.4186306520000043,2.2484259333333356
6.94634339999999,-2.1590633000000046,1.6899099000000024
6.94634339999999,-2.1590633000000046,1.6899099000000024
8.599550933333324,-2.634599833333338,2.2292768000000023
10.25275846666666,-3.1101363666666715,2.768643700000002
11.905965999999992,-3.5856729000000054,3.3080106000000016
11.905965999999992,-3.5856729000000054,3.3080106000000016
12.86023066666666,-3.563332266666672,4.153763400000002
13.814495333333326,-3.540991633333338,4.999516200000002
14.768759999999993,-3.518651000000005,5.845269000000003
14.768759999999993,-3.518651000000005,5.845269000000002
15.167699999999991,-3.3782241333333385,6.020802666666668
15.566639999999992,-3.237797266666672,6.196336333333335
15.965579999999994,-3.0973704000000057,6.371870000000001
15.965579999999994,-3.097370400000006,6.371870000000001
16.166645666666657,-3.2665209333333394,5.270795566666667
16.36771133333332,-3.4356714666666726,4.169721133333333
16.568776999999987,-3.6048220000000057,3.0686467
16.568776999999987,-3.6048220000000057,3.0686467
16.230475666666653,-3.879292666666672,2.2675751333333327
15.89217433333332,-4.153763333333339,1.4665035666666661
15.553872999999987,-4.428234000000005,0.6654319999999996
13.090019499999988,-3.981421233333338,0.5154305333333329
10.626165999999987,-3.534608466666672,0.3654290666666662
8.162312499999988,-3.087795700000006,0.2154275999999995
8.16231249999999,-3.087795700000006,0.2154275999999995
7.938906199999988,-2.7877928000000054,0.017553353333332838
7.715499899999988,-2.4877899000000054,-0.18032089333333381
7.492093599999987,-2.187787000000005,-0.3781951400000005
7.492093599999987,-2.187787000000005,-0.3781951400000005
7.839969399999988,-1.8750180333333384,-0.15478872666666713
8.187845199999987,-1.5622490666666717,0.06861768666666619
8.535720999999986,-1.249480100000005,0.2920240999999995
8.535720999999986,-1.249480100000005,0.29202409999999956
9.174024999999984,-1.1122447466666718,0.24095977333333288
9.812328999999984,-0.9750093933333384,0.18989544666666622
10.450632999999984,-0.837774040000005,0.13883111999999953
10.450632999999986,-0.837774040000005,0.13883111999999953
10.211268999999985,-0.5154305066666717,-0.4164933866666672
9.971904999999987,-0.19308697333333832,-0.9718178933333338
9.732540999999987,0.129256559999995,-1.5271424000000005
9.732540999999989,0.129256559999995,-1.5271424000000005
10.188928333333322,-0.505855960000005,-1.7984216000000004
10.645315666666656,-1.140968480000005,-2.0697008000000006
11.101702999999992,-1.776081000000005,-2.3409800000000005
11.363407666666658,-2.2292768333333384,-1.7920385433333337
11.625112333333325,-2.6824726666666714,-1.243097086666667
11.886816999999992,-3.135668500000005,-0.6941556300000004
11.886816999999992,-3.135668500000005,-0.6941556300000004
11.886816999999992,-3.135668500000005,-0.6941556300000004
11.988945666666659,-2.915453666666672,0.22500217999999972
12.091074333333326,-2.6952388333333386,1.1441599899999997
12.193202999999995,-2.475024000000005,2.0633177999999996
10.447441433333328,-1.405864700000005,2.459066333333333
8.70167986666666,-0.33670540000000493,2.854814866666666
6.9559182999999924,0.7324538999999953,3.2505633999999994
6.9559182999999924,0.7324538999999953,3.2505633999999994
6.767618533333326,0.22181066666666185,3.039923033333333
6.579318766666659,-0.2888325666666715,2.8292826666666664
6.391018999999992,-0.799475800000005,2.6186423
6.391018999999992,-0.799475800000005,2.6186423
7.198473666666658,-1.5271423666666717,2.529279766666667
8.005928333333324,-2.2548089333333383,2.439917233333334
8.813382999999993,-2.982475500000005,2.3505547000000004
8.813382999999993,-2.982475500000005,2.3505547000000004
10.089990999999992,-3.0016246666666717,3.004816366666667
11.366598999999994,-3.0207738333333385,3.659078033333334
12.643206999999995,-3.0399230000000053,4.313339700000001
12.643206999999995,-3.0399230000000053,4.3133397
13.386831333333328,-3.2441802333333385,4.667598466666668
14.130455666666663,-3.4484374666666717,5.021857233333336
14.874079999999998,-3.652694700000005,5.376116000000003
14.874079999999998,-3.652694700000005,5.376116000000003
15.515575666666665,-3.805887700000005,5.2484550000000025
16.15707133333333,-3.9590807000000052,5.120794000000002
16.798567,-4.112273700000006,4.993133000000001
16.798566999999995,-4.1122737000000065,4.993133
16.840056333333326,-4.192061800000007,3.9367399000000005
16.881545666666657,-4.271849900000007,2.8803468000000003
16.923034999999988,-4.351638000000008,1.8239537000000006
15.282593999999989,-4.131423000000008,1.5175677800000005
13.642152999999988,-3.911208000000007,1.2111818600000006
12.001711999999989,-3.6909930000000073,0.9047959400000005
12.001711999999989,-3.6909930000000073,0.9047959400000005
10.50808043333332,-3.1356685333333405,0.7707521100000005
9.014448866666655,-2.5803440666666737,0.6367082800000006
7.520817299999988,-2.025019600000007,0.5026644500000006
7.520817299999988,-2.025019600000007,0.5026644500000006
7.530391866666655,-1.81118773333334,0.2696834733333339
7.539966433333322,-1.597355866666673,0.03670249666666725
7.549540999999988,-1.383524000000006,-0.19627847999999945
7.549540999999988,-1.383524000000006,-0.19627847999999945
7.94209799999999,-1.4186307333333392,-0.10691591999999943
8.33465499999999,-1.4537374666666725,-0.017553359999999418
8.727211999999993,-1.4888442000000055,0.07180920000000059
8.727211999999993,-1.4888442000000055,0.07180920000000059
9.014448833333326,-1.4601205000000055,-0.1994699999999994
9.301685666666659,-1.4313968000000055,-0.47074919999999937
9.588922499999994,-1.4026731000000057,-0.7420283999999994
9.588922499999994,-1.402673100000006,-0.7420283999999994
9.710200333333326,-1.3260766000000062,-0.8824552999999994
9.831478166666658,-1.2494801000000062,-1.0228821999999993
9.952755999999992,-1.1728836000000062,-1.163309099999999
9.952755999999992,-1.1728836000000062,-1.163309099999999
10.709146333333324,-1.4760780000000064,-1.243097099999999
11.465536666666658,-1.7792724000000064,-1.322885099999999
12.221926999999992,-2.0824668000000064,-1.4026730999999992
12.365545166666656,-2.4207680000000065,-0.9590517999999991
12.509163333333321,-2.7590692000000065,-0.5154304999999991
12.652781499999987,-3.0973704000000066,-0.07180919999999917
12.652781499999984,-3.0973704000000075,-0.07180919999999917
11.91234866666665,-2.2962988100000077,0.5824524333333342
11.171915833333316,-1.4952272200000076,1.2367140666666676
10.431482999999982,-0.6941556300000077,1.890975700000001
10.43148299999998,-0.6941556300000077,1.890975700000001
8.708062333333315,-0.43245097666667437,2.222893800000001
6.984641666666647,-0.17074632333334097,2.5548119000000007
5.26122099999998,0.09095832999999236,2.8867300000000005
5.26122099999998,0.09095832999999236,2.8867300000000005
5.625054233333313,-0.6558574466666743,2.7239625000000007
5.988887466666647,-1.4026732233333412,2.561195000000001
6.35272069999998,-2.149489000000008,2.398427500000001
6.35272069999998,-2.1494890000000084,2.398427500000001
7.642094799999981,-2.312256466666675,2.6441745000000005
8.931468899999983,-2.475023933333342,2.8899215000000003
10.220842999999983,-2.6377914000000087,3.1356685
10.220842999999983,-2.6377914000000087,3.1356685
11.883624999999983,-2.8611978000000087,3.767589566666668
13.546406999999983,-3.0846042000000087,4.3995106333333345
15.209188999999983,-3.3080106000000087,5.0314317000000015
15.209188999999983,-3.3080106000000087,5.0314317000000015
14.998548999999983,-3.5026933333333425,5.047389133333334
14.787908999999983,-3.6973760666666764,5.063346566666667
14.577268999999982,-3.8920588000000103,5.079304
14.577268999999982,-3.8920588000000103,5.079304
15.292169333333314,-4.099507633333343,4.782492799999999
16.00706966666665,-4.306956466666676,4.485681599999999
16.72196999999998,-4.51440530000001,4.188870399999998
16.11558099999998,-4.4122766333333425,3.518651066666665
15.50919199999998,-4.310147966666676,2.8484317333333316
14.902802999999977,-4.20801930000001,2.1782123999999983
14.902802999999977,-4.20801930000001,2.1782123999999983
13.49853433333331,-3.7548234666666764,1.852677366666665
12.094265666666644,-3.301627633333343,1.5271423333333314
10.689996999999977,-2.8484318000000095,1.201607299999998
10.689996999999977,-2.8484318000000095,1.2016072999999983
9.61126313333331,-2.4526832666666762,0.9782008999999983
8.532529266666643,-2.0569347333333425,0.7547944999999983
7.453795399999976,-1.6611862000000093,0.5313880999999983
7.453795399999976,-1.6611862000000093,0.5313880999999983
7.642094933333309,-1.7377827000000092,0.32393928999999827
7.830394466666642,-1.8143792000000092,0.11649047999999829
8.018693999999975,-1.8909757000000091,-0.09095833000000168
8.018693999999977,-1.8909757000000091,-0.09095833000000168
8.366569999999976,-1.9388484666666759,-0.6590488866666683
8.714445999999976,-1.9867212333333424,-1.2271394433333351
9.062321999999975,-2.034594000000009,-1.7952300000000017
9.062321999999973,-2.034594000000009,-1.7952300000000017
9.084662333333306,-1.354800240000009,-1.9165077666666683
9.107002666666638,-0.6750064800000088,-2.037785533333335
9.12934299999997,0.004787279999991068,-2.1590633000000015
9.12934299999997,0.004787279999991067,-2.1590633000000015
9.82190299999997,0.18032088666665771,-2.628216800000002
10.51446299999997,0.35585449333332436,-3.097370300000002
11.207022999999971,0.531388099999991,-3.5665238000000024
12.295331333333303,-0.18032090000000897,-3.518651000000002
13.383639666666637,-0.892029900000009,-3.4707782000000016
14.47194799999997,-1.6037389000000088,-3.422905400000001
14.47194799999997,-1.6037389000000088,-3.422905400000001
14.47194799999997,-1.6037389000000088,-3.422905400000001
14.481522333333302,-1.7537403000000091,-2.6697066333333344
14.491096666666635,-1.9037417000000092,-1.9165078666666677
14.500670999999969,-2.0537431000000095,-1.1633091000000013
12.38150199999997,-1.383523907666676,-0.41011036666666806
10.262332999999968,-0.7133047153333427,0.3430883666666653
8.143163999999969,-0.043085523000009264,1.0962870999999987
8.14316399999997,-0.043085523000009264,1.096287099999999
7.153792666666637,-0.47074921533334263,1.2335224666666655
6.164421333333304,-0.898412907666676,1.3707578333333323
5.1750499999999695,-1.3260766000000095,1.507993199999999
5.17504999999997,-1.3260766000000093,1.507993199999999
6.333571999999971,-1.5494830000000093,1.622887966666666
7.4920939999999705,-1.7728894000000093,1.7377827333333329
8.650615999999971,-1.9962958000000093,1.8526774999999998
8.650615999999971,-1.9962958000000093,1.8526774999999998
9.71977499999997,-2.1367227333333427,2.305873333333333
10.78893399999997,-2.2771496666666757,2.7590691666666665
11.858092999999968,-2.417576600000009,3.212265
11.858092999999968,-2.417576600000009,3.212265
12.780442333333303,-3.0207739333333428,4.026102666666666
13.702791666666636,-3.6239712666666755,4.839940333333333
14.62514099999997,-4.227168600000009,5.653778
14.62514099999997,-4.227168600000009,5.653778
15.54429866666664,-4.562278066666676,6.2186770000000005
16.46345633333331,-4.897387533333344,6.783576000000001
17.382613999999975,-5.232497000000012,7.348475000000001
17.382613999999975,-5.232497000000012,7.348475000000001
17.45921066666664,-4.131422666666679,6.170804133333335
17.535807333333306,-3.0303483333333454,4.993133266666669
17.61240399999997,-1.929274000000012,3.8154624000000026
17.06027099999997,-2.9856671666666794,2.5963016833333357
16.508137999999974,-4.042060333333347,1.3771409666666692
15.956004999999976,-5.098453500000015,0.1579802500000024
15.956004999999976,-5.098453500000015,0.15798025000000243
13.983645666666645,-4.485681600000014,-0.0845752833333309
12.011286333333311,-3.872909700000013,-0.3271308166666642
10.03892699999998,-3.260137800000012,-0.5696863499999976
10.03892699999998,-3.260137800000012,-0.5696863499999977
9.66232733333331,-2.672898100000012,-0.6909641199999976
9.285727666666643,-2.085658400000012,-0.8122418899999976
8.909127999999974,-1.498418700000012,-0.9335196599999976
8.909127999999974,-1.498418700000012,-0.9335196599999976
8.93146883333331,-1.3962900666666787,-0.732453883333331
8.953809666666645,-1.294161433333345,-0.5313881066666643
8.976150499999981,-1.1920328000000115,-0.3303223299999976
8.976150499999981,-1.1920328000000115,-0.3303223299999976
9.180407833333314,-1.1856497333333447,-0.649474353333331
9.384665166666649,-1.179266666666678,-0.9686263766666644
9.588922499999981,-1.1728836000000114,-1.2877783999999977
9.588922499999981,-1.1728836000000114,-1.2877783999999977
9.304877333333314,-1.0803295333333447,-1.5335254666666642
9.020832166666645,-0.9877754666666779,-1.7792725333333308
8.736786999999978,-0.8952214000000113,-2.025019599999997
9.652752999999977,-0.9845839666666779,-1.983529799999997
10.568718999999978,-1.0739465333333444,-1.9420399999999969
11.484684999999978,-1.163309100000011,-1.9005501999999967
11.484684999999978,-1.1633091000000109,-1.9005501999999967
11.972987666666645,-1.479269600000011,-1.6101218999999969
12.461290333333311,-1.795230100000011,-1.319693599999997
12.949592999999979,-2.111190600000011,-1.0292652999999972
12.949592999999979,-2.111190600000011,-1.0292652999999972
12.531503999999979,-2.353746133333344,-0.512238999999997
12.11341499999998,-2.5963016666666774,0.00478730000000301
11.69532599999998,-2.8388572000000103,0.521813600000003
11.69532599999998,-2.8388572000000103,0.521813600000003
10.20488589999998,-2.5260882000000104,0.8250080000000031
8.714445799999979,-2.21331920000001,1.128202400000003
7.224005699999978,-1.9005502000000103,1.4313968000000032
7.224005699999978,-1.9005502000000103,1.4313968000000032
7.370815799999979,-1.8686350333333437,1.6675693000000031
7.51762589999998,-1.8367198666666773,1.9037418000000033
7.664435999999981,-1.8048047000000107,2.139914300000003
7.664435999999981,-1.8048047000000107,2.1399143000000036
8.513379999999982,-1.945231533333344,2.459066333333337
9.36232399999998,-2.0856583666666775,2.7782183666666698
10.211267999999977,-2.2260852000000106,3.0973704000000026
10.211267999999977,-2.2260852000000106,3.0973704000000026
11.864475666666644,-2.3250224000000106,3.745248933333336
13.51768333333331,-2.4239596000000105,4.3931274666666695
15.170890999999974,-2.5228968000000105,5.041006000000003
15.196422999999974,-2.621833866666677,5.4559036666666705
15.221954999999975,-2.7207709333333443,5.870801333333337
15.247486999999976,-2.819708000000011,6.285699000000005
15.247486999999976,-2.819708000000011,6.285699000000005
15.247486999999976,-2.819708000000011,6.285699000000005
15.687916999999972,-3.1165193666666777,6.097399333333338
16.12834699999997,-3.4133307333333445,5.909099666666671
16.568776999999965,-3.710142100000011,5.720800000000004
16.626224666666634,-3.579289800000011,4.916536866666671
16.683672333333302,-3.448437500000011,4.112273733333336
16.74111999999997,-3.3175852000000106,3.308010600000003
16.741119999999974,-3.3175852000000106,3.308010600000003
15.295360999999973,-3.429288366666677,2.5963016000000034
13.849601999999974,-3.5409915333333437,1.8845926000000037
12.403842999999974,-3.6526947000000103,1.1728836000000038
12.403842999999974,-3.6526947000000103,1.1728836000000038
11.187873999999972,-3.1484345666666766,0.9526687333333371
9.971904999999971,-2.6441744333333435,0.7324538666666705
8.75593599999997,-2.13991430000001,0.5122390000000038
8.75593599999997,-2.1399143000000094,0.5122390000000038
9.030406666666638,-2.1239567000000092,0.21542762000000384
9.304877333333307,-2.107999100000009,-0.08138375999999614
9.579347999999975,-2.092041500000009,-0.37819513999999615
9.579347999999976,-2.092041500000009,-0.37819513999999615
9.959138666666643,-2.098424533333342,-0.4164933766666629
10.33892933333331,-2.1048075666666755,-0.4547916133333296
10.718719999999976,-2.111190600000009,-0.49308984999999633
10.718719999999976,-2.111190600000009,-0.49308984999999633
10.757018333333312,-1.463312003333342,-0.8920298666666628
10.795316666666645,-0.8154334066666754,-1.2909698833333294
10.83361499999998,-0.16755481000000852,-1.6899098999999962
10.83361499999998,-0.16755481000000852,-1.6899098999999957
9.98786199999998,-0.2952156066666752,-1.9516145999999963
9.142108999999978,-0.42287640333334187,-2.213319299999996
8.296355999999976,-0.5505372000000085,-2.4750239999999963
9.02083133333331,-0.3271307966666752,-2.4877899999999964
9.745306666666645,-0.1037243933333419,-2.5005559999999964
10.469781999999977,0.11968200999999141,-2.513321999999996
10.469781999999975,0.11968200999999141,-2.5133219999999956
10.469781999999975,0.11968200999999141,-2.5133219999999956
11.315534666666643,-0.6367083266666752,-1.7250165633333292
12.161287333333307,-1.393098663333342,-0.9367111266666623
13.007039999999973,-2.1494890000000084,-0.1484056899999957
12.075115999999971,-2.050551833333342,0.5824524400000043
11.14319199999997,-1.9516146666666752,1.3133105700000045
10.211267999999972,-1.8526775000000084,2.0441687000000046
10.211267999999972,-1.8526775000000082,2.044168700000005
8.889978933333305,-1.4569290000000084,2.0058704666666713
7.568689866666637,-1.0611805000000083,1.9675722333333379
6.24740079999997,-0.6654320000000084,1.9292740000000042
6.24740079999997,-0.6654320000000084,1.9292740000000042
7.029323199999969,-1.2079904333333416,1.9005503000000044
7.811245599999968,-1.7505488666666749,1.8718266000000046
8.593167999999968,-2.2931073000000084,1.8431029000000045
8.593167999999968,-2.2931073000000084,1.8431029000000045
9.550623999999969,-2.395235966666675,2.4335341333333385
10.50807999999997,-2.497364633333342,3.023965366666672
11.46553599999997,-2.5994933000000082,3.614396600000006
11.46553599999997,-2.5994933000000082,3.6143966000000063
13.240021333333303,-2.5580035333333417,4.562278066666674
15.014506666666636,-2.5165137666666753,5.510159533333341
16.78899199999997,-2.4750240000000088,6.458041000000009
16.788991999999972,-2.4750240000000088,6.458041000000009
16.540052999999975,-2.031402666666675,6.173995666666674
16.291113999999975,-1.587781333333342,5.889950333333341
16.04217499999998,-1.1441600000000085,5.605905000000007
16.204943333333308,-2.111190666666675,5.143134566666674
16.36771166666664,-3.078221333333342,4.680364133333342
16.530479999999972,-4.0452520000000085,4.217593700000009
16.530479999999972,-4.045252000000009,4.21759370000001
16.24643433333331,-3.8441861666666757,3.5409914666666764
15.96238866666664,-3.6431203333333424,2.864389233333343
15.678342999999975,-3.4420545000000087,2.1877870000000095
15.678342999999975,-3.4420545000000087,2.1877870000000095
13.932581333333308,-3.0399229333333424,1.9835297333333426
12.186819666666642,-2.637791366666676,1.779272466666676
10.441057999999975,-2.23565980000001,1.5750152000000093
10.441057999999975,-2.23565980000001,1.5750152000000093
9.898499666666643,-1.9452315000000098,1.2430971000000095
9.35594133333331,-1.6548032000000095,0.9111790000000095
8.813382999999979,-1.3643749000000092,0.5792609000000095
8.813382999999979,-1.3643749000000092,0.5792609000000096
9.442112666666645,-1.6196964666666755,0.25053432666667624
10.070842333333312,-1.8750180333333422,-0.07819224666665714
10.69957199999998,-2.1303396000000085,-0.4069188199999905
10.69957199999998,-2.1303396000000085,-0.4069188199999905
10.87191399999998,-1.9324653666666751,-0.8537316133333239
11.044255999999981,-1.7345911333333417,-1.3005444066666574
11.216597999999982,-1.5367169000000083,-1.7473571999999908
11.216597999999982,-1.5367169000000083,-1.7473571999999908
10.389994333333314,-1.3707578666666749,-2.1462972666666573
9.563390666666649,-1.2047988333333415,-2.5452373333333242
8.736786999999984,-1.038839800000008,-2.9441773999999916
9.333600999999982,-0.9877754666666748,-2.9346028333333245
9.930414999999982,-0.9367111333333416,-2.925028266666658
10.527228999999982,-0.8856468000000083,-2.915453699999991
10.527228999999982,-0.8856468000000083,-2.915453699999991
10.849572666666647,-0.9367111333333416,-2.5197051999999913
11.171916333333316,-0.9877754666666748,-2.1239566999999915
11.494259999999985,-1.038839800000008,-1.7282081999999914
11.494259999999988,-1.038839800000008,-1.7282081999999914
12.004903333333322,-1.4888441333333418,-1.1250108783333248
12.515546666666657,-1.9388484666666752,-0.5218135566666581
13.02618999999999,-2.388852800000009,0.08138376500000859
13.02618999999999,-2.388852800000009,0.08138376500000859
11.41447199999999,-2.1079990333333423,0.6622404100000084
9.802753999999988,-1.8271452666666754,1.2430970550000084
8.191035999999988,-1.5462915000000088,1.8239537000000083
8.191035999999986,-1.5462915000000088,1.8239537000000083
7.626137099999986,-1.5430999666666754,1.9356569000000083
7.061238199999985,-1.539908433333342,2.0473601000000086
6.496339299999985,-1.5367169000000083,2.159063300000009
6.496339299999985,-1.5367169000000083,2.159063300000009
7.453795533333319,-1.6292710000000084,2.2803411333333425
8.411251766666654,-1.7218251000000084,2.401618966666676
9.368707999999987,-1.8143792000000085,2.522896800000009
9.36870799999999,-1.8143792000000085,2.522896800000009
10.839998333333321,-2.0728923333333418,3.170775200000009
12.311288666666655,-2.331405466666675,3.8186536000000086
13.78257899999999,-2.5899186000000083,4.466532000000009
14.82301499999999,-1.9165078500000081,5.577181200000008
15.863450999999989,-1.2430971000000077,6.687830400000007
16.903886999999987,-0.5696863500000077,7.798479600000007
16.903886999999987,-0.5696863500000077,7.798479600000007
16.903886999999987,-0.5696863500000077,7.798479600000007
16.94856799999999,-0.30479017666667435,7.913374400000007
16.99324899999999,-0.03989400333334103,8.028269200000006
17.037929999999992,0.2250021699999923,8.143164000000006
17.26133633333333,-1.0324567866666745,6.496339466666673
17.484742666666662,-2.289915743333341,4.8495149333333405
17.708148999999995,-3.5473747000000078,3.202690400000007
17.708149,-3.5473747000000078,3.202690400000007
16.935801333333334,-3.8824842666666743,2.1750209366666735
16.163453666666665,-4.217593833333341,1.1473514733333403
15.391106,-4.5527034000000075,0.11968201000000711
15.391106,-4.5527034000000075,0.11968201000000711
13.316618,-4.0771669333333405,-0.18670392666665958
11.242130000000001,-3.601630466666674,-0.4930898633333263
9.167642,-3.1260940000000073,-0.799475799999993
9.167642,-3.1260940000000073,-0.799475799999993
8.985725333333335,-2.835665666666674,-0.9271365999999929
8.803808666666669,-2.5452373333333402,-1.0547973999999927
8.621892000000003,-2.254809000000007,-1.1824581999999926
8.621892000000004,-2.254809000000007,-1.1824581999999924
8.65699866666667,-1.9356569666666736,-0.860114666666659
8.692105333333336,-1.6165049333333403,-0.5377711333333257
8.727212000000003,-1.297352900000007,-0.2154275999999924
8.727212000000002,-1.297352900000007,-0.2154275999999924
8.838915333333334,-1.0707549766666737,-0.588835466666659
8.950618666666669,-0.8441570533333405,-0.9622433333333257
9.062322000000002,-0.6175591300000072,-1.3356511999999923
9.062322000000002,-0.6175591300000072,-1.3356511999999923
8.864447500000002,-0.7771351200000072,-1.4537374333333253
8.666573000000001,-0.9367111100000072,-1.5718236666666583
8.468698500000002,-1.0962871000000072,-1.6899098999999913
9.257004000000002,-1.1090532000000073,-1.6101218999999916
10.045309500000002,-1.1218193000000072,-1.5303338999999916
10.833615000000002,-1.1345854000000073,-1.4505458999999916
10.833615000000002,-1.1345854000000075,-1.4505458999999916
11.219789,-1.5494830000000077,-1.0579889266666582
11.605963000000001,-1.9643806000000081,-0.665431953333325
11.992137,-2.3792782000000083,-0.27287497999999183
11.992137,-2.379278200000009,-0.27287497999999183
12.378310999999998,-2.452683233333342,0.3526629800000081
12.764484999999999,-2.5260882666666755,0.9782009400000081
13.150658999999997,-2.599493300000009,1.603738900000008
13.150658999999997,-2.599493300000009,1.603738900000008
11.475110999999998,-1.903741866666676,1.9388485000000084
9.799563,-1.2079904333333429,2.2739581000000086
8.124015,-0.5122390000000095,2.609067700000009
8.124015,-0.5122390000000095,2.609067700000009
7.999545500000001,-0.6686234800000096,2.7494945666666752
7.875076000000001,-0.8250079600000095,2.889921433333342
7.750606500000001,-0.9813924400000095,3.0303483000000084
7.750606500000001,-0.9813924400000095,3.0303483000000084
8.810191000000001,-1.3260766266666761,3.327159733333341
9.869775500000001,-1.6707608133333427,3.6239711666666743
10.929360000000003,-2.015445000000009,3.9207826000000074
12.110222666666667,-2.2771496666666757,4.906962266666675
13.291085333333333,-2.5388543333333424,5.893141933333342
14.471947999999998,-2.800559000000009,6.879321600000009
14.471947999999998,-2.800559000000009,6.879321600000009
14.471947999999998,-2.800559000000009,6.879321600000009
14.657055999999997,-2.660132066666676,6.748469400000008
14.842163999999997,-2.5197051333333427,6.617617200000009
15.027271999999996,-2.3792782000000092,6.486765000000009
15.027271999999996,-2.730345433333343,5.695267900000009
15.027271999999996,-3.0814126666666763,4.903770800000009
15.027271999999996,-3.43247990000001,4.112273700000009
15.027271999999996,-3.43247990000001,4.11227370000001
15.043229999999994,-3.505884833333343,3.2090735000000095
15.059187999999992,-3.579289766666676,2.3058733000000093
15.07514599999999,-3.652694700000009,1.4026731000000092
15.07514599999999,-3.652694700000009,1.4026731000000094
14.554927999999991,-3.751631900000009,1.0324567666666762
14.034709999999992,-3.850569100000009,0.6622404333333428
13.514491999999992,-3.949506300000009,0.2920241000000095
13.51449199999999,-3.949506300000009,0.2920241000000095
12.030435333333324,-3.483544266666676,0.22500217666667613
10.546378666666659,-3.017582233333343,0.15798025333334278
9.062321999999991,-2.5516202000000097,0.09095833000000945
9.06232199999999,-2.5516202000000097,0.09095833000000945
8.87402199999999,-2.4303424666666764,-0.11010744666665721
8.68572199999999,-2.309064733333343,-0.31117322333332387
8.497421999999988,-2.1877870000000095,-0.5122389999999906
8.497421999999988,-2.1877870000000095,-0.5122389999999905
8.360186666666655,-1.7250166000000096,-0.6558573999999905
8.22295133333332,-1.2622462000000094,-0.7994757999999904
8.085715999999985,-0.7994758000000092,-0.9430941999999903
8.085715999999985,-0.7994758000000092,-0.9430941999999903
7.913373999999986,-0.6941556333333425,-1.0994786999999902
7.7410319999999855,-0.5888354666666759,-1.2558631999999903
7.568689999999985,-0.48351530000000914,-1.4122476999999902
8.108056666666652,-0.5377711500000091,-1.3101190666666571
8.647423333333318,-0.5920270000000091,-1.2079904333333236
9.186789999999984,-0.646282850000009,-1.10586179999999
9.186789999999982,-0.646282850000009,-1.10586179999999
9.186789999999982,-0.646282850000009,-1.10586179999999
10.46020666666665,-0.7803266666666757,-0.9143705666666566
11.733623333333318,-0.9143704833333423,-0.7228793333333233
13.007039999999984,-1.0484143000000088,-0.5313880999999899
13.007039999999984,-1.0484143000000088,-0.5313880999999899
12.882570999999984,-1.4058646000000088,0.06542616666667671
12.758101999999985,-1.7633149000000088,0.6622404333333435
12.633632999999984,-2.1207652000000086,1.25905470000001
12.12298966666665,-2.0728923666666756,1.5813982000000102
11.612346333333315,-2.025019533333342,1.90374170000001
11.101702999999981,-1.9771467000000085,2.22608520000001
11.101702999999981,-1.9771467000000083,2.22608520000001
9.474027666666649,-1.5367169333333415,2.612259133333344
7.846352333333314,-1.096287166666675,2.9984330666666765
6.218676999999981,-0.6558574000000083,3.3846070000000097
6.218676999999981,-0.6558574000000083,3.3846070000000097
6.218676999999981,-0.6558574000000083,3.3846070000000097
6.438891866666648,-0.8792638000000083,3.327159666666676
6.6591067333333145,-1.1026702000000081,3.269712333333343
6.879321599999982,-1.3260766000000082,3.2122650000000093
6.879321599999982,-1.3260766000000082,3.2122650000000093
7.814437066666648,-1.600547400000008,3.566523666666676
8.749552533333313,-1.8750182000000077,3.9207823333333427
9.684667999999979,-2.1494890000000075,4.27504100000001
11.034680999999978,-2.3058734333333413,4.64206600000001
12.384693999999977,-2.4622578666666746,5.0090910000000095
13.734706999999977,-2.618642300000008,5.37611600000001
13.734706999999977,-2.6186423000000083,5.37611600000001
13.776196999999977,-2.404810433333342,5.187816333333343
13.817686999999978,-2.1909785666666757,4.999516666666676
13.85917699999998,-1.9771467000000094,4.811217000000009
13.85917699999998,-1.9771467000000094,4.81121700000001
14.127264666666646,-2.727154000000009,4.402702300000009
14.395352333333312,-3.477161300000009,3.9941876000000094
14.663439999999978,-4.227168600000009,3.5856729000000094
14.663439999999978,-4.2271686000000095,3.5856729000000094
14.99216633333331,-4.208019400000009,3.0239653333333423
15.320892666666644,-4.18887020000001,2.4622577666666756
15.649618999999978,-4.16972100000001,1.9005502000000085
15.649618999999978,-4.16972100000001,1.9005502000000085
13.843218666666644,-4.022911066666677,1.7920385333333417
12.03681833333331,-3.876101133333344,1.683526866666675
10.230417999999977,-3.7292912000000107,1.5750152000000082
10.230417999999977,-3.7292912000000107,1.5750152000000082
9.362324433333308,-3.1931158666666772,1.2335225333333415
8.49423086666664,-2.656940533333344,0.8920298666666747
7.626137299999972,-2.12076520000001,0.550537200000008
7.626137299999972,-2.1207652000000095,0.5505372000000079
7.645286433333307,-1.1282024133333428,0.35266295900000794
7.66443556666664,-0.13563962666667617,0.15478871800000796
7.683584699999973,0.8569231599999906,-0.04308552299999202
7.683584699999973,0.8569231599999906,-0.04308552299999202
7.852735133333307,0.5281965866666573,-0.6143676486666587
8.02188556666664,0.1994700133333239,-1.1856497743333254
8.191035999999972,-0.12925656000000943,-1.7569318999999919
8.947426333333306,-0.19947000666667614,-1.9292739999999917
9.703816666666638,-0.2696834533333428,-2.101616099999992
10.460206999999972,-0.33989690000000955,-2.2739581999999925
10.460206999999972,-0.33989690000000955,-2.273958199999993
10.935743666666639,-0.4547916333333428,-2.0122535333333262
11.411280333333304,-0.5696863666666762,-1.7505488666666595
11.88681699999997,-0.6845811000000096,-1.4888441999999928
11.88681699999997,-0.6845811000000096,-1.4888441999999928
11.88681699999997,-0.6845811000000096,-1.4888441999999928
12.959167666666637,-0.3207477933333429,-1.367566399999993
14.031518333333302,0.04308551333332374,-1.2462885999999929
15.103868999999968,0.4069188199999904,-1.125010799999993
15.103868999999966,0.4069188199999904,-1.125010799999993
14.088965666666633,-0.9303281200000096,-0.21861906666665964
13.074062333333302,-2.2675750600000093,0.6877726666666737
12.05915899999997,-3.6048220000000093,1.5941644000000068
10.405951466666636,-1.7728894333333425,2.2037447333333398
8.752743933333301,0.05904313333332434,2.813325066666673
7.099536399999967,1.8909756999999907,3.422905400000006
7.099536399999967,1.8909756999999907,3.422905400000006
7.099536399999967,1.8909756999999907,3.422905400000006
5.979312899999968,1.8335283666666573,3.097370366666673
4.859089399999968,1.776081033333324,2.7718353333333394
3.738865899999968,1.7186336999999903,2.446300300000006
3.738865899999968,1.7186336999999903,2.4463003000000056
4.8016421333333,0.14202273333332363,1.9037418333333394
5.864418366666634,-1.4345882333333428,1.3611833666666726
6.927194599999967,-3.0111992000000094,0.8186249000000059
8.1623127333333,-3.1835412666666763,1.204798833333339
9.397430866666632,-3.355883333333343,1.5909727666666724
10.632548999999964,-3.5282254000000095,1.9771467000000058
10.632548999999964,-3.5282254000000095,1.9771467000000058
10.632548999999964,-3.5282254000000095,1.9771467000000058
11.235746666666634,-3.59843890000001,2.640982900000006
11.838944333333302,-3.66865240000001,3.3048191000000053
12.44214199999997,-3.7388659000000097,3.9686553000000053
14.146413333333305,-3.8856757666666764,4.125039866666671
15.850684666666638,-4.032485633333343,4.2814244333333376
17.554955999999972,-4.179295500000009,4.437809000000004
17.554955999999972,-4.17929550000001,4.437809000000004
17.631552666666636,-4.1282311666666756,3.528225666666671
17.7081493333333,-4.077166833333342,2.6186423333333377
17.784745999999966,-4.026102500000008,1.7090590000000045
17.784745999999966,-4.0261025000000075,1.7090590000000045
16.074091166666634,-4.029294133333341,1.361183333333338
14.363436333333302,-4.0324857666666745,1.0133076666666714
12.65278149999997,-4.035677400000008,0.6654320000000047
12.65278149999997,-4.035677400000008,0.6654320000000048
10.744252533333304,-3.611205166666675,0.5441542233333382
8.835723566666639,-3.1867329333333423,0.42287644666667146
6.927194599999971,-2.7622607000000095,0.3015986700000048
6.927194599999971,-2.7622607000000095,0.3015986700000048
6.780384733333304,-2.0952329800000093,0.32393930333333815
6.633574866666637,-1.4282052600000092,0.3462799366666715
6.48676499999997,-0.761177540000009,0.36862057000000487
6.48676499999997,-0.7611775400000088,0.36862057000000487
6.933577766666637,-0.7547944933333423,0.4547916133333381
7.380390533333305,-0.7484114466666757,0.5409626566666714
7.827203299999972,-0.7420284000000091,0.6271337000000047
7.827203299999972,-0.7420284000000091,0.6271337000000047
8.216568533333307,-0.9271365666666758,0.349471453333338
8.60593376666664,-1.1122447333333425,0.07180920666667134
8.995298999999974,-1.297352900000009,-0.2058530399999953
9.241046333333307,-1.5718236666666758,-0.35904602666666197
9.486793666666637,-1.8462944333333426,-0.5122390133333287
9.73254099999997,-2.1207652000000095,-0.6654319999999952
9.73254099999997,-2.1207652000000095,-0.6654319999999952
10.578293666666637,-2.0345941333333433,-0.7484115133333287
11.424046333333303,-1.9484230666666764,-0.8313910266666621
12.26979899999997,-1.8622520000000096,-0.9143705399999954
12.26979899999997,-1.8622520000000096,-0.9143705399999954
12.26979899999997,-1.8622520000000096,-0.9143705399999954
12.199585666666637,-2.2675750000000097,-0.4164933933333288
12.129372333333306,-2.67289800000001,0.08138375333333787
12.059158999999973,-3.0782210000000103,0.5792609000000045
12.205968999999973,-2.940985666666677,1.275012266666671
12.352778999999972,-2.803750333333344,1.9707636333333376
12.499588999999972,-2.6665150000000106,2.6665150000000044
12.499588999999972,-2.6665150000000106,2.666515000000004
12.499588999999972,-2.6665150000000106,2.666515000000004
10.57510219999997,-1.5750151333333438,2.7399200000000037
8.65061539999997,-0.48351526666667705,2.813325000000004
6.726128599999967,0.6079845999999897,2.8867300000000036
6.726128599999967,0.6079845999999897,2.8867300000000036
6.148463399999968,-0.06542616666667704,2.625025333333337
5.570798199999968,-0.7388369333333437,2.36332066666667
4.993132999999968,-1.4122477000000104,2.1016160000000035
5.701650566666635,-1.957997666666677,2.0026789000000034
6.410168133333301,-2.5037476333333437,1.9037418000000035
7.118685699999968,-3.0494976000000107,1.8048047000000036
7.118685699999968,-3.0494976000000107,1.8048047000000036
8.283590466666636,-2.9697095666666766,2.30906486666667
9.448495233333302,-2.8899215333333435,2.813325033333337
10.613399999999968,-2.8101335000000103,3.3175852000000035
10.613399999999968,-2.810133500000011,3.3175852000000035
11.822986333333303,-2.602684666666678,3.697376133333337
13.032572666666637,-2.3952358333333446,4.077167066666671
14.24215899999997,-2.1877870000000117,4.456958000000004
14.24215899999997,-2.187787000000012,4.456958000000004
14.669822333333302,-2.018636466666679,4.447383333333337
15.097485666666635,-1.8494859333333453,4.43780866666667
15.525148999999969,-1.680335400000012,4.428234000000003
15.282593666666635,-2.3218309333333456,3.4260967333333365
15.040038333333301,-2.9633264666666785,2.4239594666666697
14.79748299999997,-3.6048220000000115,1.421822200000003
14.79748299999997,-3.6048220000000115,1.421822200000003
14.79748299999997,-3.6048220000000115,1.421822200000003
15.260253666666637,-3.8441860000000116,1.0005415500000028
15.723024333333305,-4.083550000000011,0.5792609000000027
16.18579499999997,-4.322914000000011,0.1579802500000027
13.73789899999997,-3.713333666666678,0.32393930000000265
11.29000299999997,-3.1037533333333442,0.48989835000000265
8.842106999999968,-2.494173000000011,0.6558574000000026
8.84210699999997,-2.4941730000000106,0.6558574000000026
8.274016333333305,-2.293107233333344,0.44840858666666933
7.70592566666664,-2.0920414666666773,0.24095977333333599
7.137834999999974,-1.890975700000011,0.03351096000000264
7.137834999999974,-1.890975700000011,0.03351096000000264
7.565498666666639,-1.6803353666666776,-0.059043126666664024
7.993162333333305,-1.469695033333344,-0.15159721333333068
8.42082599999997,-1.2590547000000107,-0.24415129999999732
8.42082599999997,-1.2590547000000107,-0.24415129999999732
8.366570333333302,-0.8250079590000108,-0.3015986666666641
8.312314666666635,-0.3909612180000108,-0.35904603333333074
8.258058999999967,0.04308552299998921,-0.4164933999999974
8.258058999999966,0.04308552299998921,-0.4164933999999974
8.005928666666632,-0.37500361800001075,-0.4579831466666641
7.753798333333299,-0.7930927590000106,-0.4994728933333308
7.501667999999966,-1.2111819000000106,-0.5409626399999975
7.501667999999966,-1.2111819000000106,-0.5409626399999974
8.9761503333333,-1.278203833333344,-0.8122418599999973
10.450632666666634,-1.3452257666666776,-1.0835210799999972
11.925114999999968,-1.4122477000000109,-1.3548002999999973
11.925114999999968,-1.4122477000000109,-1.3548002999999973
12.161287666666636,-1.8303368000000109,-0.930328121666664
12.397460333333301,-2.248425900000011,-0.5058559433333306
12.633632999999968,-2.666515000000011,-0.08138376499999733
12.633632999999966,-2.666515000000011,-0.08138376499999733
13.428321333333296,-2.9856670666666774,0.7164962566666694
14.223009666666627,-3.304819133333344,1.514376278333336
15.017697999999958,-3.6239712000000104,2.3122563000000027
15.017697999999958,-3.6239712000000104,2.3122563000000027
12.888953999999961,-2.4590663200000105,3.023965333333336
10.760209999999963,-1.2941614400000103,3.73567436666667
8.631465999999964,-0.12925656000001048,4.447383400000004
8.631465999999964,-0.12925656000001048,4.447383400000004
7.782521799999965,0.014361849999989526,4.105890733333337
6.933577599999965,0.15798025999998952,3.76439806666667
6.084633399999966,0.3015986699999895,3.4229054000000025
6.084633399999966,0.3015986699999895,3.4229054000000025
6.445275033333298,-0.8601146533333437,2.762260733333336
6.80591666666663,-2.021827976666677,2.10161606666667
7.166558299999963,-3.18354130000001,1.4409714000000033
7.166558299999963,-3.18354130000001,1.4409714000000033
7.87188436666663,-3.4101392333333433,1.9069333333333365
8.577210433333297,-3.636737166666677,2.3728952666666694
9.282536499999964,-3.8633351000000107,2.8388572000000027
9.282536499999964,-3.8633351000000107,2.8388572000000027
10.619783333333297,-3.949506066666677,3.059072133333336
11.957030166666632,-4.035677033333344,3.279287066666669
13.294276999999965,-4.12184800000001,3.4995020000000028
14.660247666666633,-4.45376610000001,3.5282256333333364
16.0262183333333,-4.78568420000001,3.55694926666667
17.392188999999966,-5.117602300000011,3.5856729000000036
17.392188999999963,-5.117602300000011,3.5856729000000036
17.392188999999963,-5.117602300000011,3.5856729000000036
17.073036666666628,-4.801641866666679,2.6984302900000032
16.753884333333293,-4.485681433333346,1.8111876800000033
16.434731999999958,-4.1697210000000124,0.9239450700000034
15.148549666666625,-4.089933000000013,0.82819946666667
13.86236733333329,-4.010145000000013,0.7324538633333365
12.576184999999958,-3.9303570000000136,0.6367082600000031
12.576184999999958,-3.9303570000000136,0.6367082600000031
10.808082899999958,-3.349500333333347,0.7867097066666698
9.039980799999954,-2.76864366666668,0.9367111533333367
7.271878699999952,-2.1877870000000135,1.0867126000000036
7.271878699999952,-2.187787000000013,1.0867126000000036
7.249538133333286,-1.84948586666668,0.8505401133333367
7.227197566666621,-1.5111847333333468,0.61436762666667
7.204856999999954,-1.1728836000000136,0.37819514000000337
7.204856999999954,-1.1728836000000136,0.3781951400000034
7.501668333333288,-1.061180413333347,0.34627994000000345
7.79847966666662,-0.9494772266666801,0.3143647400000035
8.095290999999953,-0.8377740400000134,0.2824495400000035
8.095290999999952,-0.8377740400000132,0.28244954000000355
8.334654999999952,-0.9558602933333468,0.15798025000000357
8.574018999999952,-1.0739465466666802,0.033510960000003566
8.81338299999995,-1.1920328000000138,-0.09095832999999642
8.81338299999995,-1.1920328000000138,-0.09095832999999642
9.196365333333283,-1.4377798666666806,-0.21861912999999641
9.579347666666616,-1.6835269333333471,-0.34627992999999635
9.96232999999995,-1.9292740000000137,-0.4739407299999963
9.96232999999995,-1.9292740000000137,-0.4739407299999963
10.64850699999995,-1.8686350666666804,-0.620750666666663
11.334683999999951,-1.8079961333333472,-0.7675606033333296
12.020860999999952,-1.747357200000014,-0.9143705399999963
12.020860999999954,-1.747357200000014,-0.9143705399999963
12.068733666666622,-2.1718294666666806,-0.486706836666663
12.116606333333289,-2.596301733333347,-0.05904313333332967
12.164478999999957,-3.0207740000000136,0.36862057000000364
12.164478999999957,-3.0207740000000136,0.36862057000000364
12.28256533333329,-2.9026876666666808,0.8377740466666704
12.400651666666624,-2.7846013333333475,1.3069275233333373
12.518737999999956,-2.666515000000014,1.776081000000004
12.518737999999956,-2.666515000000014,1.7760810000000042
10.60063433333329,-1.8526773900000137,2.2420430000000042
8.682530666666622,-1.0388397800000138,2.708005000000004
6.764426999999955,-0.22500217000001385,3.173967000000004
6.3208056666666215,-0.5856439133333472,2.810133600000004
5.877184333333287,-0.9462856566666806,2.446300200000004
5.433562999999953,-1.3069274000000142,2.0824668000000037
5.433562999999953,-1.3069274000000142,2.0824668000000037
5.433562999999953,-1.3069274000000142,2.0824668000000037
5.433562999999953,-1.3069274000000142,2.0824668000000037
5.433562999999953,-1.3069274000000142,2.0824668000000037
5.433562999999953,-1.3069274000000142,2.0824668000000037
7.07081266666662,-1.8399112666666808,2.7367285333333364
8.708062333333286,-2.3728951333333472,3.3909902666666696
10.345311999999952,-2.9058790000000143,4.045252000000002
10.345311999999952,-2.9058790000000143,4.045252000000002
11.248512499999952,-2.4367255666666807,4.262275333333336
12.151712999999951,-1.9675721333333474,4.479298666666669
13.05491349999995,-1.4984187000000138,4.696322000000003
13.05491349999995,-1.4984187000000138,4.696322000000003
13.785771333333285,-1.7026760000000138,4.367595366666669
14.516629166666618,-1.906933300000014,4.038868733333336
15.247486999999952,-2.1111906000000142,3.7101421000000028
15.247486999999952,-2.1111906000000142,3.7101421000000028
15.582596999999952,-2.81970806666668,2.870772333333336
15.917706999999952,-3.5282255333333468,2.031402566666669
16.252816999999954,-4.236743000000014,1.1920328000000022
16.252816999999954,-4.236743000000014,1.1920328000000022
15.850685333333287,-4.456957833333347,0.8218164550000022
15.44855366666662,-4.677172666666681,0.45160011000000216
15.046421999999952,-4.897387500000014,0.08138376500000206
13.077253999999952,-4.169721000000013,0.22181066000000207
11.10808599999995,-3.442054500000013,0.3622375550000021
9.138917999999949,-2.7143880000000125,0.502664450000002
9.138917999999949,-2.7143880000000125,0.502664450000002
9.138917999999949,-2.7143880000000125,0.502664450000002
8.468698666666615,-2.3026818666666795,0.6143676466666687
7.798479333333282,-1.8909757333333463,0.7260708433333353
7.1282599999999485,-1.4792696000000134,0.837774040000002
7.042088999999948,-1.4154392000000133,0.7005386766666687
6.955917999999948,-1.3516088000000135,0.5633033133333354
6.869746999999948,-1.2877784000000136,0.426067950000002
6.869746999999948,-1.2877784000000136,0.426067950000002
7.077195866666615,-1.2558632000000138,0.29521562000000207
7.284644733333281,-1.2239480000000138,0.16436329000000208
7.492093599999948,-1.1920328000000138,0.03351096000000209
7.492093599999948,-1.1920328000000138,0.03351096000000209
7.801671066666615,-1.2845868666666804,0.004787280000002089
8.111248533333283,-1.3771409333333473,-0.02393639999999791
8.42082599999995,-1.469695000000014,-0.05266007999999791
8.42082599999995,-1.469695000000014,-0.05266007999999791
9.011257333333283,-1.7696979333333474,0.004787283333335428
9.601688666666616,-2.0697008666666807,0.06223464666666876
10.192119999999948,-2.369703800000014,0.1196820100000021
10.192119999999948,-2.369703800000014,0.1196820100000021
10.472973666666615,-2.784601400000014,0.550537240000002
10.753827333333282,-3.1994990000000136,0.9813924700000021
11.03468099999995,-3.6143966000000134,1.412247700000002
11.03468099999995,-3.6143966000000134,1.412247700000002
11.570856333333284,-3.7133337333333465,1.9931043333333356
12.107031666666616,-3.8122708666666796,2.5739609666666685
12.643206999999949,-3.9112080000000127,3.1548176000000017
12.643206999999947,-3.9112080000000127,3.1548176000000017
11.730431999999945,-3.1101364000000125,3.422905300000002
10.817656999999945,-2.3090648000000122,3.690993000000002
9.904881999999946,-1.507993200000012,3.9590807000000017
9.904881999999944,-1.507993200000012,3.9590807000000017
8.401676199999942,-1.329268100000012,3.604822000000002
6.898470399999941,-1.150543000000012,3.2505633000000027
5.3952645999999405,-0.971817900000012,2.896304600000003
5.3952645999999405,-0.971817900000012,2.896304600000003
5.81654529999994,-1.7760809333333452,2.567578000000003
6.237825999999939,-2.5803439666666788,2.238851400000003
6.659106699999938,-3.384607000000013,1.9101248000000026
6.659106699999938,-3.3846070000000132,1.9101248000000026
7.578264466666606,-3.32077666666668,2.337788533333336
8.497422233333271,-3.2569463333333473,2.765452266666669
9.416579999999938,-3.193116000000014,3.193116000000002
9.416579999999938,-3.193116000000014,3.193116000000002
10.50807999999994,-3.1037534333333476,3.5537576666666695
11.599579999999941,-3.0143908666666817,3.914399333333337
12.691079999999943,-2.9250283000000152,4.275041000000004
12.691079999999943,-2.9250283000000152,4.275041000000004
14.436841333333277,-2.8228996333333485,4.067592233333337
16.18260266666661,-2.720770966666682,3.8601434666666705
17.928363999999945,-2.618642300000015,3.6526947000000036
17.928363999999945,-2.6186423000000154,3.6526947000000036
17.36984833333328,-2.8133250000000154,2.826091000000004
16.811332666666615,-3.008007700000016,1.9994873000000044
16.25281699999995,-3.202690400000016,1.1728836000000045
15.521958666666618,-3.467586600000016,0.7707520800000044
14.791100333333285,-3.732482800000016,0.36862056000000437
14.060241999999953,-3.9973790000000164,-0.03351095999999565
14.060241999999953,-3.9973790000000164,-0.03351095999999565
14.060241999999953,-3.9973790000000164,-0.03351095999999565
11.985753899999951,-3.608013500000016,0.17712936000000434
9.911265799999951,-3.218648000000016,0.38776968000000434
7.836777699999949,-2.8292825000000157,0.5984100000000043
7.332517466666616,-2.3505545333333493,0.6335167233333378
6.828257233333282,-1.8718265666666827,0.6686234466666711
6.323996999999949,-1.393098600000016,0.7037301700000045
6.323996999999949,-1.393098600000016,0.7037301700000045
6.212293999999948,-1.3069275333333492,0.5473456900000045
6.100590999999947,-1.2207564666666826,0.39096121000000456
5.988887999999946,-1.1345854000000157,0.23457673000000456
5.988887999999946,-1.1345854000000157,0.23457673000000456
6.5091056666666125,-1.0994787000000157,0.24734281333333788
7.02932333333328,-1.0643720000000156,0.26010889666667125
7.549540999999947,-1.0292653000000156,0.2728749800000046
7.549540999999948,-1.0292653000000154,0.2728749800000046
7.881458999999947,-1.2718208333333487,0.22819369333333792
8.21337699999995,-1.514376366666682,0.18351240666667124
8.545294999999951,-1.756931900000015,0.13883112000000455
8.545294999999951,-1.756931900000015,0.13883112000000455
9.630411999999954,-1.8973587333333484,0.13883112000000455
10.715528999999956,-2.0377855666666815,0.13883112000000455
11.800645999999958,-2.178212400000015,0.13883112000000455
11.800645999999958,-2.178212400000015,0.13883112000000455
12.091073999999958,-2.1973615333333485,0.17393784666667123
12.38150199999996,-2.2165106666666823,0.2090445733333379
12.67192999999996,-2.235659800000016,0.24415130000000454
12.67192999999996,-2.235659800000016,0.24415130000000454
12.888953666666628,-2.666515000000016,0.6494743333333379
13.105977333333295,-3.097370200000016,1.0547973666666712
13.323000999999962,-3.5282254000000157,1.4601204000000045
13.323000999999962,-3.5282254000000157,1.4601204000000045
11.851709999999962,-2.8771553333333486,1.8973587000000043
10.38041899999996,-2.2260852666666815,2.3345970000000045
8.90912799999996,-1.5750152000000146,2.771835300000004
8.90912799999996,-1.5750152000000146,2.771835300000004
7.651669233333294,-1.1569260533333479,2.7016218666666707
6.394210466666628,-0.7388369066666813,2.6314084333333376
5.136751699999961,-0.32074776000001476,2.5611950000000046
5.136751699999961,-0.32074776000001476,2.5611950000000046
5.711225366666629,-1.003733106666681,2.596301666666671
6.285699033333297,-1.6867184533333477,2.6314083333333382
6.860172699999964,-2.369703800000014,2.6665150000000053
6.860172699999964,-2.369703800000014,2.6665150000000053
7.8718846333332975,-2.254809066666681,3.043114433333338
8.88359656666663,-2.1399143333333477,3.419713866666671
9.895308499999963,-2.0250196000000145,3.7963133000000044
9.895308499999963,-2.0250196000000145,3.7963133000000044
10.839998333333298,-2.1973616666666813,3.965463866666671
11.784688166666632,-2.3697037333333477,4.134614433333338
12.729377999999963,-2.5420458000000146,4.303765000000005
12.729377999999963,-2.5420458000000146,4.303765000000005
13.817686666666631,-2.8101335333333477,4.268658333333339
14.9059953333333,-3.078221266666681,4.233551666666672
15.994303999999966,-3.346309000000014,4.198445000000006
15.994303999999966,-3.346309000000014,4.198445000000007
16.51132999999997,-3.592056000000014,3.35907513333334
17.02835599999997,-3.8378030000000147,2.5197052666666737
17.54538199999997,-4.083550000000015,1.6803354000000068
16.875162666666636,-3.8569520333333487,1.2367140833333403
16.2049433333333,-3.630354066666682,0.7930927666666738
15.534723999999963,-3.4037561000000154,0.3494714500000073
15.534723999999963,-3.4037561000000154,0.3494714500000073
13.453852666666629,-3.113327800000015,0.432450966666674
11.372981333333295,-2.8228995000000148,0.5154304833333406
9.292109999999962,-2.5324712000000145,0.5984100000000073
9.29210999999996,-2.5324712000000145,0.5984100000000074
8.62508249999996,-2.2356598666666816,0.7579860333333408
7.958054999999959,-1.9388485333333485,0.9175620666666743
7.2910274999999585,-1.642037200000015,1.0771381000000078
7.2910274999999585,-1.642037200000015,1.077138100000008
7.319751233333292,-1.5494831000000149,0.8313910333333411
7.348474966666626,-1.456929000000015,0.5856439666666743
7.377198699999961,-1.3643749000000154,0.3398969000000076
7.377198699999961,-1.3643749000000156,0.3398969000000076
7.833586133333294,-1.310119033333349,0.15798025333334093
8.289973566666626,-1.2558631666666824,-0.02393639333332574
8.74636099999996,-1.2016073000000156,-0.2058530399999924
8.74636099999996,-1.2016073000000154,-0.2058530399999924
8.727211666666626,-1.4696949666666823,-0.21223608333332575
8.708062333333293,-1.7377826333333493,-0.21861912666665906
8.688912999999959,-2.005870300000016,-0.22500216999999237
8.688912999999959,-2.005870300000016,-0.22500216999999237
9.091044833333292,-2.0026788000000164,-0.4260679466666591
9.493176666666626,-1.9994873000000168,-0.6271337233333257
9.895308499999958,-1.996295800000017,-0.8281994999999925
9.895308499999958,-1.996295800000017,-0.8281994999999925
10.31658899999996,-1.9548060333333506,-0.4707492333333258
10.73786949999996,-1.913316266666684,-0.1132989666666591
11.15914999999996,-1.8718265000000176,0.2441513000000076
11.15914999999996,-1.8718265000000176,0.2441513000000076
11.71128299999996,-1.9994873333333507,0.8345825333333411
12.263415999999964,-2.1271481666666836,1.4250137666666742
12.815548999999967,-2.254809000000017,2.0154450000000073
12.815548999999967,-2.2548090000000176,2.0154450000000073
11.5900053333333,-1.7218251333333512,2.1909786000000078
10.364461666666633,-1.1888412666666845,2.366512200000008
9.138917999999967,-0.6558574000000181,2.542045800000008
9.138917999999967,-0.6558574000000181,2.542045800000008
8.025077333333302,-0.9239450666666849,2.8707723333333415
6.9112366666666345,-1.1920327333333514,3.1994988666666746
5.797395999999967,-1.460120400000018,3.5282254000000077
5.797395999999967,-1.460120400000018,3.5282254000000077
6.5059136666666335,-1.7154420000000181,3.690992933333341
7.214431333333302,-1.9707636000000184,3.8537604666666745
7.92294899999997,-2.2260852000000186,4.016528000000008
7.92294899999997,-2.226085200000019,4.016528000000008
9.4101973333333,-1.9356569000000192,4.294190333333341
10.897445666666632,-1.645228600000019,4.571852666666675
12.384693999999962,-1.3548003000000186,4.849515000000007
12.384693999999962,-1.3548003000000186,4.849515000000007
13.1729993333333,-1.7250166333333519,4.993133333333341
13.961304666666635,-2.095232966666685,5.136751666666675
14.74960999999997,-2.4654493000000186,5.2803700000000084
14.74960999999997,-2.465449300000019,5.280370000000009
14.969824999999972,-2.7558776333333523,4.913345166666676
15.190039999999973,-3.046305966666686,4.546320333333343
15.410254999999973,-3.3367343000000194,4.17929550000001
15.31131766666664,-3.0846042000000193,3.470778033333343
15.212380333333307,-2.8324741000000198,2.762260566666676
15.113442999999974,-2.5803440000000197,2.0537431000000095
15.11344299999997,-2.5803440000000197,2.0537431000000095
15.11344299999997,-2.5803440000000197,2.0537431000000095
14.867696333333305,-2.9090706000000197,1.6324624866666761
14.621949666666637,-3.23779720000002,1.2111818733333426
14.37620299999997,-3.56652380000002,0.7899012600000092
12.186819999999969,-3.3335428666666864,0.7994758066666758
9.997436999999968,-3.1005619333333527,0.8090503533333425
7.8080539999999665,-2.867581000000019,0.8186249000000091
7.8080539999999665,-2.867581000000019,0.8186249000000091
7.377198666666634,-2.6026848000000196,0.6111760933333424
6.946343333333302,-2.3377886000000196,0.40372728666667584
6.515487999999969,-2.07289240000002,0.19627848000000914
6.515487999999969,-2.07289240000002,0.19627848000000914
6.908044999999969,-1.9228909333333533,0.08776680000000914
7.3006019999999685,-1.7728894666666861,-0.020744879999990862
7.693158999999967,-1.6228880000000192,-0.12925655999999086
7.693158999999966,-1.6228880000000192,-0.12925655999999086
8.26763266666663,-1.527142400000019,-0.10372439999999088
8.842106333333298,-1.4313968000000188,-0.07819223999999088
9.416579999999966,-1.3356512000000187,-0.05266007999999089
9.416579999999966,-1.3356512000000187,-0.05266007999999089
9.442111999999968,-1.4218222666666855,-0.09414984333332421
9.467643999999968,-1.507993333333352,-0.13563960666665756
9.493175999999968,-1.5941644000000184,-0.17712936999999088
9.49317599999997,-1.5941644000000181,-0.17712936999999088
9.991053333333305,-1.677143900000018,-0.40372729999999085
10.48893066666664,-1.7601234000000179,-0.6303252299999909
10.986807999999975,-1.8431029000000176,-0.856923159999991
10.986807999999977,-1.8431029000000176,-0.856923159999991
11.175107666666642,-2.2228937666666844,-0.4707492166666576
11.363407333333308,-2.6026846333333507,-0.08457527333332426
11.551706999999974,-2.9824755000000174,0.30159867000000906
11.551706999999974,-2.9824755000000174,0.30159867000000906
12.391076999999974,-2.985667066666684,0.700538680000009
13.230446999999975,-2.9888586333333507,1.0994786900000089
14.069816999999974,-2.9920502000000173,1.4984187000000089
14.069816999999974,-2.9920502000000173,1.4984187000000089
12.260224999999975,-2.3728952666666845,1.5048017666666753
10.450632999999975,-1.7537403333333514,1.5111848333333417
8.641040999999975,-1.134585400000018,1.5175679000000082
8.641040999999975,-1.1345854000000182,1.5175679000000082
7.58145633333331,-1.1282023666666847,1.9005502666666747
6.521871666666644,-1.1218193333333515,2.283532633333342
5.462286999999978,-1.1154363000000183,2.666515000000009
5.462286999999978,-1.1154363000000183,2.666515000000009
5.969738666666644,-1.4409713666666848,2.404810400000008
6.477190333333311,-1.7665064333333513,2.143105800000008
6.984641999999979,-2.092041500000018,1.8814012000000073
6.984641999999979,-2.092041500000018,1.8814012000000073
6.984641999999979,-2.092041500000018,1.8814012000000073
6.984641999999979,-2.092041500000018,1.8814012000000073
6.984641999999979,-2.092041500000018,1.8814012000000073
9.636795333333312,-1.9516146000000176,2.912262200000008
12.288948666666647,-1.8111877000000174,3.943123200000008
14.94110199999998,-1.6707608000000171,4.973984200000008
14.94110199999998,-1.6707608000000171,4.973984200000008
14.612375333333313,-1.5686321666666838,4.533554366666675
14.283648666666645,-1.4665035333333503,4.093124533333342
13.954921999999977,-1.3643749000000167,3.652694700000009
13.954921999999977,-1.3643749000000167,3.652694700000009
14.21024333333331,-2.3218309333333504,3.0941787000000094
14.465564666666642,-3.2792869666666835,2.53566270000001
14.720885999999973,-4.236743000000017,1.97714670000001
14.720885999999973,-4.236743000000016,1.97714670000001
14.787907999999973,-4.326105666666682,1.6452286133333434
14.854929999999973,-4.415468333333348,1.3133105266666767
14.92195199999997,-4.5048310000000145,0.9813924400000101
14.92195199999997,-4.5048310000000145,0.9813924400000101
13.571938999999972,-3.9782301000000153,1.0579889266666769
12.221925999999973,-3.4516292000000157,1.1345854133333435
10.871912999999973,-2.9250283000000166,1.2111819000000101
10.871912999999973,-2.9250283000000166,1.2111819000000104
9.560198333333306,-2.5260882666666835,1.0675634866666772
8.248483666666639,-2.12714823333335,0.923945073333344
6.936768999999972,-1.7282082000000167,0.7803266600000107
7.006982466666639,-1.7218251333333499,0.3111732066666774
7.077195933333307,-1.7154420666666832,-0.15798024666665586
7.147409399999975,-1.7090590000000165,-0.6271336999999891
7.147409399999975,-1.7090590000000165,-0.6271336999999891
7.891033599999974,-1.7058675000000167,-0.46117465333332247
8.634657799999973,-1.702676000000017,-0.2952156066666558
9.378281999999972,-1.6994845000000172,-0.12925655999998917
9.378281999999972,-1.6994845000000172,-0.12925655999998917
9.438920999999974,-1.7505488333333503,-0.04627703666665583
9.499559999999974,-1.8016131666666837,0.036702486666677504
9.560198999999974,-1.852677500000017,0.11968201000001084
9.560198999999972,-1.852677500000017,0.11968201000001084
9.70700866666664,-1.8079962333333501,-0.2154275933333225
9.853818333333306,-1.7633149666666832,-0.5505371966666558
10.000627999999974,-1.7186337000000165,-0.8856467999999892
10.000627999999976,-1.7186337000000165,-0.8856467999999892
10.383610333333309,-1.9611892333333498,-0.8473485766666559
10.766592666666641,-2.203744766666683,-0.8090503533333225
11.149574999999976,-2.4463003000000167,-0.7707521299999892
11.149574999999976,-2.4463003000000163,-0.7707521299999892
11.928305999999976,-2.848431766666683,0.06542614666667745
12.707036999999977,-3.25056323333335,0.9016044233333441
13.485767999999977,-3.652694700000017,1.7377827000000108
13.485767999999977,-3.652694700000017,1.7377827000000103
12.461289999999977,-2.9441772666666837,1.5845897333333436
11.436811999999977,-2.235659833333351,1.431396766666677
10.412333999999978,-1.5271424000000178,1.2782038000000102
10.412333999999978,-1.5271424000000178,1.27820380000001
8.944234866666642,-1.2622462333333513,1.8814011000000102
7.476135733333308,-0.9973500666666849,2.48459840000001
6.008036599999976,-0.7324539000000184,3.0877957000000102
6.008036599999976,-0.7324539000000184,3.0877957000000102
6.154846499999976,-0.8633062000000183,2.7814098000000107
6.301656399999975,-0.9941585000000183,2.4750239000000103
6.448466299999975,-1.125010800000018,2.1686380000000107
6.448466299999975,-1.125010800000018,2.1686380000000107
7.661244199999975,-1.5558660666666846,2.5005560666666775
8.874022099999975,-1.9867213333333513,2.8324741333333443
10.086799999999975,-2.417576600000018,3.164392200000011
10.086799999999977,-2.417576600000018,3.164392200000011
11.155958999999976,-2.723962500000018,3.5601408000000117
12.225117999999975,-3.0303484000000176,3.9558894000000113
13.294276999999974,-3.3367343000000176,4.351638000000011
13.294276999999974,-3.3367343000000176,4.351638000000011
14.414500333333308,-3.1484346333333506,4.587810466666677
15.534723666666642,-2.960134966666684,4.823982933333343
16.654946999999975,-2.771835300000017,5.060155400000009
16.65494699999997,-2.771835300000017,5.060155400000009
16.121963333333305,-2.455874766666684,4.37078700000001
15.588979666666638,-2.1399142333333514,3.68141860000001
15.055995999999972,-1.8239537000000183,2.9920502000000098
15.055995999999972,-1.8239537000000183,2.9920502000000098
15.445361333333308,-2.3026817333333516,2.1941701333333428
15.834726666666642,-2.7814097666666844,1.3962900666666762
16.224091999999978,-3.260137800000018,0.5984100000000097
14.679396666666642,-3.3909901000000175,0.6143676166666764
13.134701333333311,-3.521842400000017,0.630325233333343
11.59000599999998,-3.652694700000017,0.6462828500000097
11.59000599999998,-3.652694700000017,0.6462828500000097
11.59000599999998,-3.652694700000017,0.6462828500000097
10.067650666666644,-3.205881900000017,0.5537287566666764
8.545295333333309,-2.759069100000017,0.4611746633333431
7.022939999999974,-2.312256300000017,0.3686205700000098
6.866555599999976,-2.1877870333333505,0.12287352333334313
6.7101711999999765,-2.063317766666684,-0.12287352333332352
6.553786799999977,-1.9388485000000177,-0.3686205699999902
6.553786799999977,-1.9388485000000177,-0.3686205699999902
6.987833533333311,-1.718633600000018,-0.4037272899999902
7.421880266666644,-1.498418700000018,-0.43883400999999017
7.855926999999977,-1.278203800000018,-0.4739407299999902
7.855926999999977,-1.278203800000018,-0.4739407299999902
8.411251333333311,-1.3962900333333514,-0.5856439533333234
8.966575666666644,-1.5143762666666847,-0.6973471766666569
9.52189999999998,-1.632462500000018,-0.8090503999999902
9.52189999999998,-1.632462500000018,-0.8090503999999902
9.362323999999978,-1.8750180000000183,-0.7133047999999902
9.202747999999977,-2.117573500000018,-0.6175591999999903
9.043171999999975,-2.360129000000018,-0.5218135999999904
9.043171999999975,-2.360129000000018,-0.5218135999999906
9.841051999999976,-2.3856612000000177,-0.4005358166666572
10.638931999999977,-2.4111934000000175,-0.2792580333333239
11.43681199999998,-2.436725600000017,-0.15798024999999058
11.43681199999998,-2.4367256000000164,-0.15798024999999058
11.759155666666649,-2.663323566666683,0.3047902000000094
12.081499333333317,-2.88992153333335,0.7675606500000094
12.403842999999986,-3.1165195000000168,1.2303311000000094
12.403842999999986,-3.1165195000000168,1.2303311000000094
12.362353333333319,-2.9505604333333495,1.5973558666666763
12.320863666666652,-2.7846013666666827,1.9643806333333431
12.279373999999983,-2.618642300000016,2.3314054000000097
12.279373999999981,-2.618642300000016,2.33140540000001
10.453824433333313,-1.709059052000016,2.5675779333333435
8.628274866666647,-0.7994758040000162,2.8037504666666773
6.802725299999981,0.11010744399998378,3.0399230000000106
6.802725299999981,0.11010744399998378,3.0399230000000106
6.876130199999981,-0.25053433733334957,2.6122593000000105
6.949535099999981,-0.611176118666683,2.1845956000000104
7.022939999999981,-0.9718179000000163,1.7569319000000103
7.022939999999981,-0.9718179000000163,1.7569319000000103
7.859118333333314,-1.8686350666666829,2.293107266666677
8.695296666666648,-2.7654522333333493,2.829282633333344
9.53147499999998,-3.662269400000016,3.365458000000011
9.53147499999998,-3.662269400000016,3.365458000000011
10.434675166666649,-3.295244600000016,3.9080163333333444
11.337875333333315,-2.9282198000000164,4.450574666666678
12.241075499999981,-2.561195000000016,4.993133000000011
12.241075499999981,-2.561195000000016,4.993133000000011
13.067678999999982,-1.9579976666666827,4.814408000000011
13.894282499999981,-1.3548003333333494,4.635683000000011
14.72088599999998,-0.7516030000000161,4.456958000000011
14.72088599999998,-0.7516030000000159,4.456958000000011
15.07833666666665,-1.3420342666666825,3.805887833333344
15.435787333333316,-1.932465533333349,3.154817666666677
15.793237999999983,-2.5228968000000154,2.50374750000001
16.106006666666648,-3.3814157000000162,1.8016130866666764
16.418775333333315,-4.239934600000017,1.099478673333343
16.73154399999998,-5.0984535000000175,0.3973442600000099
16.73154399999998,-5.098453500000018,0.3973442600000099
16.73154399999998,-5.098453500000018,0.3973442600000099
15.234721166666647,-4.626108466666685,0.4101103400000099
13.737898333333314,-4.153763433333352,0.4228764200000099
12.241075499999981,-3.6814184000000183,0.4356425000000099
10.638932333333315,-3.097370266666685,0.4707492133333433
9.036789166666649,-2.5133221333333515,0.5058559266666767
7.434645999999982,-1.929274000000018,0.54096264000001
