accx,accy,accz
1.4792696,1.3165021,8.124015
1.622888,1.10107445,8.741574
1.6707608,1.0292652333333334,8.947427
1.7665064,0.8856468,9.359133
1.7665064,0.8856468,9.359133
1.7665064,0.8856468,9.359133
1.9739551999999998,0.7037301666666665,10.271907666666666
2.1814039999999997,0.5218135333333332,11.184682333333333
2.3888527999999996,0.33989689999999984,12.097456999999999
2.558003399999999,0.4228764333333332,12.317671666666667
2.727153999999999,0.5058559666666664,12.537886333333335
2.8963045999999992,0.5888354999999997,12.758101000000003
2.8963045999999992,0.5888354999999996,12.758101000000005
2.4686408666666657,0.738836933333333,11.982561666666674
2.0409771333333318,0.8888383666666663,11.207022333333342
1.6133133999999985,1.0388397999999996,10.431483000000009
1.6133133999999985,1.0388397999999996,10.431483000000009
1.5271423666666653,1.0994786666666663,10.172970000000008
1.4409713333333318,1.1601175333333327,9.914457000000008
1.3548002999999984,1.220756399999999,9.655944000000007
1.3548002999999984,1.2207563999999989,9.655944000000007
1.412247666666665,1.2877783333333324,9.633603500000008
1.4696950333333316,1.3548002666666659,9.61126300000001
1.5271423999999982,1.4218221999999994,9.588922500000011
1.5271423999999982,1.4218221999999994,9.588922500000011
1.5430999999999984,1.4026730999999992,9.48041100000001
1.5590575999999985,1.3835239999999993,9.37189950000001
1.5750151999999986,1.3643748999999994,9.263388000000008
1.5750151999999986,1.3643748999999996,9.263388000000008
1.536716933333332,1.4282052999999995,9.308069000000009
1.4984186666666652,1.4920356999999995,9.352750000000007
1.4601203999999985,1.5558660999999994,9.397431000000006
1.4601203999999985,1.5558660999999994,9.397431000000006
1.447354333333332,1.4505459333333326,9.438920666666675
1.4345882666666654,1.345225766666666,9.480410333333344
1.4218221999999987,1.2399055999999993,9.521900000000011
1.4090561333333318,1.3165020666666658,9.515517000000012
1.3962900666666653,1.3930985333333323,9.509134000000012
1.3835239999999986,1.4696949999999989,9.502751000000012
1.3835239999999989,1.4696949999999989,9.502751000000014
1.3356511999999992,1.5111847999999988,9.454878333333346
1.2877783999999992,1.552674599999999,9.407005666666679
1.239905599999999,1.5941643999999993,9.35913300000001
1.239905599999999,1.5941643999999993,9.359133000000009
1.259054699999999,1.6420371666666658,9.276153333333342
1.278203799999999,1.6899099333333325,9.193173666666675
1.2973528999999988,1.7377826999999992,9.110194000000009
1.2973528999999988,1.7377826999999992,9.110194000000009
1.313310499999999,1.7282081333333323,9.068704333333343
1.329268099999999,1.7186335666666654,9.027214666666678
1.3452256999999992,1.7090589999999988,8.985725000000011
1.3452256999999992,1.7090589999999988,8.985725000000011
1.3452256999999992,1.7090589999999988,8.985725000000011
1.4313967666666656,1.6994844666666653,9.036789333333346
1.517567833333332,1.6899099333333318,9.08785366666668
1.6037388999999986,1.6803353999999986,9.138918000000013
1.6643777666666653,1.6548032333333318,9.151684333333346
1.7250166333333319,1.6292710666666652,9.16445066666668
1.7856554999999987,1.6037388999999986,9.177217000000015
1.7856554999999987,1.6037388999999986,9.177217000000015
1.7856554999999987,1.6037388999999986,9.177217000000015
1.9037417666666654,1.5686321666666654,9.212323500000016
2.0218280333333323,1.5335254333333321,9.247430000000016
2.1399142999999987,1.498418699999999,9.282536500000015
2.1399142999999987,1.498418699999999,9.282536500000015
2.3250224666666655,1.5239508666666657,9.161258666666683
2.5101306333333318,1.5494830333333323,9.03998083333335
2.6952387999999985,1.575015199999999,8.918703000000017
2.8452402666666647,1.6452286333333321,8.867639000000018
2.9952417333333314,1.7154420666666654,8.816575000000016
3.1452431999999977,1.7856554999999987,8.765511000000016
3.1452431999999977,1.7856554999999987,8.765511000000014
3.1452431999999977,1.7856554999999987,8.765511000000014
3.247371799999998,1.6931013999999986,8.886788333333348
3.3495003999999984,1.6005472999999986,9.008065666666683
3.4516289999999987,1.5079931999999985,9.129343000000016
3.4516289999999987,1.5079931999999985,9.129343000000018
3.5090763999999983,1.5813981999999986,9.097428000000017
3.5665237999999984,1.6548031999999988,9.065513000000017
3.623971199999998,1.728208199999999,9.033598000000017
3.623971199999998,1.728208199999999,9.033598000000017
3.5537577333333314,1.7154420999999986,8.909128666666684
3.4835442666666654,1.7026759999999983,8.784659333333352
3.413330799999999,1.689909899999998,8.66019000000002
3.333542866666665,1.7313996666666647,8.53252900000002
3.2537549333333318,1.7728894333333318,8.404868000000022
3.173966999999999,1.8143791999999987,8.277207000000024
3.173966999999999,1.8143791999999987,8.277207000000024
3.2665209999999987,1.7154420999999986,8.455932333333356
3.3590749999999985,1.6165049999999983,8.634657666666689
3.4516289999999983,1.517567899999998,8.813383000000021
3.4516289999999983,1.517567899999998,8.813383000000021
3.576098333333332,1.450545966666665,8.902745500000021
3.700567666666666,1.3835240333333318,8.992108000000021
3.8250369999999996,1.3165020999999986,9.081470500000021
3.8250369999999996,1.3165020999999986,9.081470500000021
3.6686524666666656,1.3867155333333319,8.928277666666686
3.5122679333333315,1.4569289666666652,8.77508483333335
3.3558833999999975,1.5271423999999982,8.621892000000015
3.3558833999999975,1.5271423999999982,8.621892000000013
3.304819066666664,1.5079932666666649,8.497422666666681
3.2537547333333308,1.4888441333333315,8.372953333333347
3.2026903999999976,1.4696949999999982,8.248484000000015
3.2026903999999976,1.4696949999999982,8.248484000000017
3.266520833333331,1.578206666666665,8.341038000000019
3.3303512666666646,1.6867183333333318,8.43359200000002
3.3941816999999985,1.7952299999999985,8.526146000000024
3.3941816999999985,1.7952299999999985,8.526146000000024
3.489927266666665,1.619696433333332,8.663381333333358
3.5856728333333314,1.444162866666665,8.800616666666693
3.681418399999998,1.2686292999999982,8.937852000000026
3.681418399999998,1.2686292999999982,8.937852000000026
3.7388657666666645,1.2462886333333316,8.905937000000026
3.796313133333331,1.223947966666665,8.874022000000027
3.8537604999999977,1.2016072999999985,8.842107000000025
3.8537604999999977,1.2016072999999985,8.842107000000027
3.7707809999999977,1.1952242666666653,8.807000333333361
3.6878014999999977,1.188841233333332,8.771893666666694
3.604821999999998,1.1824581999999986,8.736787000000028
3.604821999999998,1.1824581999999986,8.736787000000028
3.5824813333333307,1.1282023333333318,8.81338333333336
3.5601406666666637,1.073946466666665,8.889979666666692
3.5377999999999967,1.0196905999999981,8.966576000000025
3.5569491666666635,1.0164990999999983,9.027215000000023
3.5760983333333294,1.0133075999999985,9.087854000000023
3.5952474999999957,1.0101160999999987,9.148493000000022
3.5952474999999957,1.0101160999999987,9.148493000000022
3.5952474999999957,1.0101160999999987,9.148493000000022
3.5378001333333287,0.9941584999999987,9.14210966666669
3.480352766666661,0.9782008999999986,9.135726333333357
3.422905399999994,0.9622432999999985,9.129343000000025
3.413330833333328,0.9782008999999986,9.16125833333336
3.4037562666666616,0.9941584999999987,9.193173666666693
3.3941816999999954,1.0101160999999987,9.225089000000027
3.3941816999999954,1.0101160999999987,9.225089000000029
3.3431173666666623,0.9622432999999987,9.196365333333363
3.2920530333333287,0.9143704999999986,9.167641666666695
3.2409886999999955,0.8664976999999986,9.138918000000029
3.2409886999999955,0.8664976999999986,9.138918000000029
3.2409886999999955,0.8664976999999986,9.138918000000029
3.161200666666662,0.7962842666666652,9.135726333333363
3.081412633333328,0.7260708333333318,9.132534666666697
3.001624599999994,0.6558573999999985,9.12934300000003
2.9633263999999944,0.6335167666666651,9.11338550000003
2.9250281999999945,0.6111761333333319,9.097428000000031
2.8867299999999947,0.5888354999999986,9.081470500000032
2.8867299999999947,0.5888354999999986,9.081470500000032
2.848431766666661,0.5664948666666652,9.07189600000003
2.8101335333333277,0.5441542333333317,9.062321500000031
2.771835299999994,0.5218135999999983,9.052747000000032
2.771835299999994,0.5218135999999982,9.052747000000034
2.720770966666661,0.5090474999999982,9.0878536666667
2.6697066333333273,0.49628139999999815,9.122960333333365
2.618642299999994,0.4835152999999981,9.158067000000033
2.618642299999994,0.48351529999999804,9.158067000000031
2.6314083666666614,0.4643661833333314,9.276153333333363
2.644174433333328,0.4452170666666648,9.394239666666698
2.6569404999999944,0.42606794999999814,9.51232600000003
2.6569404999999944,0.42606794999999814,9.51232600000003
2.67289806666666,0.44521706666666483,9.531475000000029
2.688855633333327,0.46436618333333146,9.550624000000028
2.704813199999993,0.4835152999999981,9.569773000000026
2.704813199999993,0.48351529999999804,9.569773000000026
2.6697065666666595,0.5186220333333313,9.48041033333336
2.6345999333333254,0.5537287666666647,9.391047666666694
2.599493299999992,0.588835499999998,9.301685000000028
2.5994932999999913,0.588835499999998,9.301685000000028
2.548428966666658,0.6175591666666645,9.196365000000029
2.497364633333325,0.6462828333333311,9.09104500000003
2.4463002999999914,0.6750064999999977,8.98572500000003
2.506939099999992,0.6494743333333312,9.014448666666697
2.567577899999992,0.6239421666666645,9.043172333333365
2.628216699999992,0.5984099999999978,9.07189600000003
2.628216699999992,0.5984099999999978,9.07189600000003
2.637791299999992,0.5856439199999978,9.05274700000003
2.647365899999992,0.5728778399999978,9.033598000000028
2.6569404999999917,0.5601117599999977,9.014449000000027
2.6569404999999917,0.5601117599999977,9.014449000000027
2.599493133333325,0.6398997733333313,8.93785233333336
2.5420457666666585,0.7196877866666647,8.861255666666693
2.484598399999992,0.7994757999999981,8.784659000000026
2.4845983999999923,0.7994757999999981,8.784659000000026
2.478215366666659,0.895221399999998,8.561252666666695
2.471832333333326,0.9909669999999978,8.337846333333362
2.4654492999999924,1.0867125999999978,8.11444000000003
2.4654492999999924,1.0867125999999976,8.11444000000003
2.663323533333326,0.8888383499999977,8.149546666666696
2.8611977666666597,0.6909640999999977,8.184653333333364
3.0590719999999934,0.4930898499999978,8.21976000000003
3.0590719999999934,0.4930898499999978,8.21976000000003
3.231414133333326,0.6558573799999977,8.181461666666694
3.4037562666666594,0.8186249099999977,8.14316333333336
3.5760983999999922,0.9813924399999977,8.104865000000025
3.5760983999999922,0.9813924399999977,8.104865000000023
3.770781166666659,1.4186307266666642,8.095290333333358
3.9654639333333264,1.8558690133333304,8.085715666666692
4.160146699999994,2.293107299999997,8.076141000000026
4.160146699999993,2.293107299999997,8.076141000000028
4.405893633333326,2.111190599999997,8.25486633333336
4.651640566666659,1.9292738999999972,8.433591666666693
4.897387499999992,1.7473571999999973,8.612317000000026
4.897387499999991,1.7473571999999973,8.612317000000026
5.069729666666658,1.830336733333331,8.663381666666693
5.242071833333324,1.9133162666666645,8.714446333333358
5.414413999999991,1.996295799999998,8.765511000000025
5.414413999999991,1.996295799999998,8.765511000000023
5.503776666666657,1.9101247666666648,8.78465966666669
5.5931393333333235,1.8239537333333313,8.803808333333356
5.68250199999999,1.737782699999998,8.822957000000022
5.68250199999999,1.737782699999998,8.822957000000022
5.676118833333324,1.6643777666666644,8.730403000000019
5.669735666666658,1.5909728333333308,8.637849000000017
5.663352499999992,1.517567899999997,8.545295000000015
5.663352499999992,1.517567899999997,8.545295000000014
5.6186713333333245,1.6324625999999973,8.459124000000013
5.573990166666657,1.7473572999999973,8.372953000000013
5.529308999999988,1.8622519999999974,8.286782000000013
5.529308999999988,1.8622519999999974,8.286782000000011
5.522925833333322,1.7760809666666642,8.200611000000011
5.516542666666656,1.6899099333333307,8.11444000000001
5.5101594999999906,1.6037388999999973,8.02826900000001
5.455903666666657,1.6228879999999977,7.926140333333343
5.401647833333324,1.6420370999999978,7.824011666666675
5.3473919999999895,1.661186199999998,7.721883000000008
5.3473919999999895,1.661186199999998,7.721883000000008
5.3473919999999895,1.661186199999998,7.721883000000008
5.33462599999999,1.6196964333333312,7.594222200000007
5.321859999999991,1.5782066666666645,7.466561400000006
5.309093999999992,1.5367168999999976,7.338900600000005
5.175050133333326,1.4601203999999977,7.064429733333339
5.041006266666659,1.3835238999999977,6.789958866666673
4.906962399999992,1.3069273999999977,6.5154880000000075
4.906962399999991,1.3069273999999977,6.5154880000000075
4.865472599999991,1.1250107799999978,6.205910666666672
4.82398279999999,0.9430941599999979,5.896333333333338
4.782492999999989,0.7611775399999979,5.586756000000004
4.782492999999989,0.7611775399999979,5.586756000000004
5.069729666666657,0.4228764066666646,5.535691666666671
5.356966333333324,0.08457527333333122,5.484627333333338
5.644202999999991,-0.25372586000000213,5.433563000000006
5.644202999999991,-0.25372586000000213,5.433563000000006
5.644202999999991,-0.35266297333333546,5.312285333333339
5.644202999999991,-0.45160008666666873,5.191007666666672
5.644202999999991,-0.5505372000000021,5.069730000000006
5.644202999999991,-0.5505372000000021,5.069730000000006
6.308039333333325,-0.5377711333333354,5.3633496666666725
6.971875666666659,-0.5250050666666688,5.65696933333334
7.635711999999992,-0.5122390000000022,5.950589000000007
7.635711999999994,-0.5122390000000022,5.950589000000007
8.356995333333328,-0.32393930666666887,5.851652000000006
9.078278666666662,-0.13563961333333555,5.752715000000006
9.799561999999996,0.05266007999999778,5.653778000000005
9.799561999999996,0.05266007999999778,5.653778000000005
10.188927666666663,-0.1771293666666689,5.395264900000005
10.578293333333328,-0.4069188133333356,5.136751800000006
10.967658999999992,-0.6367082600000024,4.878238700000007
10.967658999999992,-0.6367082600000024,4.878238700000007
11.299576999999994,-0.7101132266666692,4.779301466666673
11.631494999999996,-0.7835181933333359,4.680364233333339
11.963412999999997,-0.8569231600000027,4.581427000000006
11.963412999999997,-0.8569231600000027,4.581427000000007
11.832560666666666,-0.43564250000000265,4.539937333333341
11.701708333333334,-0.01436184000000266,4.498447666666675
11.570856000000001,0.40691881999999735,4.456958000000009
11.570856000000001,0.40691881999999735,4.45695800000001
11.366598666666668,0.2984071349999973,4.214402400000011
11.162341333333336,0.18989544999999733,3.971846800000011
10.958084000000001,0.08138376499999733,3.729291200000011
10.958084000000001,0.08138376499999733,3.729291200000011
10.62297466666667,0.05425584333333067,3.5314169666666775
10.287865333333336,0.027127921666664,3.333542733333344
9.952756000000003,0.0,3.13566850000001
9.952756000000003,0.0,3.13566850000001
9.952756000000003,0.0,3.13566850000001
9.649561333333336,0.03989400333333067,3.11971090000001
9.346366666666668,0.07978800666666401,3.10375330000001
9.043172,0.11968200999999734,3.08779570000001
9.304876666666667,0.004787283333330672,2.829282566666676
9.566581333333334,-0.110107443333336,2.5707694333333424
9.828286,-0.22500217000000267,2.3122563000000094
9.828286,-0.22500217000000267,2.31225630000001
9.828286,-0.22500217000000267,2.31225630000001
9.949564000000002,-0.4930898800000027,2.4750238666666764
10.070842,-0.7611775900000026,2.637791433333343
10.192120000000001,-1.0292653000000025,2.80055900000001
10.19212,-1.0292653000000025,2.80055900000001
9.218706233333332,-0.9367112000000023,2.71757940000001
8.245292466666665,-0.8441571000000022,2.6345998000000104
7.2718786999999985,-0.7516030000000021,2.5516202000000106
6.617617133333332,-0.48351530666666886,2.609067633333343
5.963355566666665,-0.2154276133333355,2.6665150666666766
5.309093999999998,0.052660079999997854,2.72396250000001
5.309093999999997,0.052660079999997854,2.723962500000011
5.309093999999997,0.052660079999997854,2.723962500000011
5.254837999999998,0.16117176666666452,2.647366000000011
5.200581999999998,0.26968345333333116,2.570769500000011
5.1463259999999975,0.3781951399999978,2.4941730000000115
5.1463259999999975,0.3781951399999978,2.494173000000012
6.043143233333332,0.3686205766666644,2.500556000000012
6.9399604666666646,0.3590460133333311,2.506939000000012
7.836777699999996,0.34947144999999774,2.5133220000000125
7.836777699999996,0.34947144999999774,2.5133220000000125
9.793179466666663,-0.0718092133333356,2.6984302333333456
11.749581233333329,-0.4930898766666689,2.883538466666679
13.705982999999994,-0.9143705400000023,3.0686467000000124
13.827260999999995,-1.249480126666669,2.631408433333345
13.948538999999997,-1.5845897133333355,2.1941701666666784
14.069816999999999,-1.919699300000002,1.7569319000000114
14.069816999999999,-1.919699300000002,1.7569319000000114
13.776196999999998,-1.8590604333333356,1.9292740000000113
13.482577,-1.7984215666666692,2.1016161000000113
13.188957,-1.7377827000000028,2.2739582000000116
13.188957,-1.7377827000000028,2.273958200000012
11.960221666666664,-1.7792724666666693,2.2707666666666784
10.731486333333331,-1.8207622333333358,2.2675751333333447
9.502750999999998,-1.8622520000000022,2.2643836000000115
9.502751,-1.8622520000000022,2.264383600000011
8.079333,-1.5335254333333355,2.455874800000011
6.655914999999999,-1.2047988666666687,2.6473660000000105
5.232496999999999,-0.876072300000002,2.8388572000000103
5.232496999999998,-0.876072300000002,2.8388572000000103
4.741002999999997,-0.7133047666666686,2.749494633333344
4.249508999999997,-0.5505372333333353,2.660132066666678
3.7580149999999963,-0.387769700000002,2.5707695000000115
3.7580149999999963,-0.387769700000002,2.570769500000012
4.619725433333329,-0.47713226666666864,2.660132066666679
5.481435866666662,-0.5664948333333354,2.749494633333345
6.343146299999996,-0.655857400000002,2.8388572000000116
7.351666866666662,-0.8345825333333354,2.688855733333345
8.360187433333328,-1.013307666666669,2.5388542666666787
9.368707999999993,-1.1920328000000022,2.3888528000000124
9.368707999999993,-1.1920328000000022,2.3888528000000124
9.368707999999993,-1.1920328000000022,2.3888528000000124
12.330438333333328,-1.7313997000000025,2.730345466666679
15.292168666666663,-2.270766600000003,3.0718381333333458
18.253899,-2.8101335000000027,3.4133308000000127
17.459210666666664,-2.7654522666666694,4.109082200000013
16.664522333333327,-2.7207710333333366,4.804833600000013
15.869833999999992,-2.6760898000000033,5.5005850000000125
15.869833999999992,-2.6760898000000033,5.5005850000000125
13.581513999999993,-1.9611892333333365,4.932494433333346
11.293193999999994,-1.2462886666666697,4.36440386666668
9.004873999999996,-0.5313881000000028,3.7963133000000133
9.004873999999996,-0.5313881000000028,3.7963133000000133
7.2208142333333285,-0.5345796133333361,3.534608600000013
5.4367544666666605,-0.5377711266666695,3.2729039000000135
3.652694699999994,-0.5409626400000028,3.011199200000014
3.652694699999994,-0.5409626400000028,3.011199200000014
3.4835441999999937,-0.6622404066666695,2.663323533333347
3.3143936999999934,-0.7835181733333362,2.31544786666668
3.1452431999999937,-0.9047959400000029,1.9675722000000129
3.1452431999999937,-0.9047959400000029,1.9675722000000129
4.010145133333327,-0.7324538600000028,2.213319200000013
4.87504706666666,-0.5601117800000028,2.4590662000000125
5.739948999999993,-0.3877697000000029,2.704813200000013
7.144217999999994,-0.4516001000000029,2.8292824666666796
8.548486999999994,-0.5154305000000029,2.953751733333346
9.952755999999995,-0.579260900000003,3.078221000000012
9.952755999999995,-0.5792609000000031,3.078221000000012
9.952755999999995,-0.5792609000000031,3.078221000000012
11.468727666666664,-1.0835211000000031,2.7239623333333456
12.984699333333332,-1.587781300000003,2.369703666666679
14.500670999999999,-2.0920415000000028,2.0154450000000126
15.860259,-2.902687566666669,2.4399171666666795
17.219847,-3.713333633333335,2.864389333333346
18.579435000000004,-4.523979700000002,3.2888615000000123
18.579435000000004,-4.523979700000003,3.2888615000000123
16.667714333333336,-4.112273633333336,2.905879100000013
14.755993666666669,-3.700567566666669,2.5228967000000133
12.844273000000001,-3.2888615000000025,2.139914300000014
12.844273000000001,-3.2888615000000025,2.1399143000000143
10.772976333333334,-2.8580062666666692,2.4750239333333477
8.701679666666669,-2.4271510333333364,2.8101335666666807
6.630383000000002,-1.9962958000000033,3.1452432000000137
6.630383000000002,-1.9962958000000033,3.1452432000000137
4.9612180000000015,-1.4792695566666698,2.7973674666666803
3.2920530000000023,-0.9622433133333366,2.4494917333333475
1.622888000000002,-0.44521707000000327,2.101616000000014
1.622888000000002,-0.44521707000000327,2.101616000000014
1.9292739333333355,-0.41649338000000324,1.9516145666666809
2.235659866666669,-0.3877696900000032,1.8016131333333476
2.5420458000000026,-0.35904600000000325,1.6516117000000143
2.5420458000000026,-0.35904600000000325,1.6516117000000143
4.121848200000002,-0.63670826666667,1.9994874000000145
5.701650600000002,-0.9143705333333368,2.3473631000000146
7.281453000000002,-1.1920328000000036,2.6952388000000145
7.281453000000002,-1.1920328000000038,2.6952388000000145
8.909128333333335,-1.5494830666666701,2.8133250666666814
10.53680366666667,-1.9069333333333371,2.931411333333348
12.164479000000002,-2.264383600000004,3.0494976000000147
13.41236366666667,-2.790984400000004,3.4260969000000148
14.660248333333335,-3.317585200000004,3.8026962000000144
15.908133000000001,-3.844186000000004,4.1792955000000145
15.908133000000001,-3.844186000000004,4.1792955000000145
15.50280966666667,-3.7005676000000043,4.654832000000014
15.097486333333336,-3.556949200000004,5.130368500000013
14.692163000000003,-3.413330800000004,5.6059050000000115
14.692163000000003,-3.413330800000004,5.6059050000000115
13.058104833333337,-2.6697066000000036,5.280370000000012
11.42404666666667,-1.9260824000000032,4.9548350000000125
9.789988500000002,-1.1824582000000032,4.629300000000012
9.789988500000002,-1.182458200000003,4.629300000000012
7.900608333333335,-1.0037330833333362,4.0867415333333454
6.011228166666669,-0.8250079666666696,3.5441830666666783
4.121848000000003,-0.646282850000003,3.0016246000000115
4.121848000000003,-0.646282850000003,3.0016246000000115
4.121848000000003,-0.646282850000003,3.0016246000000115
3.212264866666669,-0.5058559566666697,2.4271510000000114
2.3026817333333356,-0.36542906333333636,1.8526774000000117
1.3930986000000025,-0.22500217000000303,1.2782038000000118
3.218648066666669,-0.33351384666666967,1.8367198000000116
5.044197533333336,-0.44202552333333633,2.395235800000011
6.869747000000001,-0.550537200000003,2.953751800000011
6.869747000000001,-0.550537200000003,2.953751800000011
6.869747000000001,-0.550537200000003,2.953751800000011
8.462315333333335,-0.7803266666666696,2.6952386666666777
10.054883666666667,-1.0101161333333364,2.436725533333344
11.647452000000001,-1.239905600000003,2.178212400000011
11.647452000000001,-1.239905600000003,2.1782124000000116
13.533641000000001,-1.830336800000003,1.9548060000000114
15.41983,-2.420768000000003,1.7313996000000114
17.306019,-3.011199200000003,1.5079932000000114
17.216655999999997,-3.308010633333337,1.6739522333333448
17.127292999999998,-3.6048220666666695,1.8399112666666781
17.037929999999996,-3.9016335000000026,2.0058703000000118
17.037929999999992,-3.9016335000000026,2.0058703000000118
17.037929999999992,-3.9016335000000026,2.0058703000000118
15.068761999999992,-3.521842566666669,2.1048074333333453
13.09959399999999,-3.142051633333336,2.203744566666679
11.130425999999991,-2.7622607000000023,2.302681700000013
11.130425999999991,-2.7622607000000023,2.302681700000013
8.749552133333324,-2.2931072333333358,2.3856612000000124
6.368678266666659,-1.8239537666666685,2.4686407000000123
3.9878043999999924,-1.3548003000000015,2.5516202000000123
3.9878043999999924,-1.3548003000000015,2.5516202000000123
3.3558834333333256,-0.9430942033333348,1.957997510000012
2.7239624666666593,-0.5313881066666681,1.3643748200000119
2.092041499999993,-0.11968201000000149,0.770752130000012
3.0973703333333256,-0.44840860666666815,1.038839820000012
4.1026991666666595,-0.7771352033333349,1.306927510000012
5.108027999999993,-1.1058618000000016,1.575015200000012
5.108027999999993,-1.1058618000000016,1.575015200000012
5.899524999999993,-1.5367170333333349,1.7665064666666785
6.691021999999992,-1.9675722666666686,1.9579977333333451
7.482518999999992,-2.398427500000002,2.149489000000012
7.482518999999992,-2.398427500000002,2.149489000000012
9.199556999999993,-2.9760926666666694,2.392044433333345
10.916594999999992,-3.553757833333336,2.634599866666678
12.633632999999994,-4.131423000000003,2.877155300000011
12.633632999999994,-4.131423000000004,2.877155300000011
14.069816666666659,-4.137806000000004,3.812270866666678
15.506000333333324,-4.1441890000000035,4.747386433333345
16.942183999999987,-4.150572000000003,5.682502000000011
16.942183999999987,-4.150572000000003,5.682502000000011
16.37090199999999,-3.5665238333333362,5.679310333333345
15.799619999999996,-2.9824756666666694,5.676118666666679
15.228337999999994,-2.3984275000000026,5.672927000000013
15.228337999999994,-2.3984275000000026,5.672927000000013
12.86342166666666,-1.7186336666666697,5.273987000000013
10.498505333333327,-1.0388398333333364,4.875047000000014
8.133588999999994,-0.35904600000000303,4.476107000000014
6.12612286666666,-0.32074776666666965,3.608013500000014
4.118656733333327,-0.28244953333333633,2.7399200000000143
2.1111905999999934,-0.24415130000000299,1.871826500000015
2.1111905999999934,-0.24415130000000299,1.871826500000015
2.1111905999999934,-0.24415130000000299,1.871826500000015
2.4080019333333262,-0.35266298333333634,1.7665063666666816
2.7048132666666596,-0.4611746666666697,1.6611862333333482
3.0016245999999924,-0.569686350000003,1.5558661000000151
5.012282399999992,-0.8441571000000031,1.8207623000000153
7.022940199999991,-1.118627850000003,2.0856585000000156
9.03359799999999,-1.393098600000003,2.3505547000000155
9.03359799999999,-1.393098600000003,2.350554700000016
10.144246999999991,-1.511184800000003,2.1239567333333493
11.25489599999999,-1.6292710000000028,1.8973587666666827
12.36554499999999,-1.7473572000000026,1.670760800000016
12.36554499999999,-1.7473572000000026,1.670760800000016
13.000657666666656,-2.2931071333333364,1.6037388666666825
13.635770333333324,-2.8388570666666695,1.5367169333333492
14.27088299999999,-3.3846070000000026,1.4696950000000157
14.27088299999999,-3.3846070000000026,1.4696950000000157
14.89961199999999,-3.3463088000000027,2.0409771000000156
15.528340999999992,-3.308010600000003,2.612259200000016
16.157069999999994,-3.269712400000003,3.183541300000016
16.157069999999994,-3.269712400000003,3.183541300000016
14.70492866666666,-2.9026876000000033,3.0271568666666826
13.252787333333325,-2.535662800000003,2.870772433333349
11.800645999999992,-2.168638000000003,2.7143880000000156
11.800645999999992,-2.168638000000003,2.7143880000000156
9.400622799999992,-1.9579976333333367,2.842048800000016
7.000599599999991,-1.7473572666666701,2.969709600000016
4.600576399999992,-1.5367169000000036,3.0973704000000155
4.600576399999992,-1.5367169000000036,3.0973704000000155
4.600576399999992,-1.5367169000000036,3.0973704000000155
3.703759199999992,-1.0771380166666702,2.9250282666666827
2.8069419999999923,-0.6175591333333368,2.75268613333335
1.9101247999999922,-0.15798025000000346,2.5803440000000166
2.7909843333333253,-0.34308842000000345,2.277149600000017
3.671843866666659,-0.5281965900000034,1.9739552000000167
4.552703399999992,-0.7133047600000034,1.6707608000000167
4.552703399999992,-0.7133047600000036,1.6707608000000167
6.0080365999999925,-1.3579918400000037,1.80799613333335
7.463369799999993,-2.0026789200000037,1.9452314666666837
8.918702999999994,-2.647366000000004,2.082466800000017
8.918702999999994,-2.647366000000004,2.082466800000017
10.233609333333327,-3.0622636000000045,2.318639333333351
11.54851566666666,-3.4771612000000043,2.554811866666684
12.863421999999993,-3.892058800000004,2.7909844000000175
12.863421999999993,-3.892058800000003,2.7909844000000184
14.088965333333325,-4.230360000000004,3.266520833333351
15.31450866666666,-4.568661200000004,3.7420572666666843
16.540051999999992,-4.906962400000004,4.217593700000017
16.540051999999992,-4.906962400000004,4.217593700000017
15.502808333333325,-3.9526978333333367,4.699513300000016
14.465564666666657,-2.9984332666666695,5.181432900000017
13.428320999999988,-2.044168700000003,5.663352500000016
13.428320999999988,-2.0441687000000024,5.663352500000016
11.698517333333323,-1.7760810000000025,5.273987000000017
9.968713666666657,-1.5079933000000025,4.884621500000017
8.238909999999992,-1.2399056000000026,4.495256000000016
8.238909999999992,-1.2399056000000026,4.4952560000000155
6.282507933333324,-1.2750123000000027,3.745248833333349
4.326105866666658,-1.3101190000000027,2.995241666666683
2.3697037999999906,-1.3452257000000027,2.245234500000016
2.149488866666657,-0.9526687366666694,1.967572233333349
1.9292739333333238,-0.560111773333336,1.6899099666666821
1.7090589999999903,-0.1675548100000026,1.4122477000000153
1.7090589999999903,-0.1675548100000026,1.4122477000000153
3.7005675666666575,-0.3430884166666693,1.8941672000000154
5.692076133333324,-0.518622023333336,2.3760867000000157
7.683584699999991,-0.6941556300000027,2.8580062000000157
7.683584699999991,-0.6941556300000027,2.8580062000000157
10.121905966666658,-1.0994786866666695,2.3282139000000157
12.560227233333327,-1.504801743333336,1.798421600000016
14.998548499999993,-1.9101248000000028,1.2686293000000157
14.998548499999993,-1.9101248000000028,1.2686293000000157
15.531532333333326,-2.7303454333333366,0.8218164666666823
16.06451616666666,-3.55056606666667,0.3750036333333489
16.597499999999993,-4.370786700000003,-0.07180919999998436
16.597499999999993,-4.370786700000003,-0.07180919999998436
16.425158333333325,-4.575044033333335,0.9079875333333489
16.25281666666666,-4.779301366666669,1.8877842666666822
16.080474999999996,-4.983558700000002,2.8675810000000155
16.080475,-4.983558700000002,2.8675810000000155
13.508109666666668,-3.9303570333333355,2.743111666666682
10.935744333333334,-2.877155366666669,2.6186423333333493
8.363379000000002,-1.823953700000003,2.494173000000016
6.541020866666668,-1.6899098666666699,2.251617466666682
4.718662733333335,-1.5558660333333367,2.0090619333333493
2.896304600000001,-1.4218222000000036,1.766506400000016
2.896304600000001,-1.4218222000000036,1.766506400000016
2.896304600000001,-1.4218222000000036,1.766506400000016
2.915453666666668,-1.32288506666667,1.5239508666666826
2.934602733333334,-1.2239479333333367,1.2813953333333492
2.9537518000000005,-1.1250108000000034,1.0388398000000159
3.7643978666666675,-1.43139676666667,1.153734533333349
4.575043933333334,-1.7377827333333367,1.2686292666666823
5.385690000000001,-2.0441687000000033,1.3835240000000155
5.385690000000001,-2.0441687000000037,1.3835240000000155
6.856980666666669,-2.1526804000000035,1.421822233333349
8.328271333333335,-2.2611921000000037,1.4601204666666827
9.799562,-2.3697038000000035,1.4984187000000162
9.799562,-2.3697038000000035,1.4984187000000162
11.928306333333332,-2.6441745333333366,1.9005502000000163
14.057050666666667,-2.9186452666666702,2.3026817000000164
16.185795000000002,-3.1931160000000034,2.7048132000000162
16.185795000000002,-3.1931160000000034,2.7048132000000162
16.163454333333338,-2.4399172200000034,3.550566000000016
16.141113666666673,-1.6867184400000035,4.3963188000000155
16.118773000000008,-0.9335196600000035,5.242071600000016
16.118773000000008,-0.9335196600000035,5.242071600000016
15.084720333333342,-0.7771351633333369,4.897387500000016
14.050667666666675,-0.6207506666666701,4.552703400000016
13.016615000000007,-0.46436617000000346,4.208019300000017
13.016615000000007,-0.46436617000000346,4.208019300000017
10.562336000000007,-0.7930927466666701,3.76758953333335
8.108057000000008,-1.1218193233333367,3.3271597666666834
5.653778000000007,-1.4505459000000034,2.8867300000000164
5.653778000000007,-1.4505459000000034,2.8867300000000164
5.191007566666674,-1.533525433333337,2.4494917333333497
4.728237133333342,-1.6165049666666704,2.012253466666683
4.265466700000009,-1.699484500000004,1.5750152000000162
4.712279466666676,-1.9867213333333371,1.8590604666666826
5.159092233333342,-2.27395816666667,2.143105733333349
5.605905000000008,-2.561195000000003,2.4271510000000154
5.605905000000008,-2.561195000000003,2.427151000000015
5.605905000000008,-2.561195000000003,2.427151000000015
7.169750000000008,-2.5133222000000033,2.605876166666682
8.733595000000008,-2.465449400000004,2.7846013333333484
10.297440000000009,-2.417576600000004,2.9633265000000146
12.71022900000001,-2.7526862000000034,2.9824756666666814
15.123018000000009,-3.0877958000000034,3.0016248333333473
17.53580700000001,-3.422905400000003,3.0207740000000136
17.535807000000005,-3.422905400000003,3.0207740000000136
16.204943333333336,-2.806942000000003,2.3920444666666802
14.874079666666669,-2.190978600000003,1.7633149333333469
13.543216000000001,-1.5750152000000028,1.1345854000000133
13.543216000000001,-1.5750152000000028,1.1345854000000133
13.214489333333333,-2.3314054666666695,1.61969646666668
12.885762666666665,-3.0877957333333366,2.104807533333347
12.557035999999997,-3.8441860000000037,2.5899186000000136
12.557035999999997,-3.8441860000000037,2.589918600000013
11.162341666666663,-3.2792870000000036,2.9633264333333464
9.767647333333331,-2.714388000000003,3.3367342666666797
8.372952999999997,-2.1494890000000026,3.710142100000013
8.372952999999995,-2.149489000000002,3.710142100000013
7.974012999999995,-1.4250138660000022,3.3590749000000133
7.5750729999999935,-0.7005387320000022,3.0080077000000127
7.176132999999993,0.02393640199999784,2.656940500000012
7.04528066666666,-0.46755769866666874,2.190978566666679
6.914428333333326,-0.9590517993333353,1.7250166333333457
6.783575999999993,-1.4505459000000023,1.2590547000000123
6.783575999999993,-1.4505459000000023,1.2590547000000123
7.13145176666666,-1.8207622666666687,1.016499166666679
7.4793275333333264,-2.1909786333333354,0.7739436333333455
7.827203299999994,-2.561195000000002,0.5313881000000121
7.827203299999994,-2.561195000000002,0.5313881000000121
8.462315866666659,-2.6984303333333357,0.5186220166666788
9.097428433333326,-2.835665666666669,0.5058559333333456
9.73254099999999,-2.9729010000000025,0.4930898500000122
9.73254099999999,-2.9729010000000025,0.4930898500000122
10.137863999999992,-2.8739639333333358,0.25691736666667886
10.54318699999999,-2.775026866666669,0.020744883333345548
10.948509999999992,-2.676089800000002,-0.2154275999999878
10.948509999999992,-2.676089800000002,-0.2154275999999878
11.96660466666666,-3.0080078666666688,0.24095980000001224
12.984699333333326,-3.3399259333333355,0.6973472000000123
14.002793999999994,-3.6718440000000023,1.1537346000000124
14.002793999999994,-3.6718440000000023,1.1537346000000124
12.898528333333326,-3.1069449000000025,1.2941614666666792
11.79426266666666,-2.5420458000000026,1.4345883333333458
10.689996999999991,-1.977146700000003,1.5750152000000126
10.689996999999991,-1.977146700000003,1.5750152000000126
9.639986866666659,-1.8399113666666693,1.9069333000000126
8.589976733333325,-1.7026760333333357,2.2388514000000126
7.5399665999999925,-1.5654407000000023,2.5707695000000124
7.5399665999999925,-1.5654407000000023,2.5707695000000124
6.856981066666659,-1.590972866666669,2.423959533333346
6.173995533333326,-1.6165050333333355,2.277149566666679
5.491009999999992,-1.6420372000000023,2.1303396000000125
5.896333266666659,-2.005870466666669,2.3186393333333455
6.301656533333325,-2.3697037333333357,2.506939066666679
6.706979799999992,-2.733537000000002,2.6952388000000114
6.706979799999992,-2.733537000000002,2.6952388000000114
7.441029199999991,-3.0111992666666687,2.768643766666678
8.17507859999999,-3.2888615333333355,2.842048733333345
8.909127999999988,-3.5665238000000024,2.9154537000000116
8.909127999999988,-3.5665238000000024,2.9154537000000116
10.434674666666657,-3.614396566666669,3.158009233333345
11.960221333333324,-3.662269333333336,3.400564766666678
13.485767999999993,-3.7101421000000023,3.6431203000000107
13.485767999999993,-3.7101421000000023,3.6431203000000107
13.843218333333326,-3.461203566666669,3.659077866666678
14.200668666666658,-3.212265033333335,3.675035433333345
14.55811899999999,-2.9633265000000013,3.6909930000000117
14.55811899999999,-2.963326500000001,3.6909930000000117
13.303851666666658,-2.803750466666667,3.094178733333345
12.049584333333327,-2.6441744333333337,2.497364466666678
10.795316999999995,-2.4845984000000003,1.900550200000011
10.795316999999997,-2.4845984000000008,1.900550200000011
11.669793333333331,-2.6952387666666673,2.2452343666666774
12.544269666666665,-2.905879133333334,2.5899185333333445
13.418745999999999,-3.1165195000000003,2.9346027000000117
13.418745999999999,-3.1165195000000003,2.934602700000012
11.807028333333333,-2.5005561000000003,2.6952387333333454
10.195310666666666,-1.8845927000000005,2.4558747666666787
8.583593,-1.2686293000000004,2.216510800000012
8.098482000000002,-1.236714066666667,2.139914300000012
7.613371000000003,-1.2047988333333335,2.063317800000012
7.1282600000000045,-1.1728836000000002,1.9867213000000117
7.1282600000000045,-1.1728836,1.9867213000000117
7.1282600000000045,-1.1728836,1.9867213000000117
6.748469333333337,-1.0579889,1.8718266000000117
6.36867866666667,-0.9430941999999999,1.7569319000000114
5.988888000000003,-0.8281994999999999,1.6420372000000114
6.397402433333336,-1.0037330999999998,1.3452258000000115
6.805916866666668,-1.1792666999999997,1.0484144000000117
7.214431300000001,-1.3548002999999997,0.7516030000000118
7.214431300000001,-1.3548002999999997,0.7516030000000118
7.731457866666669,-1.4856525999999997,0.47394074500001176
8.248484433333337,-1.6165048999999996,0.19627849000001177
8.765511000000005,-1.7473571999999995,-0.08138376499998823
8.765511000000005,-1.7473571999999995,-0.08138376499998823
10.291057333333338,-2.5580032999999993,0.3494714566666784
11.816603666666671,-3.3686493999999993,0.780326678333345
13.342150000000004,-4.179295499999999,1.2111819000000115
13.342150000000004,-4.1792955,1.2111819000000115
13.134701333333334,-3.994187400000001,1.5430999666666783
12.927252666666666,-3.8090793000000005,1.875018033333345
12.719803999999996,-3.6239712,2.206936100000012
12.719803999999996,-3.6239712,2.206936100000012
11.430429666666663,-3.285670033333334,2.6122592000000115
10.14105533333333,-2.9473688666666678,3.0175823000000115
8.851680999999997,-2.609067700000001,3.4229054000000114
8.851681,-2.609067700000001,3.4229054000000114
7.565498333333333,-2.385661300000001,3.279287000000011
6.279315666666666,-2.162254900000001,3.1356686000000114
4.993133,-1.9388485000000013,2.9920502000000115
4.543128766666666,-2.1590634333333343,2.816516566666678
4.0931245333333335,-2.3792783666666675,2.6409829333333446
3.6431202999999996,-2.599493300000001,2.4654493000000115
3.6431202999999996,-2.599493300000001,2.4654493000000115
4.073975533333333,-2.6218338666666674,2.4175765333333445
4.504830766666667,-2.644174433333334,2.369703766666678
4.9356860000000005,-2.666515000000001,2.3218310000000115
4.9356860000000005,-2.6665150000000004,2.3218310000000115
6.713362666666668,-2.768643666666667,2.318639433333345
8.491039333333335,-2.8707723333333335,2.3154478666666782
10.268716000000001,-2.9729010000000002,2.3122563000000116
10.268716000000003,-2.9729010000000002,2.3122563000000116
12.946401666666668,-3.5537576666666673,1.9260824000000116
15.624087333333335,-4.134614333333334,1.5399085000000117
18.301773,-4.715471000000001,1.1537346000000117
18.301773,-4.715471000000001,1.1537346000000117
17.197507,-4.421851133333334,0.9941585666666786
16.093241000000003,-4.128231266666667,0.8345825333333451
14.988975000000002,-3.8346114,0.6750065000000115
14.988975000000002,-3.8346114,0.6750065000000115
13.185766000000001,-3.0622635666666667,0.742028433333345
11.382557,-2.289915733333333,0.8090503666666784
9.579348,-1.5175678999999995,0.8760723000000118
9.579348,-1.5175678999999995,0.8760723000000118
7.680393399999999,-1.118627853333333,0.8313910000000119
5.781438799999999,-0.7196878066666664,0.7867097000000118
3.882484199999999,-0.32074776,0.7420284000000118
3.975038366666666,-0.3909612066666667,0.9973500000000116
4.0675925333333325,-0.46117465333333335,1.2526716000000115
4.1601466999999985,-0.5313880999999999,1.5079932000000118
4.160146699999998,-0.5313880999999999,1.5079932000000118
4.766535466666665,-0.7452199333333333,1.2111818433333452
5.372924233333332,-0.9590517666666666,0.9143704866666788
5.979312999999998,-1.1728835999999998,0.6175591300000122
5.979312999999998,-1.1728836,0.6175591300000121
8.491039333333331,-1.6133133999999998,0.6622404200000119
11.002765666666667,-2.0537431999999995,0.706921710000012
13.514492000000002,-2.4941729999999995,0.7516030000000121
13.514491999999999,-2.4941729999999995,0.7516030000000121
15.521957999999998,-3.059072133333333,1.2845869000000123
17.529423999999995,-3.623971266666666,1.8175708000000126
19.536889999999996,-4.188870399999999,2.350554700000013
19.536889999999996,-4.188870399999999,2.350554700000013
17.484742666666662,-2.854814913333332,2.503747633333346
15.43259533333333,-1.5207594266666649,2.656940566666679
13.380447999999996,-0.18670393999999835,2.810133500000012
13.380447999999996,-0.18670393999999835,2.810133500000012
11.768730333333329,-0.45798315999999833,3.3526920000000118
10.15701266666666,-0.7292623799999983,3.8952505000000115
8.54529499999999,-1.0005415999999983,4.437809000000011
8.54529499999999,-1.0005415999999983,4.437809000000011
6.48676459999999,-1.1345854333333314,3.825037100000012
4.428234199999991,-1.2686292666666645,3.212265200000012
2.3697037999999906,-1.4026730999999977,2.5994933000000127
2.7239624999999905,-1.3484172666666645,2.455874866666679
3.078221199999991,-1.2941614333333313,2.312256433333346
3.4324798999999913,-1.239905599999998,2.168638000000013
3.4324798999999913,-1.2399055999999977,2.1686380000000134
3.4324798999999913,-1.2399055999999977,2.1686380000000134
4.846323366666657,-1.2590546999999976,2.2899157333333466
6.260166833333323,-1.2782037999999976,2.41119346666668
7.674010299999989,-1.2973528999999975,2.5324712000000136
9.094236699999989,-1.552674533333331,2.0728923333333467
10.514463099999988,-1.8079961666666644,1.6133134666666802
11.934689499999989,-2.063317799999998,1.1537346000000135
11.934689499999989,-2.063317799999998,1.1537346000000135
14.165562333333321,-2.7303454333333312,0.8186249633333468
16.396435166666656,-3.3973730666666646,0.4835153266666801
18.62730799999999,-4.0644006999999975,0.14840569000001338
18.62730799999999,-4.0644006999999975,0.14840569000001338
16.788992333333322,-3.9590806333333313,0.09734136666668007
14.950676666666654,-3.853760566666665,0.04627704333334673
13.112360999999987,-3.7484404999999987,-0.0047872799999866085
13.112360999999987,-3.7484404999999987,-0.004787279999986608
11.516600666666655,-3.4484375999999983,0.44202554666668
9.920840333333322,-3.148434699999998,0.8888383733333466
8.325079999999987,-2.848431799999998,1.3356512000000134
8.325079999999987,-2.848431799999998,1.3356512000000134
6.422934099999988,-2.5197051999999975,1.4760781000000132
4.520788199999989,-2.1909785999999976,1.6165050000000134
2.618642299999989,-1.8622519999999974,1.7569319000000136
2.618642299999989,-1.8622519999999974,1.7569319000000139
3.001624733333323,-1.8909756666666642,1.8271453333333472
3.3846071666666564,-1.919699333333331,1.8973587666666802
3.7675895999999898,-1.9484229999999976,1.9675722000000135
3.767589599999989,-1.9484229999999976,1.9675722000000135
4.741003199999988,-1.9165078333333312,2.0792753666666806
5.714416799999988,-1.8845926666666646,2.190978533333347
6.687830399999988,-1.852677499999998,2.3026817000000137
9.796371266666652,-2.219702266666665,2.0569347000000135
12.904912133333319,-2.586727033333332,1.8111877000000132
16.013452999999984,-2.9537517999999987,1.565440700000013
16.013452999999984,-2.953751799999999,1.565440700000013
16.109198666666654,-3.330351199999999,2.18140406666668
16.20494433333332,-3.706950599999999,2.797367433333347
16.30068999999999,-4.083549999999999,3.4133308000000135
16.30068999999999,-4.083549999999999,3.4133308000000135
14.858122666666654,-3.3877985999999987,3.4356714000000133
13.415555333333321,-2.692047199999999,3.458012000000013
11.972987999999987,-1.9962957999999988,3.4803526000000127
11.972987999999987,-1.9962957999999986,3.4803526000000127
9.866584666666654,-1.4696949999999986,3.276095400000013
7.760181333333321,-0.9430941999999987,3.0718382000000126
5.6537779999999875,-0.4164933999999986,2.8675810000000124
5.6537779999999875,-0.4164933999999986,2.8675810000000124
4.7920675666666535,-0.6781980333333321,2.478215500000013
3.9303571333333203,-0.9399026666666653,2.088850000000013
3.0686466999999866,-1.2016072999999985,1.6994845000000136
3.0686466999999866,-1.2016072999999985,1.6994845000000136
4.010145033333321,-1.412247633333332,1.6196964666666804
4.951643366666653,-1.6228879666666653,1.5399084333333473
5.893141699999987,-1.8335282999999987,1.460120400000014
7.364432466666654,-1.8271452666666654,1.5048017333333474
8.83572323333332,-1.8207622333333322,1.5494830666666806
10.307013999999988,-1.8143791999999987,1.5941644000000137
10.307013999999988,-1.8143791999999987,1.5941644000000135
10.307013999999988,-1.8143791999999987,1.5941644000000135
11.535749333333321,-2.120765133333332,1.6133135000000134
12.764484666666654,-2.427151066666665,1.6324626000000133
13.993219999999987,-2.7335369999999988,1.6516117000000132
14.347478666666653,-2.8548147999999993,1.5622491333333464
14.70173733333332,-2.9760925999999994,1.4728865666666795
15.055995999999986,-3.0973703999999995,1.3835240000000126
15.055995999999986,-3.0973704000000004,1.3835240000000126
14.305988999999984,-2.9729011,1.6037389000000128
13.555981999999984,-2.8484318,1.823953800000013
12.805974999999982,-2.7239625000000003,2.044168700000013
12.80597499999998,-2.7239625000000003,2.044168700000013
11.245321666666646,-2.666515066666667,2.2197023000000136
9.684668333333311,-2.6090676333333334,2.3952359000000136
8.124014999999977,-2.5516202,2.5707695000000137
8.124014999999977,-2.5516202,2.570769500000014
6.183570566666643,-2.2452342999999995,2.4845984333333475
4.24312613333331,-1.9388483999999995,2.3984273666666813
2.3026816999999773,-1.6324624999999997,2.3122563000000147
2.3026816999999773,-1.6324624999999997,2.312256300000015
3.3271597999999774,-1.6324624999999997,2.3409800333333486
4.351637899999978,-1.6324624999999997,2.369703766666682
5.3761159999999775,-1.6324624999999997,2.398427500000016
5.3761159999999775,-1.6324624999999997,2.398427500000016
6.45804133333331,-1.9005501999999996,2.162254966666682
7.539966666666643,-2.1686379,1.9260824333333488
8.621891999999976,-2.4367256,1.6899099000000153
8.621891999999976,-2.4367256,1.6899099000000153
10.31339733333331,-2.9122620999999995,1.6324625666666819
12.004902666666643,-3.3877986,1.5750152333333485
13.696407999999977,-3.8633351000000005,1.5175679000000148
13.176190666666644,-3.853760533333334,1.4856526666666818
12.655973333333312,-3.8441859666666667,1.4537374333333488
12.13575599999998,-3.8346114,1.4218222000000156
12.13575599999998,-3.8346114,1.4218222000000156
12.13575599999998,-3.8346114,1.4218222000000156
11.61553799999998,-3.5282255,2.0952329666666825
11.09531999999998,-3.2218396000000005,2.768643733333349
10.57510199999998,-2.9154537000000005,3.442054500000016
9.646369666666645,-2.430342600000001,3.2473717333333494
8.717637333333313,-1.945231500000001,3.052688966666683
7.788904999999978,-1.460120400000001,2.8580062000000166
7.788904999999978,-1.460120400000001,2.8580062000000166
7.109111199999977,-1.5207593333333342,2.7239623666666835
6.429317399999976,-1.5813982666666675,2.5899185333333503
5.749523599999975,-1.6420372000000008,2.455874700000017
5.749523599999975,-1.6420372000000008,2.455874700000017
6.742086399999976,-1.7377828000000006,2.5611949000000167
7.734649199999975,-1.8335284000000007,2.6665151000000162
8.727211999999975,-1.929274000000001,2.7718353000000158
8.727211999999973,-1.9292740000000013,2.7718353000000158
9.726157999999971,-1.8048047000000011,2.3441716000000157
10.725103999999972,-1.6803354000000013,1.9165079000000158
11.72404999999997,-1.5558661000000011,1.4888442000000157
11.72404999999997,-1.5558661000000011,1.4888442000000157
12.375119666666636,-1.954806066666668,1.2430971333333491
13.026189333333305,-2.3537460333333344,0.9973500666666825
13.677258999999971,-2.752686000000001,0.7516030000000159
12.924060666666639,-2.5899185333333343,0.6558573900000159
12.170862333333305,-2.4271510666666676,0.5601117800000159
11.417663999999974,-2.264383600000001,0.46436617000001595
11.417663999999974,-2.264383600000001,0.46436617000001607
9.770839333333306,-2.254809000000001,0.48032378000001613
8.124014666666639,-2.245234400000001,0.4962813900000162
6.477189999999972,-2.235659800000001,0.5122390000000162
6.477189999999972,-2.235659800000001,0.5122390000000162
6.330380099999971,-2.2069362000000012,0.7069217000000162
6.18357019999997,-2.1782126000000006,0.9016044000000162
6.036760299999969,-2.1494890000000004,1.0962871000000163
6.422934199999969,-2.0377857333333336,1.4696950000000164
6.80910809999997,-1.926082466666667,1.8431029000000165
7.19528199999997,-1.8143792000000003,2.2165108000000164
7.19528199999997,-1.8143792000000003,2.2165108000000164
7.19528199999997,-1.8143792000000003,2.2165108000000164
8.395293666666637,-1.8877841333333334,2.0441687000000166
9.595305333333304,-1.9611890666666663,1.871826600000017
10.79531699999997,-2.0345939999999993,1.6994845000000172
11.64106999999997,-2.5994930666666662,1.5909728000000172
12.486822999999973,-3.164392133333333,1.4824611000000172
13.332575999999975,-3.7292912,1.3739494000000174
13.332575999999975,-3.7292912,1.3739494000000174
12.81554966666664,-3.8250368,2.232468366666684
12.298523333333307,-3.9207824,3.0909873333333504
11.781496999999973,-4.016527999999999,3.949506300000017
11.781496999999973,-4.016527999999998,3.949506300000017
11.781496999999973,-4.016527999999998,3.949506300000017
10.412334766666639,-2.9058790333333313,3.665461000000017
9.043172533333305,-1.7952300666666643,3.381415700000017
7.674010299999971,-0.6845810999999976,3.097370400000017
7.160175533333304,-0.9079874999999976,2.9346028333333507
6.646340766666637,-1.1313938999999975,2.7718352666666846
6.132505999999971,-1.3548002999999975,2.609067700000018
6.132505999999971,-1.3548002999999975,2.609067700000018
6.815491333333305,-1.5909727999999976,2.688855733333351
7.498476666666638,-1.8271452999999978,2.7686437666666843
8.181461999999971,-2.063317799999998,2.8484318000000175
8.181461999999971,-2.063317799999998,2.8484318000000175
8.181461999999971,-2.063317799999998,2.8484318000000175
9.563390333333306,-1.865443533333331,2.3920444000000174
10.945318666666642,-1.6675692666666642,1.9356570000000175
12.327246999999977,-1.4696949999999973,1.4792696000000174
12.327246999999977,-1.4696949999999973,1.4792696000000174
12.426183999999976,-1.6165049333333308,0.9335196500000175
12.525120999999976,-1.7633148666666643,0.3877697000000175
12.624057999999975,-1.9101247999999977,-0.15798024999998259
12.474056333333309,-2.1431057666666646,-0.033510966666649246
12.324054666666642,-2.3760867333333313,0.09095831666668408
12.174052999999978,-2.6090676999999984,0.2154276000000174
12.174052999999978,-2.6090676999999984,0.2154276000000174
10.68361333333331,-2.3888527999999982,0.14840568033335075
9.193173666666643,-2.168637899999998,0.08138376066668408
7.7027339999999755,-1.9484229999999976,0.014361841000017417
7.7027339999999755,-1.9484229999999976,0.014361841000017417
7.530391866666643,-2.079275333333331,0.26968344733335076
7.35804973333331,-2.2101276666666645,0.525005053666684
7.185707599999977,-2.340979999999998,0.7803266600000174
7.185707599999977,-2.340979999999998,0.7803266600000174
7.185707599999977,-2.098424466666664,1.1218193400000172
7.185707599999977,-1.8558689333333307,1.4633120200000171
7.185707599999977,-1.6133133999999973,1.8048047000000171
7.185707599999977,-1.6133133999999973,1.8048047000000171
7.185707599999977,-1.6133133999999973,1.8048047000000171
8.676147399999977,-1.7601232999999974,1.4058646666666839
10.166587199999976,-1.9069331999999974,1.0069246333333506
11.657026999999976,-2.0537430999999975,0.6079846000000172
12.57937633333331,-2.720770833333331,0.9271366333333505
13.501725666666644,-3.3877985666666643,1.2462886666666837
14.424074999999979,-4.0548262999999976,1.565440700000017
14.424074999999979,-4.0548262999999976,1.565440700000017
13.43789533333331,-3.5026933666666644,2.382469800000017
12.451715666666644,-2.9505604333333313,3.1994989000000174
11.465535999999977,-2.398427499999998,4.016528000000018
11.465535999999977,-2.398427499999998,4.016528000000018
10.227226166666645,-1.3037360666666646,3.3590749000000173
8.988916333333313,-0.20904463333333143,2.701621800000017
7.7506064999999795,0.8856468000000018,2.044168700000017
7.7506064999999795,0.8856468000000018,2.0441687000000166
7.198473666666647,0.21223606666666853,1.92608243333335
6.646340833333313,-0.4611746666666648,1.8079961666666833
6.09420799999998,-1.1345853999999982,1.6899099000000166
6.094207999999978,-1.1345853999999982,1.6899099000000166
7.160175333333311,-1.348417266666665,2.1175736000000165
8.226142666666645,-1.5622491333333317,2.5452373000000166
9.292109999999978,-1.7760809999999987,2.9729010000000167
9.292109999999978,-1.776080999999999,2.9729010000000167
9.745305999999978,-1.7186336333333323,2.93779433333335
10.198501999999978,-1.6611862666666657,2.902687666666683
10.65169799999998,-1.603738899999999,2.867581000000016
10.65169799999998,-1.603738899999999,2.867581000000016
10.38999366666665,-1.6388455999999991,2.8643894000000163
10.128289333333317,-1.6739522999999992,2.8611978000000167
9.866584999999985,-1.7090589999999992,2.8580062000000166
9.959138999999984,-1.7601233333333326,2.554811800000017
10.051692999999984,-1.811187666666666,2.2516174000000166
10.144246999999984,-1.8622519999999991,1.9484230000000167
10.144246999999984,-1.8622519999999991,1.9484230000000167
12.640015999999983,-2.963326466666666,1.85586893333335
15.135784999999984,-4.064400933333332,1.7633148666666834
17.631553999999984,-5.1654754,1.6707608000000167
17.631553999999984,-5.1654754,1.6707608000000167
15.429404666666649,-4.619725399999999,2.194170100000017
13.227255333333316,-4.073975399999999,2.7175794000000173
11.025105999999981,-3.528225399999999,3.2409887000000173
11.025105999999981,-3.528225399999999,3.2409887000000173
10.431483333333317,-2.0856583333333325,3.253754766666684
9.83786066666665,-0.6430912666666657,3.2665208333333506
9.244237999999983,0.7994758000000011,3.279286900000017
9.244237999999985,0.7994758000000011,3.279286900000018
8.258058333333318,0.3079817000000011,2.9441773333333514
7.271878666666652,-0.1835123999999989,2.6090677666666844
6.285698999999986,-0.675006499999999,2.273958200000018
6.285698999999986,-0.675006499999999,2.273958200000018
5.963355466666652,-0.9399026666666658,2.021828100000018
5.641011933333318,-1.2047988333333326,1.7696980000000178
5.318668399999985,-1.469694999999999,1.5175679000000175
5.318668399999985,-1.469694999999999,1.5175679000000175
5.822928599999984,-1.827145266666666,1.6484202000000179
6.327188799999984,-2.184595533333333,1.779272500000018
6.831448999999984,-2.5420458,1.9101248000000182
6.831448999999984,-2.5420458,1.9101248000000182
8.874021833333318,-2.3665121999999994,1.4952272000000182
10.916594666666652,-2.1909785999999993,1.0803296000000182
12.959167499999985,-2.0154449999999993,0.6654320000000181
12.959167499999985,-2.0154449999999993,0.6654320000000181
14.376202333333318,-2.5803440333333327,0.7164963000000181
15.79323716666665,-3.145243066666666,0.7675606000000181
17.210271999999982,-3.7101421,0.8186249000000182
17.21027199999998,-3.7101421,0.8186249000000182
15.997494333333313,-2.790984333333333,0.7962842666666847
14.784716666666645,-1.871826566666666,0.7739436333333513
13.571938999999977,-0.9526687999999992,0.7516030000000179
11.280427666666645,-1.0228822333333325,1.4984187333333512
8.988916333333313,-1.0930956666666656,2.2452344666666844
6.697404999999979,-1.1633090999999989,2.9920502000000178
6.697404999999979,-1.1633090999999987,2.9920502000000178
6.697404999999979,-1.1633090999999987,2.9920502000000178
5.6218627333333115,-1.750548833333332,2.5931101333333513
4.546320466666644,-2.337788566666666,2.194170066666685
3.4707781999999763,-2.9250282999999992,1.7952300000000185
3.4707781999999763,-2.925028299999999,1.7952300000000185
4.026102699999976,-3.387798766666665,1.9133163333333518
4.581427199999976,-3.8505692333333315,2.031402666666685
5.136751699999976,-4.313339699999998,2.149489000000018
6.288890466666643,-4.721854133333331,2.0792755000000183
7.44102923333331,-5.130368566666664,2.0090620000000183
8.593167999999977,-5.538882999999996,1.9388485000000182
8.593167999999977,-5.538882999999996,1.9388485000000182
8.593167999999977,-5.538882999999996,1.9388485000000182
8.92827733333331,-5.28356133333333,2.092041500000018
9.263386666666646,-5.028239666666662,2.245234500000018
9.598495999999981,-4.772917999999995,2.3984275000000177
9.598495999999981,-4.772917999999994,2.3984275000000177
10.22084266666665,-4.370786599999994,2.3409800666666842
10.843189333333319,-3.9686551999999935,2.2835326333333508
11.465535999999986,-3.566523799999994,2.2260852000000173
12.014477666666652,-3.6750354666666607,2.216510700000017
12.56341933333332,-3.783547133333327,2.2069362000000172
13.112360999999986,-3.8920587999999934,2.1973617000000174
13.112360999999986,-3.8920587999999925,2.1973617000000174
13.112360999999986,-3.8920587999999925,2.1973617000000174
11.931498333333318,-3.6718438666666593,2.1271482333333505
10.750635666666652,-3.451628933333326,2.0569347666666835
9.569772999999984,-3.2314139999999925,1.9867213000000163
9.955946999999986,-2.8994959333333257,1.6867184000000164
10.342120999999986,-2.5675778666666593,1.3867155000000164
10.728294999999989,-2.2356597999999925,1.0867126000000165
10.728294999999989,-2.235659799999992,1.0867126000000165
10.536803666666655,-2.1718294333333255,1.0484143666666832
10.345312333333322,-2.107999066666659,1.0101161333333497
10.15382099999999,-2.0441686999999917,0.9718179000000161
10.153820999999992,-2.0441686999999917,0.9718179000000161
10.153820999999992,-2.0441686999999917,0.9718179000000161
9.11657699999999,-2.0058704666666585,0.6558574006666827
8.07933299999999,-1.9675722333333248,0.33989690133334943
7.042088999999989,-1.9292739999999913,0.02393640200001605
7.042088999999989,-1.9292739999999913,0.02393640200001605
6.419742666666655,-2.0441687333333243,0.1867039346666827
5.797396333333321,-2.1590634666666575,0.3494714673333494
5.175049999999987,-2.2739581999999907,0.5122390000000161
5.325051466666654,-2.0952330333333244,0.7069217000000161
5.475052933333321,-1.9165078666666575,0.9016044000000161
5.625054399999988,-1.7377826999999906,1.096287100000016
5.625054399999988,-1.7377826999999904,1.096287100000016
5.625054399999988,-1.7377826999999904,1.096287100000016
6.110165466666654,-1.8367197999999902,1.1441599333333492
6.59527653333332,-1.9356568999999901,1.1920327666666826
7.080387599999987,-2.03459399999999,1.2399056000000157
7.080387599999987,-2.03459399999999,1.2399056000000155
7.568690066666654,-2.206936066666657,1.2718208000000155
8.05699253333332,-2.3792781333333237,1.3037360000000155
8.545294999999987,-2.55162019999999,1.3356512000000154
8.81019133333332,-2.663323466666657,1.3930985333333485
9.075087666666652,-2.7750267333333234,1.4505458666666817
9.339983999999985,-2.88672999999999,1.507993200000015
9.339983999999985,-2.88672999999999,1.507993200000015
9.339983999999985,-2.88672999999999,1.507993200000015
11.341066999999983,-3.49311879999999,1.5048017000000151
13.342149999999982,-4.09950759999999,1.5016102000000153
15.343232999999982,-4.7058963999999905,1.4984187000000155
14.031518333333315,-4.594193166666657,2.2069362000000154
12.71980366666665,-4.482489933333324,2.915453700000015
11.408088999999984,-4.37078669999999,3.6239712000000153
11.408088999999984,-4.37078669999999,3.6239712000000153
10.565527333333318,-3.52503389999999,3.5760983333333485
9.72296566666665,-2.67928109999999,3.5282254666666817
8.88040399999998,-1.8335282999999898,3.4803526000000153
8.880403999999979,-1.8335282999999898,3.4803526000000153
7.779329766666646,-1.760123333333323,3.1580090666666822
6.678255533333314,-1.6867183666666563,2.835665533333349
5.577181299999981,-1.6133133999999896,2.513322000000016
5.577181299999981,-1.6133133999999896,2.513322000000016
5.902716466666647,-2.069700766666656,2.5707694000000156
6.228251633333315,-2.526088133333323,2.6282168000000152
6.553786799999982,-2.9824754999999903,2.6856642000000153
6.553786799999982,-2.9824754999999903,2.6856642000000153
8.159121199999982,-2.7909843333333235,2.366512200000015
9.76445559999998,-2.5994931666666568,2.0473602000000146
11.36978999999998,-2.4080019999999904,1.7282082000000145
11.36978999999998,-2.4080019999999904,1.7282082000000145
13.166615666666646,-2.5484288333333236,1.1441599993333478
14.963441333333314,-2.6888556666666568,0.5601117986666811
16.76026699999998,-2.8292824999999904,-0.023936401999985552
15.167698666666647,-2.8963044333333237,0.17393784866668113
13.575130333333314,-2.963326366666657,0.37181209933334775
11.982561999999982,-3.0303482999999907,0.5696863500000143
11.982561999999982,-3.0303482999999907,0.5696863500000143
10.425100333333317,-2.7463029999999904,0.789901266666681
8.86763866666665,-2.46225769999999,1.0101161833333476
7.310176999999984,-2.1782123999999903,1.2303311000000143
7.310176999999984,-2.1782123999999903,1.230331100000014
6.202719466666651,-2.0665092333333237,1.262246266666681
5.095261933333318,-1.954806066666657,1.2941614333333478
3.987804399999984,-1.8431028999999903,1.3260766000000146
3.987804399999984,-1.8431028999999903,1.3260766000000146
4.3931274333333175,-1.8079961666666573,1.4920356333333478
4.798450466666652,-1.772889433333324,1.6579946666666807
5.203773499999985,-1.7377826999999908,1.8239537000000139
5.203773499999986,-1.7377826999999908,1.8239537000000139
6.004845133333319,-1.980338233333324,1.913316300000014
6.805916766666652,-2.222893766666657,2.002678900000014
7.6069883999999846,-2.46544929999999,2.092041500000014
7.6069883999999846,-2.46544929999999,2.0920415000000134
9.53147493333332,-2.93460279999999,1.8814011333333471
11.455961466666652,-3.4037562999999906,1.6707607666666806
13.380447999999987,-3.872909799999991,1.460120400000014
13.380447999999987,-3.872909799999991,1.460120400000014
14.069816333333321,-4.396319066666657,2.133531133333347
14.759184666666656,-4.919728333333323,2.80694186666668
15.44855299999999,-5.443137599999989,3.4803526000000127
13.69321699999999,-4.31653099999999,3.521842400000013
11.93788099999999,-3.1899243999999896,3.5633322000000134
10.182544999999989,-2.0633177999999894,3.6048220000000133
10.18254499999999,-2.0633177999999894,3.6048220000000133
8.612317133333326,-1.6675692999999894,3.79631316666668
7.04208926666666,-1.271820799999989,3.987804333333347
5.4718613999999945,-0.876072299999989,4.179295500000014
5.4718613999999945,-0.876072299999989,4.179295500000014
5.4718613999999945,-0.876072299999989,4.179295500000014
4.776109933333328,-1.1569260999999889,3.2250310333333463
4.080358466666661,-1.4377798999999891,2.2707665666666794
3.384606999999995,-1.7186336999999892,1.3165021000000123
3.3846069999999955,-1.7186336999999892,1.3165021000000123
5.296327666666662,-2.066509366666656,2.4175764000000126
7.20804833333333,-2.414385033333323,3.5186507000000127
9.119768999999996,-2.76226069999999,4.619725000000012
11.025106333333332,-2.3760867666666563,3.7963130000000134
12.930443666666664,-1.9899128333333227,2.972901000000013
14.835780999999999,-1.603738899999989,2.149489000000013
14.835781000000003,-1.603738899999989,2.149489000000013
14.727269333333334,-2.264383566666656,1.5016103466666797
14.618757666666667,-2.925028233333323,0.8537316933333464
14.510246,-3.58567289999999,0.20585304000001306
14.510246,-3.58567289999999,0.20585304000001306
13.460236,-3.416522266666657,0.6845810933333464
12.410226,-3.2473716333333233,1.1633091466666796
11.360216,-3.0782209999999903,1.642037200000013
11.360216,-3.0782209999999908,1.642037200000013
9.62722053333333,-2.4494915999999907,1.7282082000000132
7.894225066666664,-1.820762199999991,1.8143792000000134
6.161229599999996,-1.1920327999999911,1.9005502000000136
6.161229599999996,-1.1920327999999913,1.9005502000000138
5.85803523333333,-1.4186306999999914,1.6420370666666806
5.554840866666663,-1.6452285999999912,1.3835239333333476
5.251646499999997,-1.871826499999991,1.125010800000014
5.251646499999997,-1.871826499999991,1.1250108000000143
5.092070333333331,-1.973955133333324,1.584589700000014
4.932494166666665,-2.0760837666666574,2.0441686000000137
4.772917999999998,-2.178212399999991,2.5037475000000136
6.391018666666664,-1.868634966666658,2.1750209666666804
8.009119333333329,-1.5590575333333245,1.846294433333347
9.627219999999996,-1.2494800999999913,1.5175679000000137
9.627219999999994,-1.2494800999999913,1.5175679000000137
9.627219999999994,-1.2494800999999913,1.5175679000000137
11.998519999999994,-2.025019533333324,1.3579918666666806
14.369819999999995,-2.800558966666658,1.1984158333333472
16.741119999999995,-3.576098399999991,1.038839800000014
15.244296666666662,-3.9271655999999915,2.2005531000000143
13.747473333333327,-4.278232799999992,3.362266400000014
12.250649999999993,-4.629299999999993,4.523979700000014
12.250649999999993,-4.629299999999993,4.523979700000014
10.06445866666666,-2.8835384666666593,4.070783866666681
7.878267333333326,-1.137776933333326,3.6175880333333477
5.692075999999993,0.6079846000000071,3.164392200000014
5.692075999999993,0.6079846000000071,3.164392200000014
5.203773533333326,0.2313852000000071,2.7335369666666804
4.715471066666659,-0.14521419999999288,2.302681733333347
4.227168599999992,-0.5218135999999929,1.8718265000000134
4.227168599999992,-0.5218135999999929,1.8718265000000134
5.254838066666658,-1.2686292999999933,2.22289376666668
6.282507533333326,-2.015444999999994,2.5739610333333465
7.310176999999992,-2.762260699999994,2.925028300000013
7.310176999999992,-2.762260699999994,2.925028300000013
9.107002666666657,-2.462257799999994,2.6090677666666795
10.903828333333324,-2.1622548999999935,2.293107233333346
12.700653999999991,-1.8622519999999934,1.9771467000000127
12.700653999999991,-1.8622519999999934,1.9771467000000122
14.133646666666658,-2.3856612999999935,1.3356511600000125
15.566639333333327,-2.909070599999994,0.6941556200000124
16.999631999999995,-3.432479899999994,0.05266008000001232
16.999631999999995,-3.432479899999994,0.05266008000001232
15.103869333333327,-3.3207767333333273,0.47394075333334557
13.208106666666657,-3.2090735666666603,0.8952214266666788
11.312343999999987,-3.0973703999999933,1.3165021000000123
10.035735666666652,-2.5899186666666596,1.3548003333333456
8.75912733333332,-2.0824669333333263,1.3930985666666789
7.482518999999986,-1.575015199999993,1.4313968000000121
7.482518999999986,-1.575015199999993,1.4313968000000121
7.482518999999986,-1.575015199999993,1.4313968000000121
6.247400666666652,-1.6931014666666597,1.319693566666679
5.012282333333318,-1.8111877333333266,1.2079903333333455
3.777163999999985,-1.9292739999999933,1.096287100000012
4.7090878666666525,-2.0633177999999934,1.2590546333333454
5.641011733333319,-2.1973615999999936,1.4218221666666786
6.572935599999987,-2.3314053999999937,1.5845897000000122
6.572935599999987,-2.3314053999999937,1.5845897000000122
7.776138733333319,-2.190978533333327,1.6707607666666788
8.979341866666651,-2.0505516666666606,1.7569318333333452
10.182544999999983,-1.9101247999999942,1.8431029000000116
10.182544999999983,-1.9101247999999942,1.8431029000000116
11.542132666666651,-2.2931071999999944,1.568632133333345
12.901720333333317,-2.6760895999999943,1.2941613666666782
14.261307999999985,-3.0590719999999947,1.0196906000000114
14.261307999999985,-3.0590719999999947,1.0196906000000114
14.034709999999984,-3.722908166666661,2.040977066666678
13.808111999999985,-4.3867443333333265,3.062263533333345
13.581513999999984,-5.050580499999993,4.0835500000000104
13.581513999999984,-5.050580499999993,4.0835500000000104
11.698517099999984,-3.6909929666666605,3.8920588000000103
9.815520199999984,-2.331405433333327,3.70056760000001
7.932523299999985,-0.9718178999999939,3.50907640000001
7.932523299999985,-0.9718178999999939,3.50907640000001
6.8218743333333185,-0.9750094133333272,2.995241666666676
5.711225366666652,-0.9782009266666606,2.481406933333343
4.600576399999986,-0.9813924399999939,1.9675722000000093
5.005899433333319,-1.5909727933333275,2.1048075333333425
5.4112224666666515,-2.200553146666661,2.2420428666666763
5.816545499999985,-2.8101334999999943,2.3792782000000097
5.816545499999985,-2.8101334999999943,2.37927820000001
7.409113999999985,-2.7367285333333284,2.4814068666666764
9.001682499999983,-2.6633235666666617,2.583535533333343
10.594250999999982,-2.589918599999995,2.68566420000001
10.59425099999998,-2.589918599999995,2.68566420000001
12.837889666666648,-2.832474133333328,2.06650930000001
15.081528333333315,-3.0750296666666608,1.44735440000001
17.325166999999983,-3.317585199999994,0.8281995000000101
17.325166999999983,-3.317585199999994,0.8281995000000101
16.731544333333314,-3.2250311333333275,0.7739436666666767
16.13792166666665,-3.132477066666661,0.7196878333333433
15.544298999999983,-3.039922999999994,0.6654320000000099
15.544298999999983,-3.039922999999994,0.6654320000000099
13.141084333333316,-2.5292797333333272,0.8633062333333433
10.737869666666647,-2.0186364666666603,1.0611804666666766
8.334654999999978,-1.5079931999999936,1.2590547000000099
8.334654999999978,-1.5079931999999936,1.2590547000000099
7.329326133333313,-1.4728864999999935,1.0803295666666763
6.323997266666647,-1.4377797999999935,0.901604433333343
5.31866839999998,-1.4026730999999935,0.7228793000000096
5.318668399999981,-1.4026730999999935,0.7228793000000096
4.9037707999999816,-1.47926956666666,0.9207535666666763
4.488873199999982,-1.5558660333333265,1.118627833333343
4.073975599999982,-1.632462499999993,1.31650210000001
4.833557299999981,-1.3930985133333265,1.3452257666666763
5.59313899999998,-1.1537345266666599,1.373949433333343
6.35272069999998,-0.9143705399999934,1.4026731000000099
6.35272069999998,-0.9143705399999934,1.40267310000001
7.843160466666647,-1.1633090933333268,1.25905470000001
9.333600233333314,-1.4122476466666603,1.11543630000001
10.82403999999998,-1.6611861999999935,0.9718179000000101
10.824039999999982,-1.6611861999999935,0.9718179000000101
12.011285666666646,-2.5452373666666603,0.8952214000000102
13.198531333333312,-3.4292885333333274,0.8186249000000102
14.385776999999976,-4.313339699999994,0.7420284000000102
14.385776999999976,-4.313339699999994,0.7420284000000102
14.366627999999977,-4.389936133333328,1.881401166666677
14.347478999999979,-4.466532566666661,3.020773933333343
14.32832999999998,-4.543128999999994,4.16014670000001
14.32832999999998,-4.543128999999994,4.16014670000001
12.419800666666646,-3.129285556666661,3.872909866666676
10.511271333333312,-1.715442113333328,3.5856730333333426
8.602741999999978,-0.3015986699999944,3.2984362000000087
8.602741999999978,-0.3015986699999944,3.2984362000000083
7.488901666666645,-0.6143676466666611,2.727154033333342
6.375061333333311,-0.9271366233333277,2.155871866666675
5.261220999999978,-1.2399055999999944,1.5845897000000084
5.261220999999978,-1.2399055999999942,1.5845897000000082
6.346337666666645,-2.3537460666666608,2.2260852666666744
7.431454333333311,-3.467586533333327,2.867580833333341
8.516570999999978,-4.5814269999999935,3.509076400000007
9.285727333333313,-3.6622692333333275,3.387798666666674
10.054883666666646,-2.743111466666661,3.2665209333333407
10.824039999999977,-1.8239536999999946,3.145243200000007
10.824039999999977,-1.8239536999999946,3.145243200000007
10.824039999999977,-1.8239536999999946,3.145243200000007
11.893199333333309,-2.226085233333328,2.7718353333333408
12.96235866666664,-2.6282167666666614,2.3984274666666745
14.031517999999972,-3.030348299999994,2.025019600000008
13.504916999999972,-2.9090705333333275,1.871826633333341
12.978315999999973,-2.787792766666661,1.7186336666666744
12.451714999999973,-2.6665149999999946,1.5654407000000077
12.451714999999973,-2.6665149999999946,1.5654407000000077
11.261277999999974,-2.3026817333333276,1.4282053333333409
10.070840999999973,-1.9388484666666603,1.2909699666666743
8.880403999999972,-1.575015199999994,1.1537346000000077
8.880403999999972,-1.575015199999994,1.1537346000000077
8.519762533333306,-1.7696978999999937,1.2143734666666743
8.159121066666641,-1.964380599999994,1.275012333333341
7.7984795999999745,-2.159063299999994,1.3356512000000078
7.7984795999999745,-2.1590632999999944,1.3356512000000078
7.367624299999974,-1.913316266666661,1.2941614333333409
6.936768999999974,-1.6675692333333274,1.2526716666666742
6.505913699999975,-1.421822199999994,1.2111819000000075
6.505913699999975,-1.421822199999994,1.2111819000000075
6.665489799999975,-1.6228879999999941,1.2622462333333406
6.8250658999999745,-1.8239537999999937,1.313310566666674
6.984641999999975,-2.0250195999999936,1.3643749000000074
6.984641999999975,-2.025019599999993,1.3643749000000074
7.871884666666641,-1.900550299999993,1.029265266666674
8.759127333333305,-1.7760809999999931,0.6941556333333406
9.64636999999997,-1.651611699999993,0.35904600000000714
12.512355333333305,-2.6377914666666595,0.4962813766666738
15.37834066666664,-3.6239712333333265,0.6335167533333406
18.244325999999976,-4.610150999999993,0.7707521300000071
18.244325999999973,-4.610150999999993,0.7707521300000071
17.27729499999997,-3.9909959999999924,1.4377798533333401
16.31026399999997,-3.3718409999999928,2.104807576666673
15.34323299999997,-2.752685999999993,2.7718353000000064
15.34323299999997,-2.752685999999993,2.7718353000000064
13.12831799999997,-2.0792752999999924,2.7431116000000064
10.913402999999969,-1.4058645999999928,2.714387900000007
8.69848799999997,-0.7324538999999928,2.685664200000007
8.698487999999967,-0.7324538999999927,2.685664200000007
7.5782645666666335,-0.9877754999999926,2.5771524666666736
6.4580411333333,-1.2430970999999926,2.468640733333341
5.337817699999966,-1.4984186999999924,2.3601290000000077
5.337817699999964,-1.4984186999999924,2.3601290000000077
5.433563266666631,-1.8207622333333255,2.3409799000000078
5.529308833333299,-2.143105766666659,2.321830800000008
5.625054399999965,-2.465449299999992,2.302681700000008
5.625054399999965,-2.465449299999992,2.302681700000008
6.595276599999966,-2.6473659333333255,2.2962986666666745
7.565498799999966,-2.829282566666659,2.2899156333333415
8.535720999999965,-3.0111991999999925,2.283532600000008
8.535720999999965,-3.0111991999999925,2.2835326000000085
9.349558666666631,-1.6452285999999923,1.897358666666675
10.163396333333298,-0.2792579999999922,1.5111847333333417
10.977233999999966,1.086712600000008,1.1250108000000083
11.912348999999963,0.3813866333333413,0.9016044133333416
12.847463999999965,-0.3239393333333254,0.6781980266666748
13.782578999999965,-1.0292652999999923,0.4547916400000081
13.782578999999965,-1.0292652999999923,0.4547916400000081
13.782578999999965,-1.0292652999999923,0.4547916400000081
13.632577999999967,-1.4537374333333257,0.036702493333341434
13.482576999999969,-1.8782095666666592,-0.3813866533333253
13.33257599999997,-2.3026816999999924,-0.7994757999999919
13.230447333333302,-1.9962957999999922,-1.0835210999999918
13.128318666666635,-1.6899098999999917,-1.3675663999999916
13.026189999999966,-1.3835239999999913,-1.651611699999992
13.026189999999966,-1.3835239999999913,-1.651611699999992
11.899583333333299,-1.1026702133333246,-1.3835239999999918
10.772976666666631,-0.821816426666658,-1.1154362999999918
9.646369999999964,-0.5409626399999913,-0.8473485999999918
9.646369999999964,-0.5409626399999913,-0.8473485999999918
8.998491333333298,-0.662240406666658,-0.8154333999999919
8.350612666666633,-0.7835181733333246,-0.783518199999992
7.702733999999967,-0.9047959399999913,-0.7516029999999919
7.702733999999967,-0.9047959399999913,-0.7516029999999919
7.6165628333333,-0.8154333799999912,-0.34947145333332524
7.530391666666634,-0.7260708199999913,0.05266009333334143
7.444220499999967,-0.6367082599999914,0.4547916400000081
7.444220499999967,-0.6367082599999915,0.4547916400000081
7.6835844999999665,-0.866497706666658,0.5122389933333414
7.922948499999966,-1.096287153333325,0.5696863466666747
8.162312499999965,-1.3260765999999917,0.6271337000000081
8.162312499999965,-1.3260765999999917,0.6271337000000082
8.957000999999968,-1.4090561333333251,0.7037301866666749
9.75168949999997,-1.4920356666666583,0.7803266733333416
10.54637799999997,-1.5750151999999915,0.8569231600000083
10.546377999999972,-1.5750151999999915,0.8569231600000083
11.232554999999971,-1.4824610999999914,0.371812106666675
11.918731999999972,-1.3899069999999913,-0.11329894666665834
12.604908999999973,-1.2973528999999913,-0.5984099999999917
12.582568333333306,-1.3452257333333246,-0.20585303333332494
12.56022766666664,-1.393098566666658,0.18670393333334176
12.537886999999971,-1.4409713999999916,0.5792609000000084
12.537886999999971,-1.4409713999999916,0.5792609000000084
11.784688333333307,-0.8026673566666583,0.4388340166666751
11.031489666666639,-0.16436331333332496,0.29840713333334173
10.278290999999973,0.4739407300000084,0.15798025000000837
10.278290999999971,0.4739407300000084,0.15798025000000834
9.381473666666638,-0.10372441333332495,0.28883256666667495
8.484656333333303,-0.6813895566666583,0.4196848833333416
7.5878389999999705,-1.2590546999999916,0.5505372000000083
7.5878389999999705,-1.2590546999999919,0.5505372000000083
6.738894666666638,-0.9111789999999917,0.6462828133333417
5.889950333333304,-0.5633032999999917,0.7420284266666751
5.041005999999971,-0.21542759999999164,0.8377740400000085
5.041005999999971,-0.21542759999999164,0.8377740400000085
5.0505806666666375,-0.4675576999999917,0.9462857266666752
5.060155333333305,-0.7196877999999917,1.0547974133333418
5.069729999999971,-0.9718178999999917,1.1633091000000084
5.069729999999971,-0.9718178999999917,1.1633091000000084
6.068675666666638,-1.2494801666666586,1.472886566666675
7.067621333333304,-1.5271424333333254,1.7824640333333415
8.06656699999997,-1.8048046999999923,2.092041500000008
8.06656699999997,-1.8048046999999923,2.0920415000000077
8.724020333333305,-1.6675693333333257,2.082466933333341
9.381473666666638,-1.530333966666659,2.072892366666674
10.038926999999973,-1.3930985999999923,2.063317800000007
10.281482333333306,-1.450545966666659,1.6899099333333405
10.524037666666638,-1.5079933333333255,1.3165020666666738
10.766592999999972,-1.5654406999999921,0.9430942000000071
10.766592999999972,-1.5654406999999921,0.9430942000000071
12.716611999999971,-2.1494888666666587,0.7101132333333404
14.666630999999972,-2.7335370333333255,0.47713226666667374
16.61664999999997,-3.3175851999999924,0.24415130000000707
16.61664999999997,-3.3175851999999924,0.24415130000000707
15.451744999999972,-2.6377913999999922,-0.06542616666665958
14.286839999999971,-1.9579975999999923,-0.3750036333333262
13.121934999999972,-1.2782037999999922,-0.6845810999999928
13.121934999999972,-1.2782037999999922,-0.6845810999999928
11.880433666666638,-1.3835239999999924,-0.5473457266666596
10.638932333333303,-1.4888441999999926,-0.4101103533333263
9.397430999999969,-1.5941643999999926,-0.272874979999993
9.397430999999969,-1.5941643999999926,-0.27287497999999305
7.654860999999971,-1.760123433333326,-0.023936409999993042
5.91229099999997,-1.9260824666666594,0.22500216000000695
4.16972099999997,-2.092041499999993,0.4739407300000069
4.169720999999971,-2.092041499999993,0.4739407300000069
4.460149333333304,-1.7154420999999929,0.5154304866666736
4.750577666666637,-1.338842699999993,0.5569202433333402
5.041005999999971,-0.9622432999999929,0.5984100000000069
5.816545433333304,-1.2973529333333262,0.7164962666666735
6.592084866666638,-1.6324625666666597,0.8345825333333403
7.367624299999971,-1.967572199999993,0.9526688000000071
7.367624299999971,-1.967572199999993,0.9526688000000071
7.367624299999971,-1.967572199999993,0.9526688000000071
8.117631533333304,-2.0920414666666596,1.0899041666666738
8.867638766666639,-2.2165107333333256,1.2271395333333406
9.61764599999997,-2.340979999999992,1.3643749000000074
11.449578333333305,-2.810133499999992,1.3484173000000073
13.281510666666636,-3.2792869999999925,1.3324597000000071
15.113442999999968,-3.748440499999992,1.316502100000007
15.113442999999966,-3.7484404999999916,1.316502100000007
15.084719333333297,-3.923973999999992,2.29629883333334
15.055995666666627,-4.099507499999992,3.276095566666673
15.027271999999959,-4.275040999999992,4.2558923000000055
15.027271999999959,-4.275040999999992,4.2558923000000055
13.71874899999996,-3.068646466666659,4.125039900000005
12.41022599999996,-1.8622519333333256,3.994187500000006
11.101702999999963,-0.655857399999992,3.8633351000000062
11.101702999999963,-0.655857399999992,3.8633351000000062
8.251675399999963,-0.23776826666665876,3.240988666666673
5.401647799999963,0.18032086666667457,2.6186422333333397
2.5516201999999617,0.5984100000000079,1.9962958000000064
2.5516201999999617,0.5984100000000079,1.9962958000000064
2.6856640666666283,-0.4037273333333255,1.7090590000000063
2.819707933333295,-1.405864666666659,1.4218222000000065
2.953751799999962,-2.408001999999992,1.1345854000000064
2.9537517999999623,-2.4080019999999926,1.1345854000000066
4.504830666666629,-2.420768099999993,1.3994816000000065
6.0559095333332955,-2.4335341999999933,1.6643778000000067
7.606988399999962,-2.4463002999999937,1.9292740000000068
7.606988399999962,-2.446300299999994,1.9292740000000073
9.646369599999963,-2.184595599999994,1.2430971466666738
11.685750799999964,-1.9228908999999943,0.5569202933333406
13.725131999999965,-1.6611861999999944,-0.12925655999999272
15.553872999999962,-2.5675779999999944,-0.2792580066666594
17.38261399999996,-3.473969799999994,-0.4292594533333261
19.21135499999996,-4.380361599999994,-0.5792608999999929
19.21135499999996,-4.380361599999994,-0.5792608999999929
19.21135499999996,-4.380361599999994,-0.5792608999999929
17.59006299999996,-4.083550166666662,-0.5888354666666595
15.968770999999967,-3.7867387333333284,-0.5984100333333262
14.347478999999964,-3.4899272999999957,-0.6079845999999929
11.819794999999964,-3.164392199999996,0.12287350000000712
9.292110999999963,-2.8388570999999962,0.8537316000000071
6.764426999999962,-2.5133219999999965,1.5845897000000069
6.764426999999962,-2.5133219999999965,1.5845897000000069
5.302710733333296,-2.1111904666666628,1.5718236333333404
3.840994466666629,-1.7090589333333295,1.5590575666666737
2.379278199999962,-1.3069273999999962,1.546291500000007
2.3792781999999626,-1.306927399999996,1.546291500000007
2.972901033333296,-1.4473543333333294,1.7026760000000067
3.5665238666666297,-1.5877812666666626,1.8590605000000064
4.160146699999963,-1.7282081999999959,2.0154450000000064
4.160146699999962,-1.7282081999999959,2.0154450000000064
5.631437299999962,-1.744165799999996,1.983529766666673
7.102727899999962,-1.7601233999999961,1.9516145333333395
8.574018499999964,-1.7760809999999962,1.919699300000006
8.574018499999964,-1.7760809999999967,1.919699300000006
9.764455333333295,-2.264383566666664,1.5750151333333395
10.954892166666626,-2.752686133333331,1.2303309666666729
12.14532899999996,-3.2409886999999977,0.8856468000000063
12.14532899999996,-3.2409886999999977,0.8856468000000063
13.220871666666627,-3.812270799999997,0.9718178666666729
14.296414333333296,-4.383552899999997,1.0579889333333397
15.371956999999965,-4.954834999999997,1.1441600000000065
14.752801999999962,-4.546320399999998,1.7058675000000063
14.13364699999996,-4.137805799999999,2.2675750000000066
13.51449199999996,-3.7292912,2.829282500000007
13.514491999999956,-3.7292912,2.829282500000007
12.164478999999957,-3.0909871999999994,3.020773700000007
10.814465999999959,-2.452683199999999,3.2122649000000076
9.464452999999958,-1.8143791999999987,3.403756100000008
9.464452999999958,-1.8143791999999987,3.403756100000008
7.549540933333293,-1.4601204666666654,3.055880400000008
5.634628866666627,-1.105861733333332,2.7080047000000076
3.7197167999999596,-0.7516029999999988,2.3601290000000077
3.7197167999999596,-0.7516029999999988,2.3601290000000077
3.767589566666626,-1.0930956666666651,2.018636400000007
3.815462333333293,-1.434588333333332,1.6771438000000074
3.8633350999999596,-1.7760809999999987,1.3356512000000074
3.8633350999999596,-1.776080999999999,1.3356512000000074
5.273987066666625,-2.0409771666666656,1.6771438000000076
6.6846390333332915,-2.3058733333333326,2.0186364000000077
8.095290999999959,-2.570769499999999,2.3601290000000072
8.095290999999957,-2.5707694999999986,2.3601290000000072
9.917648999999956,-2.3122563333333317,2.034594000000007
11.740006999999954,-2.053743166666665,1.7090590000000063
13.562364999999952,-1.7952299999999983,1.383524000000006
13.562364999999952,-1.7952299999999983,1.383524000000006
14.56131066666662,-2.2803411333333314,1.0771380566666726
15.560256333333285,-2.765452266666665,0.7707521133333394
16.559201999999953,-3.2505633999999985,0.46436617000000596
15.51557499999995,-3.256946399999998,0.5760693800000061
14.47194799999995,-3.2633293999999977,0.6877725900000061
13.428320999999949,-3.2697123999999973,0.7994758000000063
13.428320999999949,-3.2697123999999973,0.7994758000000063
11.641069666666615,-3.2154565333333305,1.1728836333333394
9.853818333333281,-3.1612006666666637,1.5462914666666727
8.066566999999948,-3.106944799999997,1.919699300000006
8.066566999999948,-3.106944799999997,1.919699300000006
6.403784999999947,-2.7048132666666636,1.9356569333333393
4.741002999999947,-2.3026817333333303,1.9516145666666727
3.0782209999999472,-1.9005501999999972,1.9675722000000058
3.0782209999999472,-1.9005501999999972,1.9675722000000058
3.4548204333332806,-1.8016130999999973,1.9324654666666723
3.8314198666666144,-1.7026759999999974,1.8973587333333388
4.208019299999948,-1.6037388999999973,1.8622520000000053
4.208019299999948,-1.6037388999999973,1.8622520000000053
5.548457866666616,-1.7473572666666641,1.9643806666666723
6.888896433333283,-1.890975633333331,2.066509333333339
8.229334999999951,-2.034593999999998,2.1686380000000054
8.229334999999951,-2.034593999999998,2.1686380000000054
9.81871199999995,-2.3314054333333307,1.7856555333333386
11.408088999999949,-2.628216866666664,1.4026730666666716
12.997465999999948,-2.925028299999997,1.0196906000000048
12.997465999999946,-2.925028299999996,1.019690600000005
13.76023933333328,-3.608013599999996,0.997350000000005
14.523012666666611,-4.2909988999999955,0.975009400000005
15.285785999999945,-4.973984199999996,0.952668800000005
14.727269999999947,-5.037814599999996,2.0250195333333383
14.16875399999995,-5.101644999999997,3.097370266666672
13.610237999999953,-5.165475399999997,4.169721000000005
13.610237999999953,-5.165475399999997,4.169721000000006
13.610237999999953,-5.165475399999997,4.169721000000006
11.599580233333285,-4.166529599999998,4.1761041333333395
9.588922466666617,-3.1675837999999974,4.182487266666673
7.578264699999949,-2.1686379999999974,4.188870400000006
6.298465099999949,-1.9388485333333307,3.856952266666673
5.018665499999949,-1.7090590666666643,3.52503413333334
3.738865899999949,-1.4792695999999979,3.193116000000007
3.738865899999949,-1.4792695999999979,3.193116000000007
4.332488599999948,-1.9324654666666643,3.0016247666666733
4.926111299999948,-2.385661333333331,2.81013353333334
5.519733999999947,-2.8388571999999974,2.6186423000000065
5.519733999999947,-2.8388571999999974,2.6186423000000065
6.716553999999948,-2.6154507999999974,2.7303454666666735
7.913373999999948,-2.3920443999999974,2.842048633333341
9.110193999999948,-2.1686379999999974,2.953751800000008
9.110193999999948,-2.1686379999999974,2.9537518000000085
10.064458666666615,-1.8143792666666638,2.462257733333342
11.018723333333282,-1.4601205333333305,1.9707636666666752
11.97298799999995,-1.1058617999999971,1.4792696000000085
11.97298799999995,-1.1058617999999971,1.4792696000000085
13.42193799999995,-1.5431000666666634,1.1665006133333418
14.870887999999951,-1.9803383333333304,0.8537316266666751
16.31983799999995,-2.417576599999997,0.5409626400000084
16.31983799999995,-2.417576599999997,0.5409626400000084
15.279402333333286,-2.7207709333333305,0.4196848833333417
14.238966666666618,-3.023965266666664,0.298407126666675
13.198530999999951,-3.3271595999999968,0.17712937000000836
11.663409999999951,-3.1612005666666634,0.30159864666667496
10.12828899999995,-2.99524153333333,0.4260679233333416
8.59316799999995,-2.8292824999999966,0.5505372000000083
8.59316799999995,-2.8292824999999966,0.5505372000000083
6.758043899999952,-2.79098433333333,0.6590489000000083
4.922919799999953,-2.7526861666666633,0.7675606000000084
3.0877956999999534,-2.7143879999999965,0.8760723000000085
3.0877956999999534,-2.7143879999999965,0.8760723000000085
3.323968233333287,-2.3888528999999967,1.0930956666666751
3.5601407666666205,-2.063317799999997,1.310119033333342
3.796313299999954,-1.7377826999999975,1.5271424000000087
3.796313299999954,-1.7377826999999975,1.5271424000000087
5.136751666666621,-1.7409741999999973,1.7058675333333422
6.477190033333287,-1.744165699999997,1.8845926666666755
7.817628399999953,-1.7473571999999968,2.063317800000009
7.817628399999953,-1.7473571999999968,2.063317800000009
9.333600599999953,-2.0856583666666637,1.8877841666666757
10.849572799999953,-2.423959533333331,1.7122505333333422
12.36554499999995,-2.7622606999999975,1.536716900000009
12.36554499999995,-2.7622606999999975,1.536716900000009
13.176190999999951,-3.678226966666664,1.8399113666666755
13.986836999999952,-4.59419323333333,2.143105833333342
14.797482999999952,-5.510159499999997,2.4463003000000083
14.797482999999952,-5.510159499999997,2.4463003000000083
14.791099999999952,-5.162283666666664,3.301627666666674
14.784716999999953,-4.8144078333333304,4.1569550333333405
14.778333999999953,-4.466531999999997,5.012282400000007
12.940018666666619,-3.0973699999999966,5.088878800000007
11.101703333333285,-1.7282079999999966,5.165475200000007
9.263387999999951,-0.35904599999999665,5.242071600000006
9.263387999999951,-0.35904599999999665,5.242071600000006
9.263387999999951,-0.35904599999999665,5.242071600000006
8.108057333333285,-0.6973471333333299,4.396318800000007
6.952726666666618,-1.035648266666663,3.550566000000007
5.797395999999952,-1.3739493999999963,2.7048132000000074
6.3686783333332855,-1.8877841666666628,2.46544923333334
6.939960666666619,-2.4016189333333293,2.2260852666666735
7.511242999999953,-2.9154536999999956,1.9867213000000064
7.511242999999953,-2.9154536999999956,1.9867213000000064
8.254866999999953,-2.6218337999999957,1.9739552000000062
8.998490999999952,-2.3282138999999957,1.9611891000000063
9.74211499999995,-2.0345939999999954,1.9484230000000062
9.74211499999995,-2.0345939999999954,1.9484230000000062
11.069787333333286,-1.9739551666666622,1.5111847533333396
12.39745966666662,-1.913316333333329,1.0739465066666727
13.725131999999954,-1.8526774999999958,0.636708260000006
13.725131999999954,-1.8526774999999958,0.6367082600000059
13.70598316666662,-2.197361666666662,0.933519640000006
13.686834333333286,-2.542045833333329,1.230331020000006
13.66768549999995,-2.886729999999995,1.527142400000006
13.66768549999995,-2.886729999999995,1.527142400000006
12.464482333333285,-2.487789966666662,1.2750123100000061
11.261279166666618,-2.0888499333333286,1.022882220000006
10.058075999999952,-1.6899098999999953,0.7707521300000062
10.058075999999952,-1.6899098999999953,0.7707521300000062
8.957001433333287,-1.7122505666666619,1.3452257533333396
7.855926866666621,-1.7345912333333284,1.9196993766666728
6.754852299999954,-1.756931899999995,2.4941730000000066
6.754852299999954,-1.756931899999995,2.4941730000000066
6.097399199999955,-1.683526899999995,2.38566133333334
5.439946099999954,-1.610121899999995,2.277149666666673
4.7824929999999535,-1.5367168999999954,2.1686380000000063
4.673981333333288,-1.5686320999999952,2.3441716000000064
4.565469666666622,-1.6005472999999952,2.5197052000000064
4.456957999999955,-1.6324624999999953,2.695238800000007
4.456957999999955,-1.6324624999999953,2.695238800000007
5.704842333333289,-1.6707607333333285,2.372895266666674
6.952726666666623,-1.7090589666666618,2.05055173333334
8.200610999999958,-1.747357199999995,1.728208200000007
8.200610999999958,-1.747357199999995,1.728208200000007
10.345312666666622,-2.3026817333333285,1.223948000000007
12.490014333333287,-2.858006266666662,0.7196878000000068
14.634715999999953,-3.413330799999996,0.21542760000000674
14.634715999999953,-3.413330799999996,0.21542760000000674
14.127264333333287,-3.9686551999999957,0.7899012333333401
13.61981266666662,-4.523979599999996,1.3643748666666733
13.112360999999956,-5.079303999999996,1.9388485000000066
13.112360999999956,-5.079303999999996,1.9388485000000066
12.668739666666623,-4.284615599999995,2.62502533333334
12.22511833333329,-3.489927199999995,3.311202166666673
11.781496999999957,-2.695238799999995,3.9973790000000062
11.781496999999957,-2.695238799999995,3.9973790000000062
10.862338999999956,-1.7058675399999952,4.080358466666673
9.943180999999955,-0.7164962799999951,4.16333793333334
9.024022999999955,0.2728749800000048,4.246317400000007
9.024022999999955,0.2728749800000049,4.246317400000006
8.637849133333289,-0.1260650366666618,3.840994366666672
8.251675266666622,-0.5250050533333285,3.4356713333333375
7.865501399999954,-0.9239450699999953,3.0303483000000035
7.989970933333287,-1.3484172799999952,3.1101363333333367
8.114440466666622,-1.7728894899999952,3.18992436666667
8.238909999999956,-2.197361699999995,3.269712400000003
8.238909999999958,-2.197361699999995,3.269712400000003
8.331463666666625,-2.353746133333329,3.17077526666667
8.424017333333293,-2.5101305666666622,3.071838133333337
8.51657099999996,-2.6665149999999955,2.972901000000004
8.516570999999962,-2.6665149999999955,2.972901000000004
8.61231666666663,-2.873963833333329,3.052689000000004
8.708062333333297,-3.0814126666666617,3.1324770000000037
8.803807999999966,-3.2888614999999946,3.212265000000004
8.803807999999966,-3.2888614999999946,3.212265000000004
11.025106333333298,-3.748440399999995,2.8260910333333373
13.24640466666663,-4.208019299999996,2.4399170666666703
15.467702999999963,-4.667598199999996,2.0537431000000037
15.467702999999963,-4.667598199999996,2.0537431000000037
14.484714666666628,-4.820791199999995,2.034594000000004
13.501726333333295,-4.973984199999994,2.015444900000004
12.518737999999962,-5.127177199999994,1.996295800000004
12.518737999999962,-5.127177199999993,1.996295800000004
12.745335666666628,-4.562278099999992,2.459066200000004
12.971933333333297,-3.997378999999992,2.9218366000000042
13.198530999999965,-3.432479899999992,3.3846070000000044
11.8325603333333,-2.561194899999992,3.582481266666671
10.466589666666634,-1.6899098999999917,3.780355533333337
9.100618999999968,-0.8186248999999916,3.9782298000000034
9.100618999999966,-0.8186248999999916,3.9782298000000034
9.100618999999966,-0.8186248999999916,3.9782298000000034
8.401676333333299,-0.45479160666665813,3.5601407000000034
7.7027336666666315,-0.09095831333332476,3.142051600000004
7.003790999999964,0.2728749800000086,2.7239625000000043
6.7548523333332975,-0.1164904799999914,2.4143850000000042
6.505913666666632,-0.5058559399999915,2.104807500000004
6.256974999999965,-0.8952213999999915,1.7952300000000045
6.256974999999965,-0.8952213999999915,1.7952300000000045
6.611233766666632,-1.109053233333325,1.6771438000000043
6.965492533333298,-1.322885066666658,1.5590576000000045
7.3197512999999645,-1.5367168999999914,1.4409714000000047
7.3197512999999645,-1.5367168999999914,1.4409714000000047
8.041035199999966,-1.7569318333333248,1.2494801666666713
8.762319099999965,-1.9771467666666582,1.0579889333333379
9.483602999999967,-2.1973616999999916,0.8664977000000044
9.483602999999967,-2.1973616999999916,0.8664977000000044
11.331492666666634,-2.842048799999992,0.18032086666667094
13.1793823333333,-3.4867358999999927,-0.5058559666666624
15.027271999999963,-4.131422999999994,-1.192032799999996
15.027271999999963,-4.131422999999994,-1.192032799999996
14.535778333333297,-4.508022333333326,-0.742028449999996
14.044284666666632,-4.884621666666658,-0.2920240999999959
13.552790999999965,-5.261220999999991,0.15798025000000418
13.552790999999965,-5.261220999999991,0.1579802500000042
12.687888666666632,-4.606959399999991,0.7994757666666709
11.822986333333299,-3.952697799999992,1.4409712833333377
10.958083999999966,-3.2984361999999927,2.0824668000000046
10.958083999999966,-3.2984361999999927,2.0824668000000046
9.231471799999966,-2.870772466666659,2.0952329333333384
7.504859599999965,-2.4431087333333257,2.1079990666666713
5.778247399999966,-2.015444999999992,2.120765200000004
5.778247399999966,-2.0154449999999926,2.1207652000000037
6.288890599999966,-2.727153999999993,2.1782125666666703
6.799533799999964,-3.438862999999993,2.235659933333337
7.310176999999964,-4.150571999999993,2.2931073000000035
7.310176999999964,-4.150571999999993,2.293107300000004
7.8878419999999645,-4.555894999999993,2.3760868000000044
8.465506999999965,-4.961217999999994,2.459066300000005
9.043171999999966,-5.3665409999999945,2.5420458000000052
9.043171999999968,-5.3665409999999945,2.5420458000000052
9.107002666666636,-5.0186653333333275,2.625025333333338
9.170833333333304,-4.670789666666661,2.708004866666671
9.234663999999972,-4.322913999999994,2.790984400000004
9.234663999999972,-4.322913999999994,2.790984400000004
9.158067333333305,-4.0069535666666605,3.0143908000000046
9.081470666666638,-3.6909931333333277,3.237797200000005
9.00487399999997,-3.375032699999995,3.461203600000006
9.00487399999997,-3.375032699999995,3.461203600000006
10.105948666666636,-3.5378001666666616,3.323968266666673
11.207023333333304,-3.7005676333333284,3.18673293333334
12.308097999999971,-3.863335099999995,3.049497600000007
12.308097999999971,-3.863335099999995,3.049497600000007
12.572993999999971,-3.8601435666666615,3.13886013333334
12.837889999999971,-3.8569520333333283,3.228222666666673
13.102785999999972,-3.8537604999999946,3.3175852000000066
13.102785999999972,-3.8537604999999946,3.3175852000000066
13.425129666666637,-3.7005675666666615,3.135668566666673
13.747473333333303,-3.5473746333333285,2.9537519333333395
14.06981699999997,-3.3941816999999954,2.771835300000006
14.06981699999997,-3.3941816999999954,2.771835300000006
13.849601999999969,-2.7941759333333285,2.7048133666666723
13.629386999999968,-2.194170166666662,2.6377914333333394
13.409171999999968,-1.594164399999995,2.5707695000000066
12.059158999999967,-1.2845869333333284,2.0505517000000064
10.709145999999969,-0.9750094666666617,1.5303339000000067
9.35913299999997,-0.665431999999995,1.0101161000000067
9.35913299999997,-0.665431999999995,1.0101161000000067
8.596359566666635,-0.9750094666666617,0.6558573733333402
7.833586133333303,-1.2845869333333282,0.3015986466666734
7.07081269999997,-1.5941643999999948,-0.05266007999999326
7.07081269999997,-1.5941643999999944,-0.05266007999999326
6.330380133333303,-0.9558603466666612,-0.19947000333332657
5.589947566666637,-0.31755629333332785,-0.34627992666665985
4.849514999999969,0.32074776000000543,-0.4930898499999932
4.849514999999969,0.32074776000000543,-0.4930898499999932
4.064400999999969,0.971817906666672,-0.5122389666666599
3.2792869999999694,1.6228880533333385,-0.5313880833333265
2.4941729999999693,2.2739582000000054,-0.5505371999999932
2.4941729999999693,2.2739582000000054,-0.5505371999999932
2.8899214666666357,1.5303339743333388,-0.5537287199999931
3.2856699333333026,0.7867097486666722,-0.5569202399999931
3.6814183999999694,0.04308552300000542,-0.5601117599999931
3.6814183999999694,0.04308552300000542,-0.5601117599999931
4.485681599999969,-0.7037302179999946,-0.3734078399999931
5.28994479999997,-1.4505459589999947,-0.1867039199999931
6.094207999999969,-2.1973616999999948,6.8833827526759706e-15
6.094207999999969,-2.1973616999999948,6.8833827526759706e-15
8.806999999999967,-3.132477133333328,-0.07500072333332646
11.519791999999965,-4.0675925666666615,-0.1500014466666598
14.232583999999962,-5.002707999999994,-0.22500216999999312
14.23258399999996,-5.002707999999994,-0.22500216999999312
16.019834999999958,-7.099536666666661,0.7579860533333402
17.807085999999956,-9.196365333333327,1.7409742766666734
19.594336999999953,-11.293193999999994,2.7239625000000065
19.594336999999953,-11.293193999999994,2.7239625000000074
17.085802333333287,-10.128289199999996,4.0133366666666745
14.57726766666662,-8.963384399999995,5.302710833333342
12.068732999999952,-7.798479599999996,6.592085000000009
12.068732999999952,-7.798479599999996,6.592085000000009
9.547432333333283,-5.985696066666662,6.36548700000001
7.026131666666615,-4.172912533333329,6.13888900000001
4.504830999999948,-2.3601289999999957,5.9122910000000095
4.504830999999947,-2.3601289999999957,5.912291000000008
3.304819313333281,-2.5484287666666625,4.95802653333334
2.1048076266666143,-2.7367285333333293,4.003762066666673
0.9047959399999481,-2.925028299999996,3.0494976000000062
0.9047959399999481,-2.925028299999996,3.0494976000000062
2.5069391266666146,-3.435671533333329,2.966518066666673
4.109082313333281,-3.9463147666666623,2.8835385333333394
5.711225499999947,-4.456957999999996,2.8005590000000056
5.711225499999947,-4.456957999999996,2.8005590000000056
7.804862666666614,-4.153763566666662,2.4048104666666723
9.89849983333328,-3.850569133333328,2.0090619333333386
11.992136999999948,-3.547374699999995,1.6133134000000053
11.992136999999948,-3.547374699999995,1.6133134000000053
14.526203666666612,-3.7037591333333277,1.1250108300000052
17.06027033333328,-3.8601435666666606,0.6367082600000054
19.594336999999943,-4.016527999999993,0.1484056900000054
18.818797999999944,-3.9782298333333266,-0.2186191399999946
18.043258999999946,-3.9399316666666593,-0.5856439699999946
17.267719999999944,-3.901633499999992,-0.9526687999999947
17.267719999999944,-3.901633499999992,-0.9526687999999947
17.267719999999944,-3.901633499999992,-0.9526687999999947
14.944293333333277,-3.5314171333333255,-0.5441542066666613
12.62086666666661,-3.1612007666666586,-0.13563961333332786
10.297439999999943,-2.790984399999992,0.2728749800000055
7.71550006666661,-2.669706599999992,0.5824524200000054
5.133560133333275,-2.548428799999992,0.8920298600000054
2.551620199999942,-2.427150999999992,1.2016073000000054
2.551620199999942,-2.4271509999999914,1.2016073000000054
2.940985733333276,-1.760123316666658,1.0579889100000053
3.330351266666609,-1.0930956333333248,0.9143705200000053
3.7197167999999423,-0.4260679499999915,0.7707521300000053
3.7197167999999423,-0.4260679499999915,0.7707521300000053
4.054826433333275,-0.45479163333332484,0.952668786666672
4.389936066666608,-0.48351531666665815,1.1345854433333387
4.725045699999941,-0.5122389999999915,1.3165021000000054
4.725045699999941,-0.5122389999999913,1.3165021000000054
4.508022333333275,-0.4835153166666581,1.140968486666672
4.290998966666609,-0.4547916333333248,0.9654348733333386
4.073975599999943,-0.4260679499999915,0.7899012600000054
4.073975599999943,-0.4260679499999915,0.7899012600000054
5.347392066666608,-1.057988966666658,0.927136606666672
6.620808533333275,-1.6899099833333249,1.0643719533333387
7.894224999999941,-2.321830999999991,1.2016073000000052
7.894224999999941,-2.321830999999991,1.2016073000000054
10.725103333333275,-3.7484404333333248,1.8239537666666719
13.555981666666609,-5.175049866666658,2.4463002333333383
16.386859999999945,-6.601659299999991,3.0686467000000044
16.335795666666613,-7.345283533333325,4.176104133333338
16.28473133333328,-8.088907766666658,5.283561566666671
16.233666999999944,-8.832531999999992,6.391019000000004
16.233666999999944,-8.832531999999992,6.391019000000004
13.35810746666661,-7.702733866666658,5.810162333333337
10.482547933333276,-6.572935733333324,5.2293056666666695
7.606988399999943,-5.44313759999999,4.648449000000003
7.606988399999943,-5.44313759999999,4.648449000000003
5.947397833333277,-4.463340899999991,4.03248566666667
4.2878072666666105,-3.48354419999999,3.4165223333333365
2.6282166999999435,-2.50374749999999,2.8005590000000034
2.6282166999999435,-2.50374749999999,2.8005590000000034
3.065454999999943,-2.9760925333333232,2.67608966666667
3.5026932999999425,-3.4484375666666565,2.551620333333337
3.9399315999999422,-3.9207825999999897,2.427151000000004
3.9399315999999422,-3.9207825999999897,2.427151000000004
5.7973963999999425,-3.617588133333323,2.577152433333337
7.654861199999942,-3.314393666666657,2.7271538666666704
9.512325999999943,-3.0111991999999907,2.8771553000000036
9.512325999999943,-3.0111991999999907,2.8771553000000036
9.512325999999943,-3.0111991999999907,2.8771553000000036
12.375119333333274,-3.0750295999999904,2.385661233333337
15.237912666666608,-3.1388599999999904,1.89416716666667
18.100705999999942,-3.2026903999999905,1.402673100000003
18.518795666666605,-3.9590807333333236,1.322885100000003
18.93688533333327,-4.715471066666657,1.243097100000003
19.354974999999936,-5.47186139999999,1.163309100000003
19.354974999999936,-5.47186139999999,1.1633091000000029
17.59963833333327,-4.626108499999989,1.0484143666666694
15.844301666666604,-3.78035559999999,0.9335196333333361
14.08896499999994,-2.9346026999999903,0.8186249000000029
14.08896499999994,-2.934602699999991,0.8186249000000029
11.647452333333272,-2.573960966666658,0.8154334000000029
9.205939666666604,-2.213319233333324,0.8122419000000027
6.7644269999999365,-1.8526774999999907,0.8090504000000026
6.7644269999999365,-1.8526774999999904,0.8090504000000026
5.64739493333327,-1.622888033333324,0.6622404566666694
4.530362866666603,-1.3930985666666575,0.5154305133333361
3.4133307999999354,-1.1633090999999909,0.36862057000000287
3.4133307999999354,-1.1633090999999907,0.36862057000000287
3.445245999999935,-0.9526687666666573,0.35585449000000285
3.477161199999935,-0.7420284333333239,0.34308841000000284
3.5090763999999344,-0.5313880999999906,0.33032233000000283
3.5090763999999344,-0.5313880999999906,0.33032233000000283
3.6080134999999345,-0.6271336999999906,0.5569202533333363
3.7069505999999346,-0.7228792999999906,0.7835181766666696
3.8058876999999343,-0.8186248999999907,1.0101161000000027
3.8058876999999343,-0.8186248999999907,1.0101161000000027
5.120793966666601,-1.1792666666666574,0.9558602666666692
6.435700233333268,-1.5399084333333242,0.9016044333333358
7.750606499999935,-1.9005501999999908,0.8473486000000024
7.750606499999935,-1.9005501999999908,0.8473486000000024
10.163395999999937,-2.8580061333333244,1.5239508333333358
12.576185499999937,-3.8154620666666577,2.2005530666666693
14.988974999999934,-4.772917999999991,2.8771553000000023
14.988974999999934,-4.77291799999999,2.8771553000000023
15.604937999999938,-4.4761067333333235,4.185678633333336
16.22090099999994,-4.179295466666656,5.49420196666667
16.836863999999945,-3.8824841999999897,6.802725300000003
16.836863999999945,-3.8824841999999897,6.802725300000003
14.184710666666609,-3.378224066666656,5.950589333333338
11.532557333333273,-2.873963933333323,5.098453366666672
8.880403999999938,-2.3697037999999893,4.246317400000007
8.880403999999936,-2.3697037999999893,4.246317400000007
7.495284566666605,-2.7431116333333225,3.895250266666673
6.110165133333273,-3.116519466666656,3.544183133333339
4.72504569999994,-3.489927299999989,3.1931160000000047
4.43142579999994,-3.904824866666656,2.762260733333338
4.1378058999999405,-4.319722433333323,2.3314054666666713
3.8441859999999415,-4.73461999999999,1.9005502000000043
3.8441859999999415,-4.73461999999999,1.9005502000000043
3.8441859999999415,-4.73461999999999,1.9005502000000043
5.615479666666609,-4.779301333333323,2.0792753333333382
7.386773333333276,-4.823982666666656,2.258000466666672
9.158066999999944,-4.868663999999989,2.4367256000000057
11.960221666666607,-4.198444733333324,2.4303426000000057
14.762376333333274,-3.528225466666657,2.4239596000000057
17.564530999999942,-2.85800619999999,2.417576600000005
17.564530999999942,-2.85800619999999,2.417576600000005
18.22198399999994,-3.180349799999991,1.5782067733333385
18.87943699999994,-3.5026933999999907,0.7388369466666718
19.53688999999994,-3.8250369999999907,-0.10053287999999479
19.53688999999994,-3.82503699999999,-0.10053287999999479
17.574105333333268,-3.834611499999989,-0.15798024666666147
15.6113206666666,-3.8441859999999886,-0.21542761333332808
13.648535999999934,-3.853760499999988,-0.2728749799999947
13.648535999999934,-3.853760499999988,-0.2728749799999947
11.296385666666602,-3.4292883333333215,0.2664919133333386
8.94423533333327,-3.004816166666655,0.805858806666672
6.592084999999938,-2.580343999999988,1.3452257000000054
6.592084999999938,-2.580343999999988,1.3452257000000054
5.698459333333271,-2.1111905333333216,1.1633090666666719
4.804833666666603,-1.6420370666666553,0.9813924333333383
3.911207999999936,-1.1728835999999887,0.7994758000000051
3.911207999999936,-1.1728835999999887,0.7994758000000051
4.137805833333269,-0.8441570466666555,0.7579860333333382
4.364403666666602,-0.5154304933333221,0.7164962666666715
4.591001499999935,-0.18670393999998888,0.6750065000000047
4.591001499999934,-0.18670393999998888,0.6750065000000047
4.945260333333267,-0.6016015599999888,0.9175620333333381
5.2995191666666,-1.0164991799999887,1.1601175666666712
5.6537779999999325,-1.4313967999999886,1.4026731000000046
5.6537779999999325,-1.4313967999999886,1.4026731000000048
6.901662333333267,-2.0537432666666553,1.8526774000000052
8.1495466666666,-2.6760897333333222,2.3026817000000057
9.397430999999935,-3.2984361999999887,2.752686000000006
9.397430999999935,-3.2984361999999883,2.752686000000006
11.015531666666604,-3.5058849999999873,2.538854200000006
12.633632333333273,-3.7133337999999867,2.3250224000000057
14.25173299999994,-3.920782599999986,2.111190600000006
14.25173299999994,-3.920782599999986,2.111190600000006
13.836835333333275,-3.812270899999986,3.0877957333333383
13.421937666666608,-3.703759199999986,4.064400866666671
13.007039999999941,-3.5952474999999864,5.041006000000004
11.258087133333277,-3.3080106666666524,4.763343766666671
9.50913426666661,-3.020773833333319,4.485681533333338
7.760181399999943,-2.7335369999999855,4.208019300000005
7.760181399999943,-2.7335369999999855,4.208019300000005
7.760181399999943,-2.7335369999999855,4.208019300000005
6.355912499999942,-2.909070599999985,3.8729096666666716
4.951643599999941,-3.084604199999985,3.537800033333338
3.5473746999999407,-3.260137799999985,3.2026904000000047
4.182487133333274,-3.483544199999985,2.9888586000000044
4.817599566666607,-3.706950599999986,2.7750268000000045
5.452711999999941,-3.9303569999999866,2.5611950000000046
5.452711999999941,-3.9303569999999866,2.5611950000000046
5.452711999999941,-3.9303569999999866,2.5611950000000046
6.911236666666608,-3.547374566666653,2.5324713333333375
8.369761333333274,-3.1643921333333203,2.503747666666671
9.828285999999942,-2.781409699999987,2.4750240000000043
9.828285999999942,-2.781409699999987,2.475024000000004
12.975124999999942,-2.730345366666653,2.2643836333333374
16.12196399999994,-2.6792810333333192,2.053743266666671
19.26880299999994,-2.6282166999999856,1.8431029000000043
18.707095666666607,-2.9250281333333192,1.032456766666671
18.14538833333327,-3.2218395666666524,0.22181063333333761
17.583680999999935,-3.5186509999999855,-0.5888354999999957
17.58368099999993,-3.5186509999999855,-0.5888354999999957
15.435787666666599,-3.611205099999985,0.17712933333333758
13.287894333333265,-3.703759199999985,0.943094166666671
11.140000999999932,-3.796313299999985,1.7090590000000043
11.140000999999932,-3.796313299999985,1.7090590000000043
8.602742466666598,-3.1229025333333182,2.0090619000000043
6.065483933333264,-2.4494917666666516,2.3090648000000047
3.528225399999931,-1.7760809999999847,2.6090677000000047
3.528225399999931,-1.7760809999999847,2.6090677000000047
3.0399228666665974,-1.6611862666666515,2.1558718333333378
2.5516203333332643,-1.5462915333333183,1.7026759666666713
2.063317799999931,-1.431396799999985,1.2494801000000046
2.063317799999931,-1.431396799999985,1.2494801000000046
2.711196433333264,-1.271820799999985,1.2813953000000045
3.359075066666598,-1.112244799999985,1.3133105000000045
4.006953699999931,-0.9526687999999849,1.3452257000000045
4.006953699999932,-0.9526687999999849,1.3452257000000045
7.172941466666599,-1.0771380666666517,0.971817856666671
10.338929233333266,-1.2016073333333182,0.5984100133333375
13.504916999999935,-1.3260765999999848,0.22500217000000414
13.504916999999935,-1.3260765999999846,0.22500217000000414
14.114497333333269,-2.347363066666651,0.48351531333333747
14.724077666666602,-3.368649533333317,0.7420284566666707
15.333657999999936,-4.389935999999984,1.0005416000000042
15.933664333333269,-4.2814242333333175,1.7058675666666707
16.533670666666605,-4.172912466666651,2.4111935333333374
17.133676999999935,-4.064400699999985,3.1165195000000043
17.13367699999993,-4.064400699999985,3.1165195000000048
17.13367699999993,-4.064400699999985,3.1165195000000048
14.369820333333266,-3.3239680999999845,3.352692000000006
11.605963666666598,-2.5835354999999844,3.588864500000007
8.842106999999933,-1.8431028999999846,3.8250370000000076
6.6750646666666,-1.4633119899999845,3.419713900000007
4.508022333333267,-1.0835210799999846,3.014390800000007
2.340979999999934,-0.7037301699999846,2.609067700000007
2.340979999999934,-0.7037301699999846,2.6090677000000064
2.143105733333267,-1.2239479799999848,2.443108666666673
1.9452314666666002,-1.744165789999985,2.2771496333333396
1.7473571999999333,-2.264383599999985,2.1111906000000062
1.7473571999999333,-2.264383599999985,2.1111906000000062
2.5580032999999336,-2.309064899999985,2.573961066666673
3.3686493999999336,-2.353746199999985,3.0367315333333393
4.179295499999934,-2.398427499999985,3.4995020000000054
4.179295499999934,-2.398427499999985,3.4995020000000054
7.7059253333332665,-2.229276899999985,3.2792870666666722
11.2325551666666,-2.0601262999999848,3.059072133333339
14.759184999999933,-1.890975699999985,2.8388572000000054
14.759184999999933,-1.890975699999985,2.8388572000000054
16.370902333333266,-2.953751799999985,2.088849966666672
17.982619666666597,-4.016527899999985,1.3388427333333393
19.59433699999993,-5.079303999999985,0.5888355000000058
19.59433699999993,-5.079303999999986,0.5888355000000058
18.193259999999935,-4.875046666666653,0.5122390000000058
16.792182999999937,-4.67078933333332,0.43564250000000576
15.391105999999942,-4.466531999999987,0.3590460000000058
15.391105999999942,-4.466531999999987,0.3590460000000058
13.450661666666607,-3.6686521333333197,0.5186220133333391
11.510217333333273,-2.8707722666666533,0.6781980266666725
9.56977299999994,-2.072892399999987,0.8377740400000059
8.155929666666607,-1.9835298333333202,0.8601146733333392
6.7420863333332735,-1.8941672666666534,0.8824553066666727
5.328242999999941,-1.8048046999999865,0.9047959400000062
5.32824299999994,-1.8048046999999865,0.9047959400000062
5.210156733333274,-1.4026731333333198,1.0420313266666728
5.092070466666606,-1.0005415666666533,1.1792667133333394
4.97398419999994,-0.5984099999999866,1.316502100000006
4.97398419999994,-0.5984099999999866,1.3165021000000057
4.935685933333274,-0.7069216899999865,1.3069275333333392
4.8973876666666065,-0.8154333799999866,1.2973529666666723
4.859089399999939,-0.9239450699999865,1.2877784000000057
4.859089399999939,-0.9239450699999864,1.2877784000000054
4.897387666666606,-1.032456746666653,1.0420313333333389
4.935685933333273,-1.1409684233333197,0.7962842666666722
4.973984199999941,-1.2494800999999864,0.5505372000000054
4.973984199999941,-1.2494800999999864,0.5505372000000054
5.353775133333275,-1.271820766666653,0.13563959000000544
5.733566066666608,-1.2941614333333196,-0.27925801999999456
6.113356999999941,-1.3165020999999861,-0.6941556299999946
6.113356999999941,-1.3165020999999861,-0.6941556299999946
10.144246666666609,-2.9058791999999865,0.007978813333338794
14.175136333333276,-4.495256299999986,0.7101132566666721
18.20602599999994,-6.084633399999986,1.4122477000000053
18.28581399999994,-5.222922933333319,3.4388630000000053
18.365601999999942,-4.361212466666651,5.465478300000005
18.44538999999994,-3.499501999999984,7.492093600000007
18.445389999999936,-3.499501999999984,7.492093600000007
16.881545333333268,-1.8973588666666512,7.0612383000000065
15.317700666666601,-0.29521573333331785,6.630383000000006
13.753855999999933,1.3069274000000155,6.199527700000007
13.753855999999933,1.3069274000000155,6.199527700000007
11.3889395666666,0.4611745666666823,5.0952618000000065
9.024023133333268,-0.384578266666651,3.9909959000000064
6.659106699999936,-1.2303310999999841,2.886730000000006
6.659106699999936,-1.2303310999999841,2.886730000000006
6.52825433333327,-2.1718294999999843,2.3569376333333394
6.397401966666604,-3.113327899999984,1.8271452666666725
6.266549599999938,-4.054826299999984,1.297352900000006
6.266549599999938,-4.054826299999983,1.297352900000006
6.920811399999938,-3.7516319333333166,1.2303309666666724
7.575073199999938,-3.44843756666665,1.163309033333339
8.229334999999939,-3.145243199999983,1.0962871000000056
8.22933499999994,-3.145243199999983,1.0962871000000054
8.660189999999941,-3.07822126666665,1.1090532000000055
9.091044999999943,-3.0111993333333174,1.1218193000000054
9.521899999999944,-2.9441773999999845,1.1345854000000055
9.521899999999944,-2.9441773999999845,1.1345854000000057
9.975095999999942,-2.8548148666666506,1.3867155000000058
10.42829199999994,-2.7654523333333167,1.638845600000006
10.881487999999939,-2.6760897999999833,1.8909757000000063
11.155958666666606,-2.452683299999983,2.293107266666673
11.430429333333274,-2.229276799999983,2.69523883333334
11.704899999999943,-2.0058702999999833,3.0973704000000066
11.704899999999943,-2.0058702999999833,3.0973704000000075
11.704899999999943,-2.0058702999999833,3.0973704000000075
10.776167666666609,-1.507993199999983,2.6952388333333404
9.847435333333275,-1.010116099999983,2.293107266666674
8.918702999999942,-0.5122389999999829,1.8909757000000071
9.036789333333274,-0.9686263999999829,1.7696979333333402
9.154875666666607,-1.4250137999999828,1.6484201666666733
9.272961999999941,-1.881401199999983,1.5271424000000067
9.272961999999941,-1.881401199999983,1.5271424000000067
8.89317099999994,-1.9548061333333162,1.9420400333333399
8.513379999999941,-2.0282110666666493,2.3569376666666733
8.133588999999942,-2.101615999999983,2.7718353000000064
8.133588999999942,-2.1016159999999835,2.7718353000000064
8.136780666666608,-1.9675721666666501,2.506939100000007
8.139972333333274,-1.833528333333317,2.242042900000007
8.14316399999994,-1.6994844999999839,1.9771467000000076
8.14316399999994,-1.6994844999999839,1.9771467000000076
8.727212166666606,-1.8750180666666505,1.9292739000000079
9.311260333333273,-2.050551633333317,1.881401100000008
9.89530849999994,-2.2260851999999836,1.8335283000000082
9.89530849999994,-2.2260851999999836,1.8335283000000082
9.914457666666607,-2.28991566666665,1.894167200000008
9.933606833333274,-2.353746133333317,1.954806100000008
9.952755999999942,-2.417576599999984,2.015445000000008
9.952755999999942,-2.417576599999984,2.0154450000000086
9.959138999999942,-2.535662833333317,1.948423066666675
9.965521999999941,-2.65374906666665,1.8814011333333418
9.971904999999941,-2.771835299999983,1.8143792000000083
9.971904999999941,-2.771835299999983,1.8143792000000083
10.074033666666606,-2.8771554333333165,1.8399113666666749
10.176162333333274,-2.9824755666666505,1.8654435333333417
10.27829099999994,-3.0877956999999845,1.8909757000000083
10.262333333333276,-3.0399229333333175,1.977146800000008
10.246375666666607,-2.992050166666651,2.063317900000008
10.23041799999994,-2.9441773999999845,2.149489000000008
10.230417999999938,-2.9441773999999845,2.1494890000000084
10.10275699999994,-3.0909872666666502,2.095233100000008
9.975095999999942,-3.2377971333333164,2.0409772000000084
9.847434999999942,-3.3846069999999826,1.9867213000000084
9.847434999999944,-3.3846069999999826,1.9867213000000084
9.681475999999943,-3.343117266666649,2.1079991000000087
9.515516999999942,-3.3016275333333156,2.2292769000000088
9.349557999999941,-3.2601377999999825,2.3505547000000093
9.34955799999994,-3.2601377999999825,2.3505547000000093
