accx,accy,accz
-9.138918,-0.14840569,5.328243
-9.871372000000001,-0.100532885,5.184624499999999
-10.115523333333334,-0.08457528333333335,5.136751666666665
-10.603826,-0.052660080000000005,5.0410059999999985
-10.603826,-0.052660080000000005,5.0410059999999985
-10.753827333333334,-0.25053433666666663,4.922919866666665
-10.903828666666668,-0.44840859333333327,4.804833733333332
-11.05383,-0.64628285,4.6867475999999995
-11.05383,-0.64628285,4.6867475999999995
-10.776167666666668,-0.4739407533333333,4.5750443999999995
-10.498505333333336,-0.30159865666666663,4.4633411999999995
-10.220843000000004,-0.12925655999999996,4.351638
-10.220843000000004,-0.12925655999999996,4.351638
-9.968713000000003,-0.2888325733333333,4.262275333333332
-9.716583000000002,-0.44840858666666666,4.172912666666665
-9.464453,-0.6079846,4.083549999999998
-9.464453,-0.6079846,4.083549999999998
-9.234663500000002,-0.9909670333333334,3.9526976666666642
-9.004874000000001,-1.3739494666666667,3.821845333333331
-8.7750845,-1.7569319000000003,3.6909929999999975
-8.7750845,-1.7569319000000003,3.6909929999999975
-8.861255666666667,-1.8431029333333335,3.6367371333333307
-8.947426833333333,-1.929273966666667,3.582481266666664
-9.033598,-2.015445,3.528225399999997
-9.033598,-2.015445,3.528225399999997
-9.033598,-2.015445,3.528225399999997
-9.212323,-2.0505517333333336,3.34950033333333
-9.391048,-2.085658466666667,3.1707752666666633
-9.569773,-2.120765200000001,2.9920501999999964
-9.662327,-2.283532700000001,2.6888557333333303
-9.754881000000003,-2.446300200000001,2.385661266666664
-9.847435000000004,-2.609067700000001,2.0824667999999975
-9.847435000000006,-2.6090677000000007,2.0824667999999975
-9.716583000000005,-2.7016218000000003,1.8877840999999975
-9.585731000000006,-2.7941759000000004,1.6931013999999973
-9.454879000000007,-2.88673,1.4984186999999973
-9.454879000000007,-2.88673,1.4984186999999973
-9.454879000000007,-2.88673,1.4984186999999973
-9.37189933333334,-2.861197833333333,1.428205266666664
-9.288919666666674,-2.835665666666666,1.3579918333333307
-9.205940000000007,-2.810133499999999,1.2877783999999977
-9.324026333333341,-2.7877928666666656,1.2399055999999977
-9.442112666666674,-2.7654522333333325,1.1920327999999976
-9.560199000000006,-2.743111599999999,1.1441599999999974
-9.560199000000006,-2.743111599999999,1.1441599999999974
-9.301685666666673,-2.6920472666666657,1.0994786999999973
-9.04317233333334,-2.640982933333332,1.0547973999999973
-8.784659000000007,-2.589918599999999,1.0101160999999974
-8.784659000000007,-2.589918599999999,1.0101160999999974
-8.861255666666674,-2.583535566666665,0.9750093799999974
-8.93785233333334,-2.5771525333333316,0.9399026599999974
-9.014449000000008,-2.5707694999999986,0.9047959399999975
-9.014449000000008,-2.5707694999999986,0.9047959399999975
-9.164450333333342,-2.6090677333333323,0.8601146699999975
-9.314451666666676,-2.647365966666666,0.8154333999999975
-9.464453000000008,-2.6856641999999993,0.7707521299999974
-9.464453000000008,-2.6856641999999993,0.7707521299999974
-9.34317500000001,-2.596301666666666,0.8696892533333308
-9.221897000000011,-2.506939133333333,0.9686263766666642
-9.10061900000001,-2.4175766,1.0675634999999977
-8.822956833333343,-2.404810466666666,1.1250108666666643
-8.545294666666676,-2.3920443333333328,1.1824582333333309
-8.267632500000007,-2.3792781999999995,1.2399055999999975
-8.267632500000007,-2.3792781999999995,1.2399055999999975
-8.267632500000007,-2.3792781999999995,1.2399055999999975
-8.321888666666673,-2.423959466666666,1.3388426999999974
-8.37614483333334,-2.468640733333333,1.4377797999999975
-8.430401000000005,-2.513322,1.5367168999999974
-8.558061666666672,-2.475023833333333,1.6611861999999975
-8.68572233333334,-2.4367256666666663,1.7856554999999974
-8.813383000000005,-2.3984275,1.9101247999999975
-8.813383000000004,-2.3984275,1.9101247999999975
-8.76231866666667,-2.433534166666666,1.9548060999999974
-8.711254333333336,-2.4686408333333323,1.9994873999999976
-8.660190000000002,-2.503747499999999,2.044168699999997
-8.660190000000002,-2.503747499999999,2.044168699999997
-8.784659333333336,-2.6377913333333325,2.0186365333333303
-8.909128666666668,-2.771835166666666,1.9931043666666632
-9.033598,-2.905879,1.9675721999999967
-9.033598,-2.905879,1.9675721999999967
-9.068704666666667,-2.816516466666666,2.009061966666663
-9.103811333333335,-2.7271539333333323,2.0505517333333296
-9.138918000000004,-2.637791399999999,2.092041499999996
-9.138918000000006,-2.637791399999999,2.0920414999999957
-9.071896000000006,-2.6345998333333323,2.066509333333329
-9.004874000000006,-2.631408266666666,2.040977166666662
-8.937852000000008,-2.6282167,2.015444999999995
-8.937852000000008,-2.6282167000000003,2.015444999999995
-9.03678933333334,-2.7016217333333343,1.9388484999999946
-9.135726666666672,-2.775026766666668,1.8622519999999945
-9.234664000000004,-2.8484318000000015,1.7856554999999943
-9.237855333333336,-2.867580866666668,1.7696978999999944
-9.24104666666667,-2.886729933333335,1.7537402999999943
-9.244238000000003,-2.905879000000002,1.7377826999999941
-9.244238000000005,-2.905879000000002,1.737782699999994
-9.164450000000006,-2.8548146666666683,1.7569317999999938
-9.084662000000007,-2.803750333333335,1.7760808999999937
-9.00487400000001,-2.752686000000002,1.7952299999999937
-9.00487400000001,-2.752686000000002,1.7952299999999937
-8.982533333333345,-2.720770833333335,1.7601232999999936
-8.96019266666668,-2.6888556666666688,1.7250165999999936
-8.937852000000015,-2.6569405000000024,1.6899098999999935
-8.937852000000017,-2.6569405000000024,1.6899098999999935
-9.02083133333335,-2.6314083333333356,1.6548031666666603
-9.10381066666668,-2.6058761666666688,1.619696433333327
-9.186790000000013,-2.5803440000000015,1.584589699999994
-9.186790000000011,-2.5803440000000015,1.584589699999994
-9.18359900000001,-2.6665150666666677,1.4952271666666608
-9.180408000000009,-2.7526861333333343,1.4058646333333276
-9.177217000000008,-2.838857200000001,1.3165020999999943
-9.177217000000008,-2.838857200000001,1.3165020999999941
-9.116577666666677,-2.7973674666666675,1.3388427333333277
-9.055938333333344,-2.755877733333334,1.361183366666661
-8.995299000000012,-2.714388000000001,1.3835239999999944
-8.995299000000012,-2.714388000000001,1.3835239999999949
-8.947426333333345,-2.615450866666668,1.4473543999999947
-8.899553666666677,-2.5165137333333347,1.5111847999999946
-8.851681000000008,-2.4175766000000016,1.5750151999999946
-8.85806433333334,-2.411193566666668,1.5590575999999945
-8.864447666666672,-2.4048105333333347,1.5430999999999944
-8.870831000000004,-2.3984275000000017,1.5271423999999942
-8.870831000000004,-2.3984275000000017,1.5271423999999942
-8.870831000000004,-2.3984275000000017,1.5271423999999942
-8.861256333333339,-2.4654494333333346,1.5143763333333276
-8.851681666666673,-2.5324713666666674,1.5016102666666609
-8.842107000000007,-2.5994933000000002,1.4888441999999944
-8.838915333333341,-2.6058763,1.533525466666661
-8.835723666666675,-2.6122593000000003,1.5782067333333278
-8.83253200000001,-2.6186423000000003,1.6228879999999946
-8.83253200000001,-2.6186423000000008,1.622887999999995
-8.810191666666677,-2.6537490333333342,1.677143833333328
-8.787851333333345,-2.688855766666668,1.7313996666666611
-8.765511000000012,-2.723962500000002,1.7856554999999943
-8.765511000000014,-2.7239625000000025,1.7856554999999943
-8.861256333333348,-2.7271540000000023,1.8558689333333278
-8.957001666666681,-2.730345500000002,1.9260823666666609
-9.052747000000014,-2.733537000000002,1.9962957999999942
-9.052747000000014,-2.733537000000002,1.996295799999994
-9.154875666666682,-2.698430233333335,2.04097706666666
-9.25700433333335,-2.6633234666666685,2.085658333333327
-9.359133000000018,-2.6282167000000025,2.130339599999994
-9.35913300000002,-2.6282167000000025,2.1303395999999943
-9.336792000000019,-2.596301533333336,2.098424399999994
-9.31445100000002,-2.5643863666666697,2.066509199999994
-9.29211000000002,-2.532471200000003,2.0345939999999936
-9.29211000000002,-2.5324712000000034,2.034593999999993
-9.110193666666687,-2.5420458000000035,1.9675720999999935
-8.928277333333353,-2.551620400000003,1.9005501999999936
-8.74636100000002,-2.561195000000003,1.833528299999994
-8.74636100000002,-2.561195000000003,1.833528299999994
-8.66657300000002,-2.535662800000003,1.7409742333333273
-8.586785000000019,-2.510130600000003,1.6484201666666607
-8.506997000000018,-2.484598400000003,1.555866099999994
-8.708062666666684,-2.4941729333333367,1.476078099999994
-8.909128333333351,-2.5037474666666704,1.3962900999999939
-9.11019400000002,-2.513322000000004,1.316502099999994
-9.11019400000002,-2.513322000000004,1.316502099999994
-9.205939666666685,-2.542045766666671,1.3260766333333274
-9.301685333333351,-2.5707695333333374,1.3356511666666606
-9.397431000000017,-2.5994933000000042,1.345225699999994
-9.397431000000017,-2.5994933000000047,1.345225699999994
-9.237855000000017,-2.666515200000005,1.4282052666666605
-9.078279000000018,-2.7335371000000053,1.511184833333327
-8.91870300000002,-2.8005590000000056,1.594164399999994
-8.91870300000002,-2.8005590000000056,1.594164399999994
-8.810191333333352,-2.842048766666673,1.6867184333333274
-8.701679666666685,-2.88353853333334,1.7792724666666608
-8.593168000000018,-2.925028300000007,1.8718264999999945
-8.593168000000018,-2.925028300000007,1.8718264999999945
-8.68572233333335,-2.784601366666673,1.9484229999999945
-8.778276666666683,-2.6441744333333395,2.025019499999994
-8.870831000000015,-2.503747500000006,2.101615999999994
-8.870831000000015,-2.5037475000000065,2.101615999999994
-8.867639333333349,-2.55162033333334,1.9899127999999944
-8.864447666666683,-2.5994931666666736,1.8782095999999944
-8.861256000000017,-2.647366000000007,1.7665063999999944
-8.861256000000017,-2.647366000000007,1.7665063999999944
-8.813383000000016,-2.7048133333333406,1.6867183999999942
-8.765510000000015,-2.762260666666674,1.6069303999999942
-8.717637000000016,-2.8197080000000074,1.5271423999999942
-8.717637000000014,-2.8197080000000074,1.5271423999999942
-8.89317066666668,-2.8292826000000075,1.5558660666666608
-9.068704333333347,-2.838857200000007,1.5845897333333276
-9.244238000000013,-2.8484318000000073,1.6133133999999945
-9.244238000000013,-2.8484318000000073,1.6133133999999945
-9.314451666666681,-2.8197081000000073,1.657994666666661
-9.384665333333349,-2.7909844000000077,1.7026759333333275
-9.454879000000016,-2.7622607000000077,1.7473571999999942
-9.454879000000018,-2.7622607000000077,1.7473571999999942
-9.41019733333335,-2.6409829666666744,1.7473571999999942
-9.365515666666683,-2.5197052333333407,1.7473571999999942
-9.320834000000017,-2.3984275000000075,1.7473571999999942
-9.314451000000018,-2.4367256666666743,1.645228599999994
-9.308068000000018,-2.4750238333333408,1.5430999999999944
-9.301685000000019,-2.5133220000000076,1.4409713999999945
-9.301685000000019,-2.5133220000000076,1.4409713999999945
-9.301685000000019,-2.5133220000000076,1.4409713999999945
-9.199556333333353,-2.554811800000007,1.3611833666666613
-9.097427666666688,-2.596301600000007,1.2813953333333281
-8.995299000000022,-2.6377914000000064,1.2016072999999945
-8.995299000000022,-2.6377914000000064,1.2016072999999947
-8.992107666666689,-2.6633236000000067,1.1920327333333278
-8.988916333333355,-2.6888558000000065,1.1824581666666611
-8.985725000000022,-2.7143880000000067,1.1728835999999943
-8.969767333333357,-2.6377914666666733,1.2494800999999944
-8.953809666666691,-2.56119493333334,1.3260765999999944
-8.937852000000026,-2.4845984000000065,1.4026730999999941
-8.937852000000026,-2.4845984000000065,1.4026730999999941
-8.937852000000026,-2.4845984000000065,1.4026730999999941
-8.832532000000025,-2.3856612666666734,1.4856526333333278
-8.727212000000025,-2.2867241333333403,1.5686321666666612
-8.621892000000022,-2.1877870000000073,1.6516116999999948
-8.660190333333357,-2.2165107333333403,1.610121933333328
-8.698488666666693,-2.2452344666666733,1.5686321666666612
-8.736787000000026,-2.2739582000000063,1.5271423999999945
-8.736787000000028,-2.273958200000006,1.5271423999999945
-8.775085000000027,-2.3984274666666723,1.4473543999999945
-8.813383000000028,-2.5228967333333387,1.3675663999999943
-8.851681000000028,-2.6473660000000048,1.2877783999999943
-8.851681000000028,-2.6473660000000048,1.287778399999994
-8.937852000000028,-2.7207710000000045,1.2845868666666607
-9.024023000000028,-2.794176000000004,1.2813953333333272
-9.110194000000028,-2.8675810000000044,1.2782037999999936
-9.110194000000028,-2.8675810000000044,1.2782037999999936
-9.27615300000003,-2.7814099000000048,1.31969356666666
-9.44211200000003,-2.695238800000005,1.3611833333333265
-9.608071000000031,-2.6090677000000055,1.402673099999993
-9.608071000000031,-2.6090677000000055,1.402673099999993
-9.438920333333364,-2.567577933333338,1.3962900666666596
-9.269769666666697,-2.5260881666666712,1.3899070333333263
-9.10061900000003,-2.4845984000000043,1.383523999999993
-9.10061900000003,-2.4845984000000043,1.383523999999993
-9.097427666666697,-2.522896700000004,1.332459699999993
-9.094236333333363,-2.5611950000000037,1.2813953999999932
-9.09104500000003,-2.599493300000004,1.230331099999993
-9.09104500000003,-2.5994933000000033,1.2303310999999928
-9.167641333333362,-2.5963017333333367,1.255863199999993
-9.244237666666693,-2.59311016666667,1.281395299999993
-9.320834000000026,-2.5899186000000034,1.306927399999993
-9.320834000000026,-2.589918600000003,1.306927399999993
-9.017639666666694,-2.6154507333333363,1.2526715999999931
-8.71444533333336,-2.6409828666666697,1.1984157999999931
-8.411251000000028,-2.6665150000000026,1.1441599999999932
-8.411251000000028,-2.6665150000000026,1.1441599999999932
-8.379336000000029,-2.736728433333336,1.0899041466666597
-8.347421000000027,-2.8069418666666692,1.035648293333326
-8.315506000000028,-2.8771553000000023,0.9813924399999925
-8.315506000000028,-2.8771553000000023,0.9813924399999925
-8.768702000000028,-2.9537518000000023,0.9654348466666591
-9.22189800000003,-3.0303483000000018,0.9494772533333258
-9.67509400000003,-3.1069448000000013,0.9335196599999924
-9.831478333333363,-3.0303483000000018,1.0069246399999925
-9.987862666666695,-2.9537518000000023,1.0803296199999926
-10.144247000000028,-2.8771553000000023,1.1537345999999926
-10.144247000000028,-2.8771553000000023,1.1537345999999926
-10.144247000000028,-2.8771553000000023,1.1537345999999926
-9.866584666666695,-2.800558866666669,1.207990433333326
-9.58892233333336,-2.7239624333333357,1.2622462666666594
-9.311260000000026,-2.647366000000002,1.3165020999999928
-9.311260000000024,-2.647366000000002,1.3165020999999928
-9.116577333333357,-2.755877666666669,1.3133105333333261
-8.92189466666669,-2.8643893333333357,1.3101189666666595
-8.727212000000021,-2.9729010000000025,1.3069273999999929
-8.67614750000002,-2.9090705666666694,1.3707578333333261
-8.62508300000002,-2.8452401333333364,1.4345882666666594
-8.57401850000002,-2.7814097000000033,1.4984186999999929
-8.57401850000002,-2.7814097000000033,1.4984186999999929
-8.57401850000002,-2.7814097000000033,1.4984186999999929
-8.77189300000002,-2.7686436666666707,1.4760780666666593
-8.96976750000002,-2.7558776333333377,1.453737433333326
-9.16764200000002,-2.7431116000000046,1.4313967999999926
-9.16764200000002,-2.7431116000000046,1.4313967999999926
-9.557007333333353,-2.822899566666671,1.3899069999999927
-9.946372666666685,-2.9026875333333373,1.3484171999999928
-10.335738000000019,-2.9824755000000036,1.3069273999999929
-10.335738000000019,-2.9824755000000036,1.3069273999999929
-10.594251333333352,-2.883538400000004,1.4026730666666596
-10.852764666666685,-2.784601300000004,1.4984187333333259
-11.111278000000018,-2.6856642000000037,1.5941643999999924
-11.111278000000018,-2.6856642000000037,1.5941643999999922
-11.634687000000019,-2.522896700000004,1.6962929999999918
-12.15809600000002,-2.3601292000000043,1.7984215999999915
-12.681505000000021,-2.197361700000004,1.9005501999999914
-12.681505000000021,-2.197361700000004,1.9005501999999914
-13.224063333333353,-2.0154450333333376,1.6835268333333246
-13.766621666666685,-1.8335283666666709,1.4665034666666579
-14.309180000000017,-1.6516117000000043,1.2494800999999913
-14.309180000000017,-1.6516117000000043,1.2494800999999913
-12.882570666666686,-0.7484115000000043,0.9973500166666577
-11.455961333333354,0.15478869999999567,0.7452199333333244
-10.029352000000022,1.0579888999999956,0.49308984999999095
-10.029352000000022,1.0579888999999956,0.49308984999999095
-9.030406200000021,1.3356511666666624,0.5154304866666576
-8.03146040000002,1.6133134333333292,0.5377711233333242
-7.03251460000002,1.890975699999996,0.5601117599999909
-7.03251460000002,1.890975699999996,0.5601117599999909
-7.520817066666687,1.233522544999996,0.39415272133332424
-8.009119533333354,0.576069389999996,0.22819368266665763
-8.497422000000022,-0.081383765000004,0.06223464399999098
-8.497422000000022,-0.081383765000004,0.06223464399999098
-8.07294990000002,-0.611176110000004,0.2856410626666577
-7.648477800000021,-1.140968455000004,0.5090474813333243
-7.224005700000021,-1.6707608000000043,0.732453899999991
-7.224005700000021,-1.6707608000000043,0.7324538999999909
-6.904853666666688,-1.5941643333333377,0.8760722999999908
-6.585701633333355,-1.5175678666666712,1.0196906999999908
-6.2665496000000225,-1.4409714000000047,1.1633090999999907
-6.2665496000000225,-1.4409714000000047,1.1633090999999907
-6.623999933333355,-1.2016073666666711,1.2782037999999905
-6.9814502666666876,-0.9622433333333379,1.3930984999999902
-7.33890060000002,-0.7228793000000047,1.50799319999999
-7.33890060000002,-0.7228793000000048,1.50799319999999
-8.666573066666688,-0.9973500333333382,1.6165048999999903
-9.994245533333354,-1.2718207666666717,1.7250165999999905
-11.32191800000002,-1.546291500000005,1.8335282999999907
-11.32191800000002,-1.5462915000000048,1.8335282999999907
-12.158096333333352,-1.9548061000000043,1.7665063666666574
-12.994274666666684,-2.363320700000004,1.6994844333333239
-13.830453000000015,-2.7718353000000033,1.6324624999999904
-13.830453000000015,-2.7718353000000033,1.6324624999999904
-14.152796333333349,-3.0048162666666705,1.702675966666657
-14.475139666666683,-3.237797233333337,1.7728894333333238
-14.797483000000016,-3.470778200000004,1.8431028999999903
-14.797483000000016,-3.470778200000004,1.8431028999999903
-12.55384433333335,-3.295244600000004,1.8494859333333238
-10.310205666666683,-3.119711000000004,1.855868966666657
-8.066567000000015,-2.944177400000004,1.8622519999999902
-8.066567000000015,-2.944177400000003,1.8622519999999902
-7.728266000000016,-2.790984400000003,1.7665063999999904
-7.389965000000015,-2.6377914000000025,1.6707607999999905
-7.051664000000016,-2.4845984000000025,1.5750151999999906
-7.051664000000016,-2.484598400000003,1.5750151999999906
-7.41549733333335,-2.2484259333333365,1.530333933333324
-7.779330666666684,-2.0122534666666696,1.485652666666657
-8.143164000000018,-1.7760810000000031,1.44097139999999
-8.14316400000002,-1.7760810000000031,1.4409713999999898
-8.034652133333353,-1.4601205000000033,1.5207593999999898
-7.926140266666685,-1.1441600000000034,1.60054739999999
-7.817628400000018,-0.8281995000000033,1.68033539999999
-7.616562700000017,-0.9782009333333366,1.5622491333333235
-7.415497000000016,-1.1282023666666696,1.444162866666657
-7.214431300000015,-1.2782038000000029,1.3260765999999906
-7.214431300000015,-1.2782038000000029,1.3260765999999906
-7.214431300000015,-1.2782038000000029,1.3260765999999906
-8.325080200000018,-1.5558660666666697,1.1154362766666572
-9.43572910000002,-1.8335283333333365,0.9047959533333237
-10.54637800000002,-2.1111906000000036,0.6941556299999903
-11.424046000000018,-2.1845955333333364,0.5281965799999903
-12.301714000000018,-2.2580004666666693,0.36223752999999026
-13.179382000000018,-2.3314054000000026,0.19627847999999024
-13.179382000000018,-2.3314054000000026,0.19627847999999024
-13.134701000000016,-1.9643806333333362,0.30479018666665686
-13.090020000000015,-1.5973558666666694,0.4133018933333235
-13.045339000000013,-1.2303311000000028,0.5218135999999902
-13.045339000000013,-1.2303311000000028,0.5218135999999902
-13.045339000000013,-1.2303311000000028,0.5218135999999902
-10.919786333333347,-0.9239451333333362,1.0675634999999903
-8.79423366666668,-0.6175591666666694,1.6133133999999902
-6.668681000000014,-0.31117320000000276,2.1590632999999904
-7.150600666666681,-0.2473428033333361,2.1399141999999904
-7.632520333333349,-0.18351240666666943,2.1207650999999905
-8.114440000000016,-0.11968201000000277,2.1016159999999906
-8.114440000000016,-0.11968201000000277,2.1016159999999906
-7.945289466666682,-0.6111761400000028,2.21331919999999
-7.776138933333347,-1.1026702700000026,2.3250223999999897
-7.606988400000013,-1.5941644000000028,2.4367255999999897
-7.606988400000013,-1.5941644000000028,2.4367255999999893
-7.405922600000014,-1.6931015000000027,2.4494917333333226
-7.204856800000013,-1.7920386000000026,2.4622578666666564
-7.003791000000014,-1.8909757000000027,2.4750239999999897
-7.003791000000014,-1.8909757000000027,2.4750239999999897
-8.041035000000013,-1.7186336000000024,2.3345970333333232
-9.078279000000014,-1.5462915000000024,2.194170066666657
-10.115523000000012,-1.3739494000000023,2.0537430999999904
-10.115523000000014,-1.3739494000000023,2.053743099999991
-11.037872333333349,-1.6388456000000025,1.7888469666666573
-11.960221666666683,-1.9037418000000026,1.523950833333324
-12.882571000000018,-2.1686380000000027,1.2590546999999905
-12.882571000000018,-2.168638000000003,1.2590546999999905
-13.093211333333352,-2.5420458333333364,1.2973529333333238
-13.303851666666688,-2.9154536666666697,1.335651166666657
-13.514492000000024,-3.288861500000003,1.3739493999999903
-13.514492000000024,-3.288861500000003,1.3739493999999903
-12.027243666666687,-3.4324799333333367,1.5175678333333238
-10.539995333333353,-3.5760983666666704,1.6611862666666573
-9.05274700000002,-3.719716800000004,1.8048046999999905
-9.05274700000002,-3.719716800000004,1.8048046999999905
-8.558061333333352,-3.4867358666666703,1.5175678666666572
-8.063375666666685,-3.2537549333333367,1.230331033333324
-7.568690000000019,-3.020774000000003,0.9430941999999906
-7.568690000000019,-3.020774000000003,0.9430941999999906
-8.095291000000019,-2.7558777333333366,0.9590518133333239
-8.621892000000019,-2.49098146666667,0.9750094266666572
-9.148493000000018,-2.226085200000003,0.9909670399999907
-9.148493000000018,-2.2260852000000035,0.9909670399999907
-8.813383333333352,-1.8143791466666699,1.4345883599999907
-8.478273666666686,-1.4026730933333365,1.8782096799999908
-8.143164000000022,-0.9909670400000029,2.321830999999991
-8.114440333333354,-1.0420313600000028,2.2484259999999914
-8.085716666666686,-1.093095680000003,2.1750209999999917
-8.05699300000002,-1.144160000000003,2.1016159999999915
-8.05699300000002,-1.144160000000003,2.1016159999999915
-8.05699300000002,-1.144160000000003,2.1016159999999915
-9.317643333333352,-1.287778400000003,1.788847033333325
-10.578293666666687,-1.4313968000000028,1.4760780666666584
-11.83894400000002,-1.5750152000000028,1.163309099999992
-11.83894400000002,-1.5750152000000028,1.163309099999992
-12.285756666666686,-1.702676000000003,1.0164991666666585
-12.732569333333354,-1.830336800000003,0.8696892333333249
-13.179382000000023,-1.9579976000000032,0.7228792999999915
-13.179382000000023,-1.9579976000000032,0.7228792999999915
-13.179382000000023,-1.9579976000000032,0.7228792999999915
-13.179382000000023,-1.9579976000000032,0.7228792999999915
-13.179382000000023,-1.9579976000000032,0.7228792999999915
-10.986807766666692,-1.5558660666666697,1.2207564666666582
-8.794233533333358,-1.1537345333333364,1.718633633333325
-6.601659300000024,-0.7516030000000029,2.2165107999999916
-6.601659300000023,-0.7516030000000029,2.2165107999999916
-7.204856533333356,-0.7739436333333364,2.197361633333325
-7.8080537666666885,-0.7962842666666697,2.178212466666658
-8.411251000000021,-0.8186249000000032,2.1590632999999912
-8.411251000000021,-0.8186249000000032,2.1590632999999912
-8.353804000000023,-1.1824582000000032,2.4271510333333253
-8.296357000000022,-1.5462915000000033,2.695238766666659
-8.23891000000002,-1.9101248000000035,2.9633264999999924
-8.23891000000002,-1.9101248000000035,2.9633264999999924
-7.999545766666686,-2.00267886666667,2.9473688999999923
-7.760181533333353,-2.095232933333337,2.931411299999992
-7.52081730000002,-2.1877870000000037,2.915453699999992
-7.520817300000021,-2.1877870000000037,2.915453699999992
-7.520817300000021,-2.1877870000000037,2.915453699999992
-7.651669666666689,-2.2452343333333373,2.615450799999992
-7.782522033333358,-2.3026816666666705,2.3154478999999917
-7.913374400000026,-2.360129000000004,2.0154449999999913
-8.711254266666693,-2.283532533333337,1.9260823999999914
-9.50913413333336,-2.2069360666666697,1.8367197999999914
-10.307014000000025,-2.1303396000000028,1.7473571999999915
-10.307014000000025,-2.1303396000000023,1.7473571999999915
-11.092128000000026,-2.178212466666669,1.670760766666658
-11.877242000000026,-2.226085333333336,1.5941643333333246
-12.662356000000026,-2.2739582000000023,1.5175678999999913
-12.662356000000026,-2.2739582000000023,1.5175678999999913
-12.662356000000026,-2.2739582000000023,1.5175678999999913
-12.959167666666692,-2.9314112666666694,1.6643777999999916
-13.255979333333357,-3.588864333333337,1.8111876999999919
-13.552791000000022,-4.246317400000005,1.9579975999999923
-11.341067233333357,-4.121848200000003,1.8079961333333252
-9.129343466666691,-3.9973790000000022,1.6579946666666583
-6.917619700000027,-3.872909800000002,1.5079931999999914
-6.917619700000027,-3.872909800000002,1.5079931999999914
-7.335708800000027,-3.4037563000000017,1.3133104899999914
-7.753797900000027,-2.9346028000000017,1.1186277799999917
-8.171887000000028,-2.4654493000000013,0.9239450699999919
-8.171887000000028,-2.4654493000000013,0.9239450699999919
-8.321888666666695,-2.1175736000000014,1.2303310133333252
-8.471890333333363,-1.7696979000000013,1.5367169566666583
-8.621892000000031,-1.4218222000000011,1.8431028999999917
-8.621892000000033,-1.4218222000000011,1.8431028999999917
-8.194228200000031,-1.105861710000001,2.155871833333325
-7.766564400000032,-0.7899012200000008,2.468640766666658
-7.338900600000032,-0.47394073000000075,2.781409699999991
-7.338900600000032,-0.47394073000000075,2.7814096999999904
-8.159121066666698,-0.8345825200000009,2.401618866666657
-8.979341533333365,-1.195224310000001,2.021828033333324
-9.799562000000032,-1.5558661000000011,1.6420371999999903
-9.79956200000003,-1.5558661000000011,1.6420371999999903
-11.063404000000029,-1.705867500000001,1.2335225999999906
-12.327246000000029,-1.855868900000001,0.8250079999999906
-13.591088000000028,-2.005870300000001,0.4164933999999907
-13.591088000000028,-2.0058703000000015,0.4164933999999907
-13.575130666666695,-1.9101247666666683,0.3781951566666573
-13.559173333333362,-1.8143792333333348,0.339896913333324
-13.54321600000003,-1.7186337000000016,0.30159866999999063
-13.54321600000003,-1.7186337000000016,0.30159866999999063
-11.685751133333362,-1.2430971666666684,0.438834033333324
-9.828286266666694,-0.767560633333335,0.5760693966666574
-7.970821400000027,-0.2920241000000016,0.7133047599999905
-7.970821400000027,-0.2920241000000016,0.7133047599999905
-7.798479400000026,-0.39096123333333493,0.9111789733333241
-7.626137400000026,-0.4898983666666683,1.1090531866666575
-7.4537954000000255,-0.5888355000000017,1.306927399999991
-7.4537954000000255,-0.5888355000000017,1.306927399999991
-7.788905266666692,-1.0037331000000016,1.3867154333333245
-8.124015133333359,-1.4186307000000016,1.4665034666666577
-8.459125000000025,-1.8335283000000018,1.5462914999999908
-7.903800133333358,-1.7345911666666682,2.0026788999999905
-7.348475266666692,-1.635654033333335,2.4590662999999906
-6.793150400000026,-1.5367169000000016,2.9154536999999903
-6.793150400000026,-1.5367169000000016,2.9154536999999903
-6.793150400000026,-1.5367169000000016,2.9154536999999903
-6.984641700000026,-1.5079932333333348,2.6314083999999904
-7.176133000000026,-1.479269566666668,2.34736309999999
-7.367624300000027,-1.4505459000000014,2.06331779999999
-7.367624300000027,-1.4505459000000014,2.06331779999999
-8.331463533333359,-1.7090590000000017,1.9643806666666566
-9.295302766666692,-1.9675721000000017,1.8654435333333232
-10.259142000000027,-2.2260852000000018,1.76650639999999
-10.259142000000027,-2.2260852000000018,1.76650639999999
-11.18149133333336,-2.206936133333335,1.6165049666666567
-12.103840666666693,-2.1877870666666683,1.4665035333333234
-13.026190000000028,-2.1686380000000014,1.3165020999999901
-13.026190000000028,-2.1686380000000014,1.3165020999999901
-13.705983666666695,-2.6314083666666686,1.3292681666666566
-14.38577733333336,-3.0941787333333353,1.3420342333333233
-15.065571000000027,-3.5569491000000024,1.35480029999999
-12.911294666666693,-3.7643979000000023,1.3420342333333233
-10.757018333333361,-3.971846700000002,1.3292681666666566
-8.602742000000028,-4.179295500000002,1.3165020999999901
-8.602742000000028,-4.179295500000003,1.3165020999999901
-8.254866466666696,-3.879292633333336,1.1090532766666568
-7.906990933333364,-3.5792897666666694,0.9016044533333233
-7.559115400000032,-3.279286900000003,0.6941556299999899
-7.559115400000032,-3.279286900000004,0.6941556299999899
-7.75060660000003,-2.746303066666671,0.7484114733333233
-7.94209780000003,-2.213319233333338,0.8026673166666566
-8.133589000000029,-1.6803354000000044,0.8569231599999899
-8.133589000000029,-1.6803354000000044,0.8569231599999899
-8.133589000000029,-1.6803354000000044,0.8569231599999899
-7.677201666666696,-1.2271395200000044,1.357991773333323
-7.2208143333333625,-0.7739436400000045,1.8590603866666564
-6.76442700000003,-0.32074776000000454,2.3601289999999895
-7.32294300000003,-0.6750065066666712,2.2037445666666557
-7.881459000000029,-1.0292652533333377,2.0473601333333225
-8.439975000000029,-1.3835240000000046,1.890975699999989
-8.439975000000029,-1.3835240000000049,1.890975699999989
-9.684667666666694,-1.830336833333338,1.5303339333333223
-10.929360333333358,-2.2771496666666717,1.1696921666666558
-12.174053000000024,-2.7239625000000056,0.8090503999999891
-12.174053000000024,-2.723962500000006,0.8090503999999891
-12.174053000000024,-2.723962500000006,0.8090503999999891
-12.805974333333358,-2.6218338666666727,0.6877726233333225
-13.43789566666669,-2.5197052333333394,0.5664948466666558
-14.069817000000024,-2.417576600000006,0.44521706999998917
-13.19853166666669,-1.9611891666666725,0.39415274666665584
-12.327246333333358,-1.5048017333333394,0.34308842333332246
-11.455961000000025,-1.0484143000000061,0.2920240999999891
-11.455961000000025,-1.0484143000000061,0.2920240999999891
-11.455961000000025,-1.0484143000000061,0.2920240999999891
-10.058075433333357,-0.5250050000000062,0.8856468666666558
-8.66018986666669,-0.001595700000006195,1.4792696333333224
-7.262304300000021,0.5218135999999938,2.072892399999989
-6.994216533333354,0.2920241299999938,2.2260853333333226
-6.726128766666688,0.062234659999993815,2.3792782666666557
-6.458041000000022,-0.16755481000000616,2.5324711999999887
-6.458041000000022,-0.16755481000000616,2.5324711999999887
-6.486764666666687,-0.7675606066666728,2.3441715333333217
-6.515488333333354,-1.3675664033333392,2.1558718666666548
-6.54421200000002,-1.9675722000000058,1.967572199999988
-6.54421200000002,-1.9675722000000058,1.967572199999988
-6.917620000000021,-2.1814040333333393,1.7792724999999878
-7.291028000000021,-2.3952358666666727,1.5909727999999879
-7.664436000000021,-2.6090677000000055,1.402673099999988
-7.664436000000021,-2.6090677000000055,1.4026730999999881
-8.845298333333353,-2.4590662333333384,1.4696950333333216
-10.026160666666685,-2.3090647666666713,1.5367169666666551
-11.207023000000019,-2.1590633000000046,1.6037388999999884
-11.207023000000019,-2.1590633000000046,1.6037388999999884
-11.851710333333351,-2.0856583666666713,1.6324625666666552
-12.496397666666683,-2.0122534333333384,1.661186233333322
-13.141085000000016,-1.9388485000000049,1.6899098999999886
-13.141085000000013,-1.9388485000000049,1.6899098999999886
-13.776197333333348,-2.2962987333333382,1.3867154866666553
-14.411309666666682,-2.653748966666672,1.0835210733333223
-15.046422000000016,-3.0111992000000054,0.780326659999989
-15.046422000000016,-3.0111992000000054,0.780326659999989
-12.90172033333335,-3.304819066666672,0.8920298733333224
-10.757018666666681,-3.598438933333339,1.0037330866666556
-8.612317000000013,-3.892058800000006,1.115436299999989
-8.612317000000013,-3.892058800000006,1.115436299999989
-8.427209000000014,-3.697376066666672,0.8792638066666555
-8.242101000000014,-3.502693333333338,0.6430913133333221
-8.056993000000015,-3.3080106000000042,0.40691881999998886
-8.056993000000015,-3.3080106000000042,0.40691881999998886
-8.36337883333335,-2.8005589000000044,0.6845810799999889
-8.669764666666685,-2.293107200000005,0.9622433399999889
-8.976150500000019,-1.7856555000000054,1.2399055999999888
-8.976150500000019,-1.7856555000000054,1.2399055999999886
-8.302739766666685,-1.3675663666666722,1.6579947333333218
-7.629329033333351,-0.9494772333333389,2.076083866666655
-6.955918300000017,-0.5313881000000056,2.494172999999988
-6.955918300000017,-0.5313881000000055,2.494172999999988
-6.397402200000016,-0.7324538666666722,2.350554599999988
-5.838886100000015,-0.9335196333333388,2.2069361999999884
-5.280370000000015,-1.1345854000000053,2.063317799999988
-5.915482533333349,-1.4505458666666724,1.635654086666655
-6.550595066666683,-1.766506333333339,1.2079903733333215
-7.1857076000000175,-2.0824668000000055,0.7803266599999882
-7.1857076000000175,-2.0824668000000055,0.7803266599999882
-7.1857076000000175,-2.0824668000000055,0.7803266599999882
-8.70806273333335,-2.254808966666672,0.8090503399999882
-10.230417866666683,-2.427151133333339,0.8377740199999882
-11.752773000000014,-2.5994933000000056,0.8664976999999882
-12.537887000000014,-2.455874866666672,1.0675634666666547
-13.323001000000014,-2.312256433333339,1.2686292333333213
-14.108115000000014,-2.168638000000006,1.469694999999988
-14.108115000000014,-2.1686380000000063,1.469694999999988
-13.077254000000016,-2.4239595666666727,1.5622490666666546
-12.046393000000016,-2.67928113333334,1.6548031333333213
-11.015532000000016,-2.934602700000007,1.747357199999988
-11.015532000000016,-2.9346027000000077,1.747357199999988
-10.964467666666684,-2.561194866666674,1.5462914666666547
-10.913403333333349,-2.1877870333333407,1.3452257333333215
-10.862339000000015,-1.8143792000000074,1.1441599999999885
-10.862339000000015,-1.8143792000000074,1.1441599999999885
-10.862339000000015,-1.8143792000000074,1.1441599999999885
-10.61978333333335,-1.380332466666674,1.2494801333333216
-10.377227666666684,-0.9462857333333407,1.354800266666655
-10.134672000000018,-0.5122390000000073,1.4601203999999883
-9.837860666666684,-0.6016015533333405,1.1728835999999883
-9.54104933333335,-0.6909641066666738,0.8856467999999884
-9.244238000000017,-0.7803266600000072,0.5984099999999883
-9.244238000000019,-0.7803266600000072,0.5984099999999883
-8.574018866666686,-0.9367111400000073,0.5856439199999883
-7.903799733333352,-1.0930956200000075,0.5728778399999883
-7.2335806000000185,-1.2494801000000075,0.5601117599999883
-7.2335806000000185,-1.2494801000000075,0.5601117599999883
-7.077196066666686,-1.1441599533333406,0.352662958666655
-6.920811533333353,-1.038839806666674,0.14521415733332166
-6.76442700000002,-0.9335196600000071,-0.06223464400001166
-6.76442700000002,-0.9335196600000071,-0.06223464400001166
-6.872938666666687,-1.0962871733333406,0.00797880066665501
-6.981450333333353,-1.2590546866666739,0.07819224533332168
-7.0899620000000185,-1.4218222000000074,0.14840568999998835
-7.0899620000000185,-1.4218222000000074,0.14840568999998835
-6.9112369333333525,-1.523950866666674,0.33989689333332174
-6.7325118666666866,-1.6260795333333407,0.5313880966666551
-6.55378680000002,-1.7282082000000072,0.7228792999999883
-6.55378680000002,-1.7282082000000072,0.7228792999999886
-6.9623013000000205,-1.8207622333333406,0.7835181799999885
-7.37081580000002,-1.9133162666666743,0.8441570599999885
-7.77933030000002,-2.0058703000000078,0.9047959399999884
-7.779330300000022,-2.005870300000008,0.9047959399999884
-8.280399033333355,-2.1431057333333414,0.9877754933333217
-8.781467766666688,-2.280341166666675,1.070755046666655
-9.282536500000022,-2.4175766000000087,1.1537345999999886
-9.282536500000022,-2.4175766000000087,1.1537345999999886
-9.62722066666669,-2.503747666666675,1.3930985666666553
-9.971904833333356,-2.5899187333333415,1.632462533333322
-10.316589000000024,-2.676089800000008,1.8718264999999887
-10.316589000000024,-2.676089800000008,1.8718264999999887
-10.808083000000025,-2.672898200000008,2.060126199999989
-11.299577000000026,-2.6697066000000085,2.248425899999989
-11.791071000000025,-2.666515000000009,2.436725599999989
-11.791071000000025,-2.666515000000009,2.436725599999989
-11.791071000000025,-2.666515000000009,2.436725599999989
-11.791071000000025,-2.666515000000009,2.436725599999989
-11.791071000000025,-2.666515000000009,2.436725599999989
-11.791071000000025,-2.666515000000009,2.436725599999989
-11.452770000000024,-2.5867270000000087,2.318639333333322
-11.114469000000023,-2.5069390000000085,2.200553066666655
-10.776168000000022,-2.4271510000000087,2.0824667999999886
-10.434675333333354,-2.350554566666675,2.136722699999988
-10.093182666666687,-2.2739581333333416,2.1909785999999882
-9.75169000000002,-2.1973617000000085,2.245234499999988
-9.75169000000002,-2.1973617000000085,2.245234499999988
-8.851681333333351,-2.021828066666675,2.2260853333333213
-7.951672666666685,-1.8462944333333418,2.2069361666666545
-7.0516640000000175,-1.6707608000000083,2.1877869999999877
-7.0516640000000175,-1.6707608000000083,2.1877869999999877
-7.361241433333352,-1.8143792000000083,2.0697007666666543
-7.6708188666666866,-1.9579976000000083,1.9516145333333206
-7.980396300000021,-2.1016160000000084,1.8335282999999871
-7.980396300000021,-2.1016160000000084,1.8335282999999871
-7.980396300000021,-2.1016160000000084,1.8335282999999871
-9.05913020000002,-2.1654464333333414,2.0569346999999873
-10.137864100000018,-2.2292768666666745,2.2803410999999874
-11.216598000000017,-2.2931073000000075,2.5037474999999874
-11.972988000000017,-2.459066333333341,2.506938999999987
-12.729378000000018,-2.6250253666666743,2.510130499999988
-13.48576800000002,-2.7909844000000077,2.513321999999988
-13.48576800000002,-2.7909844000000077,2.513321999999988
-13.453853000000018,-2.909070666666674,1.9899127333333215
-13.421938000000019,-3.027156933333341,1.466503466666655
-13.390023000000019,-3.145243200000008,0.9430941999999883
-13.390023000000019,-3.145243200000008,0.9430941999999883
-13.390023000000019,-3.145243200000008,0.9430941999999883
-12.544270000000019,-2.229276886666675,0.3590459999999884
-11.698517000000018,-1.3133105733333414,-0.22500220000001162
-10.85276400000002,-0.3973442600000081,-0.8090504000000115
-10.211268666666685,-0.34627994000000806,-0.7771351866666781
-9.569773333333352,-0.29521562000000806,-0.745219973333345
-8.928278000000018,-0.24415130000000806,-0.7133047600000118
-8.928278000000018,-0.24415130000000806,-0.7133047600000119
-8.928278000000018,-0.24415130000000806,-0.7133047600000119
-8.420826133333351,-0.7611775333333415,-0.3462799400000119
-7.913374266666686,-1.2782037666666748,0.020744879999988086
-7.40592240000002,-1.7952300000000079,0.38776969999998806
-7.249537933333353,-1.7984215666666745,0.3367053766666548
-7.093153466666685,-1.8016131333333412,0.2856410533333214
-6.936769000000017,-1.8048047000000078,0.23457672999998805
-6.936769000000017,-1.8048047000000078,0.23457672999998805
-7.511242666666685,-1.192032813333341,1.1505429866666546
-8.085716333333352,-0.5792609266666743,2.0665092433333214
-8.66019000000002,0.033510959999992394,2.9824754999999876
-8.66019000000002,0.033510959999992394,2.9824754999999876
-8.64742400000002,0.38138667333332577,2.979283999999988
-8.634658000000021,0.7292623866666591,2.976092499999988
-8.621892000000022,1.0771380999999927,2.9729009999999882
-8.621892000000022,1.0771380999999927,2.9729009999999882
-9.247430000000024,0.0335110333333258,2.4686407999999886
-9.872968000000025,-1.010116033333341,1.9643805999999888
-10.498506000000026,-2.0537431000000077,1.4601203999999892
-10.498506000000027,-2.0537431000000073,1.4601203999999892
-10.498506000000027,-2.0537431000000073,1.4601203999999892
-10.894254333333363,-2.8548147333333405,0.9271365599999891
-11.290002666666696,-3.655886366666674,0.3941527199999892
-11.685751000000032,-4.456958000000007,-0.13883112000001088
-10.437866566666697,-4.728237100000007,-0.9750094133333441
-9.189982133333364,-4.999516200000007,-1.8111877066666775
-7.942097700000033,-5.270795300000007,-2.647366000000011
-7.9420977000000335,-5.270795300000007,-2.6473660000000105
-7.9420977000000335,-5.270795300000007,-2.6473660000000105
-7.9963534666667,-5.085687200000007,-2.669706666666677
-8.050609233333368,-4.900579100000008,-2.6920473333333437
-8.104865000000034,-4.715471000000008,-2.7143880000000102
-8.104865000000034,-4.715471000000008,-2.7143880000000102
-8.538911666666701,-4.539937466666674,-2.0856585000000103
-8.972958333333368,-4.36440393333334,-1.4569290000000106
-9.407005000000035,-4.188870400000006,-0.8281995000000107
-9.802753666666703,-4.022911266666672,-0.4228764333333439
-10.198502333333371,-3.856952133333339,-0.01755336666667721
-10.594251000000037,-3.690993000000006,0.3877696999999895
-10.594251000000037,-3.690993000000006,0.3877696999999895
-10.594251000000037,-3.690993000000006,0.3877696999999895
-11.90915733333337,-2.7941758666666723,0.49628138666665617
-13.224063666666703,-1.8973587333333388,0.6047930733333228
-14.538970000000036,-1.0005416000000056,0.7133047599999894
-14.538970000000036,-1.0005416000000054,0.7133047599999894
-14.420883666666704,0.30159859999999467,1.2143734399999895
-14.302797333333372,1.6037387999999948,1.7154421199999896
-14.184711000000037,2.9058789999999948,2.21651079999999
-14.184711000000037,2.9058789999999948,2.2165107999999893
-13.428321000000038,2.277149533333328,1.2207564899999894
-12.671931000000036,1.6484200666666613,0.22500217999998937
-11.915541000000035,1.0196905999999946,-0.7707521300000106
-11.915541000000035,1.0196905999999946,-0.7707521300000106
-11.274045333333369,0.3494713866666613,-1.112244753333344
-10.632549666666703,-0.320747826666672,-1.4537373766666775
-9.991054000000036,-0.9909670400000054,-1.7952300000000108
-9.991054000000036,-0.9909670400000054,-1.7952300000000108
-9.483602166666705,-0.6430913333333387,-0.761177533333344
-8.976150333333372,-0.295215626666672,0.2728749333333227
-8.46869850000004,0.05266007999999467,1.3069273999999893
-8.46869850000004,0.05266007999999467,1.3069273999999893
-8.376144333333372,0.19308696333332798,1.4888440999999892
-8.283590166666704,0.33351384666666134,1.6707607999999892
-8.191036000000034,0.47394072999999465,1.8526774999999889
-8.191036000000034,0.47394072999999465,1.8526774999999887
-8.452740833333369,-0.4037272800000054,1.7665064666666552
-8.714445666666704,-1.2813952900000054,1.6803354333333218
-8.97615050000004,-2.1590633000000055,1.5941643999999886
-8.97615050000004,-2.1590633000000055,1.5941643999999886
-9.624029000000041,-2.3824697000000055,1.2207565099999884
-10.27190750000004,-2.6058761000000055,0.8473486199999886
-10.91978600000004,-2.8292825000000055,0.47394072999998854
-10.91978600000004,-2.8292825000000055,0.47394072999998854
-11.724049333333374,-2.899496000000006,0.3111732063333219
-12.528312666666707,-2.9697095000000058,0.14840568266665524
-13.33257600000004,-3.0399230000000057,-0.014361841000011422
-13.33257600000004,-3.0399230000000057,-0.014361841000011422
-13.300660666666706,-3.445246100000005,-0.027127920666678088
-13.26874533333337,-3.8505692000000042,-0.03989400033334476
-13.236830000000035,-4.255892300000004,-0.05266008000001143
-13.236830000000035,-4.255892300000003,-0.05266008000001143
-11.430429466666704,-3.9303571666666692,0.18989544666665523
-9.624028933333372,-3.604822033333336,0.4324509733333219
-7.817628400000042,-3.2792869000000024,0.6750064999999884
-7.817628400000042,-3.2792869000000024,0.6750064999999884
-7.741031933333375,-3.282478433333336,0.39734424999998846
-7.664435466666707,-3.2856699666666693,0.11968199999998848
-7.587839000000041,-3.288861500000003,-0.1579802500000115
-7.587839000000041,-3.288861500000003,-0.1579802500000115
-7.4920934666667085,-3.046306000000003,-0.011170320000011502
-7.396347933333376,-2.803750500000003,0.1356396099999885
-7.300602400000044,-2.561195000000003,0.2824495399999885
-7.300602400000044,-2.561195000000003,0.2824495399999885
-7.725074433333376,-2.32183096666667,0.5920269933333219
-8.149546466666708,-2.0824669333333365,0.9016044466666552
-8.574018500000042,-1.8431029000000034,1.2111818999999884
-8.574018500000042,-1.8431029000000034,1.2111818999999884
-10.444249333333374,-1.6165049666666702,1.080329566666655
-12.314480166666707,-1.389907033333337,0.9494772333333218
-14.184711000000041,-1.1633091000000038,0.8186248999999884
-14.184711000000041,-1.1633091000000038,0.8186248999999884
-14.874079666666708,-0.8122418813333372,0.5345796133333217
-15.563448333333374,-0.46117466266667057,0.250534326666655
-16.25281700000004,-0.1101074440000039,-0.03351096000001167
-16.25281700000004,-0.1101074440000039,-0.03351096000001167
-14.637907666666704,0.0941498539999961,0.189895446666655
-13.02299833333337,0.2984071519999962,0.4133018533333217
-11.408089000000034,0.5026644499999962,0.6367082599999884
-11.408089000000032,0.5026644499999962,0.6367082599999885
-10.211268800000033,0.48032379999999614,0.7803266733333217
-9.014448600000033,0.4579831499999962,0.9239450866666553
-7.817628400000033,0.43564249999999616,1.0675634999999888
-7.817628400000033,0.43564249999999616,1.0675634999999888
-7.731457400000033,0.6175591466666629,1.3867155333333219
-7.645286400000033,0.7994757933333295,1.7058675666666552
-7.5591154000000325,0.9813924399999961,2.0250195999999883
-7.559115400000032,0.9813924399999961,2.0250195999999883
-7.428263033333363,0.49308985999999616,2.146297333333322
-7.297410666666695,0.004787279999996137,2.267575066666655
-7.166558300000027,-0.48351530000000387,2.3888527999999885
-7.166558300000027,-0.4835153000000038,2.3888527999999885
-7.485710533333361,-0.9462857000000038,2.216510699999988
-7.8048627666666945,-1.4090561000000041,2.044168599999988
-8.124015000000028,-1.8718265000000043,1.8718264999999874
-8.124015000000028,-1.8718265000000043,1.8718264999999874
-9.432538000000028,-1.910124766666671,1.5845896999999873
-10.741061000000025,-1.9484230333333377,1.2973528999999875
-12.049584000000024,-1.9867213000000044,1.0101160999999876
-12.049584000000024,-1.9867213000000044,1.0101160999999876
-12.681505000000024,-1.9548061000000043,0.9239450666666542
-13.313426000000026,-1.9228909000000043,0.8377740333333209
-13.945347000000027,-1.8909757000000045,0.7516029999999875
-13.747473000000028,-2.3633206666666706,0.8409655333333207
-13.549599000000029,-2.835665633333337,0.9303280666666538
-13.35172500000003,-3.3080106000000034,1.019690599999987
-13.35172500000003,-3.3080106000000034,1.019690599999987
-13.35172500000003,-3.3080106000000034,1.019690599999987
-11.047447333333364,-3.451629033333337,0.9845839133333204
-8.743169666666697,-3.5952474666666707,0.9494772266666539
-6.438892000000031,-3.7388659000000044,0.9143705399999874
-6.419742833333365,-3.4388630000000044,0.5888354786666541
-6.4005936666666985,-3.138860100000004,0.2633004173333207
-6.381444500000033,-2.8388572000000036,-0.062234644000012586
-6.381444500000033,-2.8388572000000036,-0.062234644000012586
-6.6527236666667,-2.4654493666666704,0.06861768066665408
-6.924002833333367,-2.092041533333337,0.19947000533332074
-7.195282000000034,-1.718633700000004,0.3303223299999874
-7.195282000000034,-1.718633700000004,0.3303223299999874
-7.485710333333366,-1.673952366666671,0.6813895533333207
-7.776138666666699,-1.6292710333333378,1.0324567766666541
-8.066567000000031,-1.5845897000000047,1.3835239999999878
-8.066567000000033,-1.5845897000000047,1.3835239999999878
-9.397431000000033,-1.734591133333338,1.6643777333333212
-10.728295000000033,-1.8845925666666712,1.9452314666666546
-12.059159000000035,-2.0345940000000042,2.226085199999988
-12.059159000000035,-2.0345940000000042,2.226085199999988
-12.059159000000035,-2.0345940000000042,2.226085199999988
-12.710229000000034,-1.616504886666671,1.9548060333333215
-13.361299000000033,-1.1984157733333378,1.6835268666666547
-14.012369000000033,-0.7803266600000044,1.4122476999999882
-13.5017256666667,-0.45798312666667096,1.4154391999999882
-12.991082333333365,-0.1356395933333376,1.4186306999999883
-12.48043900000003,0.1867039399999957,1.4218221999999885
-12.480439000000027,0.1867039399999957,1.4218221999999885
-11.443195333333358,0.46117465999999574,1.2845868333333217
-10.405951666666692,0.7356453799999958,1.147351466666655
-9.368708000000025,1.0101160999999959,1.0101160999999885
-9.368708000000026,1.0101160999999959,1.0101160999999885
-9.368708000000026,1.0101160999999959,1.0101160999999885
-8.861256000000028,0.860114653333329,1.463311999999988
-8.35380400000003,0.7101132066666622,1.9165078999999876
-7.8463520000000315,0.5601117599999955,2.369703799999987
-7.776138666666697,0.32074775666666216,2.248425966666654
-7.705925333333365,0.08138375333332885,2.127148133333321
-7.635712000000033,-0.15798025000000446,2.0058702999999873
-7.635712000000034,-0.15798025000000446,2.0058702999999873
-7.635712000000034,-0.15798025000000446,2.0058702999999873
-7.456986800000034,-0.2505343333333378,2.1399141999999873
-7.278261600000033,-0.34308841666667106,2.2739580999999873
-7.099536400000034,-0.4356425000000044,2.4080019999999873
-7.099536400000034,-0.4356425000000044,2.4080019999999873
-7.782521933333366,-0.5824524333333377,2.213319233333321
-8.4655074666667,-0.729262366666671,2.0186364666666545
-9.148493000000032,-0.8760723000000042,1.8239536999999875
-10.007012000000033,-1.2526716333333376,1.712250533333321
-10.865531000000033,-1.6292709666666711,1.6005473666666543
-11.724050000000034,-2.0058703000000047,1.4888441999999877
-11.724050000000034,-2.005870300000005,1.4888441999999877
-11.724050000000034,-2.005870300000005,1.4888441999999877
-12.046393333333368,-2.2707665333333384,1.383523999999988
-12.3687366666667,-2.535662766666672,1.2782037999999878
-12.691080000000035,-2.800559000000005,1.1728835999999878
-12.419800666666703,-3.062263633333339,1.3484172333333209
-12.14852133333337,-3.323968266666672,1.5239508666666541
-11.877242000000038,-3.585672900000006,1.6994844999999874
-11.877242000000038,-3.585672900000006,1.6994844999999874
-10.472973333333371,-3.5441831333333393,1.5367169666666538
-9.068704666666704,-3.5026933666666724,1.3739494333333202
-7.6644360000000376,-3.461203600000005,1.2111818999999868
-7.6644360000000376,-3.4612036000000046,1.211181899999987
-7.78890533333337,-3.2314141666666707,0.9973500499999872
-7.913374666666702,-3.001624733333337,0.7835181999999872
-8.037844000000035,-2.771835300000003,0.5696863499999872
-8.037844000000035,-2.771835300000003,0.5696863499999872
-8.114440166666702,-2.3058733333333366,0.7228793333333207
-8.191036333333367,-1.8399113666666704,0.876072316666654
-8.267632500000033,-1.3739494000000037,1.0292652999999874
-8.267632500000033,-1.3739494000000037,1.0292652999999874
-9.062321000000033,-1.0037330733333372,1.4760781333333206
-9.857009500000034,-0.6335167466666706,1.9228909666666538
-10.651698000000037,-0.2633004200000038,2.369703799999987
-10.651698000000037,-0.2633004200000038,2.369703799999987
-11.663410000000036,-0.4069188233333372,2.219702299999987
-12.675122000000036,-0.5505372266666705,2.069700799999987
-13.686834000000033,-0.6941556300000039,1.9196992999999865
-13.686834000000033,-0.6941556300000039,1.9196992999999865
-13.431512333333366,-0.14840568666667053,1.57501513333332
-13.1761906666667,0.3973442566666628,1.2303309666666533
-12.920869000000037,0.9430941999999961,0.8856467999999867
-12.920869000000039,0.9430941999999961,0.8856467999999867
-12.349587000000037,0.7739436333333295,0.6718149666666534
-11.778305000000037,0.6047930666666629,0.45798313333332014
-11.207023000000035,0.4356424999999963,0.24415129999998675
-11.207023000000035,0.4356424999999963,0.24415129999998675
-11.207023000000035,0.4356424999999963,0.24415129999998675
-10.642124000000036,0.11010745333332962,0.33989689999998673
-10.077225000000036,-0.21542759333333705,0.43564249999998667
-9.512326000000037,-0.5409626400000037,0.5313880999999867
-9.304877000000035,-0.298407113333337,0.95266873333332
-9.097428000000034,-0.05585158666667034,1.3739493666666533
-8.889979000000032,0.18670393999999635,1.7952299999999868
-8.889979000000032,0.18670393999999635,1.7952299999999868
-8.424017200000032,0.05266009333332968,2.098424399999987
-7.958055400000032,-0.08138375333333699,2.401618799999987
-7.492093600000033,-0.21542760000000363,2.7048131999999874
-7.492093600000033,-0.21542760000000363,2.7048131999999874
-7.492093600000033,-0.21542760000000363,2.7048131999999874
-7.597413733333366,-0.6207506666666703,2.3250223666666536
-7.702733866666699,-1.026073733333337,1.9452315333333203
-7.808054000000031,-1.4313968000000035,1.5654406999999868
-8.561252666666698,-1.817570733333337,1.4090561666666535
-9.314451333333366,-2.2037446666666707,1.25267163333332
-10.067650000000034,-2.5899186000000043,1.0962870999999865
-10.067650000000034,-2.5899186000000043,1.0962870999999865
-10.067650000000034,-2.5899186000000043,1.0962870999999865
-10.7346776666667,-2.5899186000000043,1.2718207333333198
-11.401705333333368,-2.5899186000000043,1.4473543666666533
-12.068733000000035,-2.5899186000000043,1.6228879999999866
-12.068733000000035,-2.5899186000000043,1.6228879999999866
-12.011285666666701,-2.5867270666666706,1.6228879999999866
-11.953838333333367,-2.5835355333333374,1.6228879999999866
-11.896391000000035,-2.5803440000000037,1.6228879999999866
-11.3283006666667,-2.9665179666666703,1.5973558333333202
-10.760210333333363,-3.3526919333333374,1.5718236666666539
-10.19212000000003,-3.738865900000004,1.5462914999999875
-10.192120000000028,-3.738865900000004,1.5462914999999875
-10.192120000000028,-3.738865900000004,1.5462914999999875
-9.86977633333336,-3.7803556333333375,1.249480133333321
-9.547432666666696,-3.8218453666666705,0.9526687666666542
-9.225089000000029,-3.863335100000004,0.6558573999999875
-9.225089000000029,-3.863335100000004,0.6558573999999875
-9.110194000000027,-3.2441801666666703,0.7324538666666541
-8.995299000000026,-2.625025233333337,0.8090503333333209
-8.880404000000024,-2.0058703000000033,0.8856467999999875
-8.880404000000022,-2.0058703000000033,0.8856467999999875
-8.880404000000022,-2.0058703000000033,0.8856467999999875
-8.880404000000022,-2.0058703000000033,0.8856467999999875
-8.880404000000022,-2.0058703000000033,0.8856467999999875
-8.656998000000023,-1.8175706666666702,1.3005443999999875
-8.433592000000024,-1.6292710333333371,1.7154419999999877
-8.210186000000023,-1.440971400000004,2.1303395999999877
-8.210186000000023,-1.440971400000004,2.1303395999999877
-8.64423266666669,-1.6165050000000043,2.0122533999999876
-9.078279333333358,-1.7920386000000044,1.8941671999999878
-9.512326000000025,-1.9675722000000047,1.776080999999988
-9.512326000000025,-1.9675722000000047,1.7760809999999883
-10.361270333333358,-2.120765133333338,1.6101219333333219
-11.210214666666692,-2.273958066666671,1.4441628666666553
-12.059159000000024,-2.4271510000000043,1.2782037999999887
-12.059159000000024,-2.427151000000004,1.2782037999999887
-12.036818333333358,-2.2899156666666705,1.3484172666666554
-12.014477666666691,-2.1526803333333366,1.4186307333333221
-11.992137000000023,-2.0154450000000033,1.4888441999999886
-11.992137000000023,-2.0154450000000033,1.4888441999999886
-11.06978766666669,-1.7122506000000033,1.4250137666666554
-10.147438333333355,-1.409056200000003,1.361183333333322
-9.22508900000002,-1.105861800000003,1.2973528999999886
-9.22508900000002,-1.105861800000003,1.2973528999999886
-9.193173666666686,-1.1728836666666695,1.1984157999999887
-9.161258333333354,-1.2399055333333362,1.0994786999999888
-9.129343000000022,-1.3069274000000026,1.0005415999999887
-9.129343000000022,-1.3069274000000026,1.0005415999999887
-8.625083000000023,-1.546291466666669,1.083521099999989
-8.120823000000023,-1.7856555333333353,1.1665005999999891
-7.616563000000023,-2.0250196000000016,1.249480099999989
-7.616563000000023,-2.0250196000000016,1.249480099999989
-7.619754433333356,-1.9867213333333347,0.9877754566666557
-7.62294586666669,-1.948423066666668,0.7260708133333221
-7.626137300000024,-1.9101248000000013,0.46436616999998875
-7.626137300000024,-1.9101248000000013,0.4643661699999888
-7.632520400000023,-1.8814011000000013,0.3750036066666554
-7.638903500000023,-1.852677400000001,0.285641043333322
-7.645286600000023,-1.8239537000000008,0.1962784799999887
-7.645286600000023,-1.8239537000000008,0.1962784799999887
-7.970821733333356,-1.9037417333333344,0.09095831666665537
-8.29635686666669,-1.9835297666666678,-0.014361846666677974
-8.621892000000024,-2.0633178000000014,-0.11968201000001132
-8.621892000000022,-2.0633178000000014,-0.11968201000001132
-8.660190333333357,-2.072892366666668,-0.11968201000001132
-8.698488666666693,-2.0824669333333348,-0.11968201000001132
-8.736787000000026,-2.092041500000002,-0.11968201000001132
-8.736787000000028,-2.092041500000002,-0.11968201000001132
-8.867639000000027,-2.3186394333333347,-0.05585160666667797
-8.998491000000028,-2.5452373666666674,0.007978796666655366
-9.129343000000027,-2.7718353000000007,0.07180919999998871
-9.129343000000027,-2.7718353000000007,0.0718091999999887
-9.059129666666694,-2.972901100000001,0.0718091999999887
-8.988916333333362,-3.1739669000000013,0.0718091999999887
-8.91870300000003,-3.3750327000000016,0.0718091999999887
-8.91870300000003,-3.3750327000000016,0.0718091999999887
-9.528283333333363,-3.5633323333333347,0.4579831666666554
-10.137863666666696,-3.7516319666666678,0.8441571333333221
-10.74744400000003,-3.939931600000001,1.2303310999999886
-10.74744400000003,-3.939931600000001,1.2303310999999886
-10.718720333333364,-3.805887733333334,1.667569333333322
-10.689996666666696,-3.671843866666667,2.104807566666655
-10.66127300000003,-3.5378000000000003,2.5420457999999884
-10.66127300000003,-3.5377999999999994,2.542045799999988
-10.603825666666696,-3.4388629,2.4782154333333213
-10.546378333333363,-3.339925800000001,2.414385066666654
-10.48893100000003,-3.2409887000000013,2.3505546999999876
-10.48893100000003,-3.2409887000000013,2.3505546999999876
-10.766593333333363,-3.1803498000000014,2.3314055666666538
-11.044255666666698,-3.119710900000001,2.3122564333333204
-11.321918000000032,-3.059072000000001,2.2931072999999866
-11.321918000000034,-3.059072000000001,2.2931072999999866
-10.9963826666667,-2.845240200000001,2.4718323666666535
-10.670847333333365,-2.631408400000001,2.6505574333333204
-10.345312000000032,-2.4175766000000007,2.8292824999999873
-10.345312000000034,-2.4175766000000007,2.8292824999999873
-10.112331333333366,-2.337788533333334,2.4463001333333207
-9.879350666666697,-2.258000466666667,2.0633177666666547
-9.646370000000031,-2.1782124,1.6803353999999875
-9.646370000000031,-2.1782124,1.6803353999999875
-9.154875666666697,-1.9165078000000004,1.6994844999999879
-8.663381333333364,-1.6548032000000006,1.7186335999999878
-8.171887000000032,-1.3930986000000007,1.7377826999999877
-8.171887000000032,-1.3930986000000007,1.7377826999999872
-7.977204333333366,-1.2973530000000004,1.635654066666654
-7.782521666666699,-1.2016074000000003,1.5335254333333204
-7.587839000000031,-1.1058618000000002,1.4313967999999868
-7.587839000000031,-1.1058618,1.4313967999999868
-7.887842000000031,-1.2941614666666668,1.0867126199999868
-8.18784500000003,-1.4824611333333337,0.7420284399999869
-8.48784800000003,-1.6707608000000007,0.39734425999998696
-8.487848000000028,-1.6707608000000007,0.39734425999998696
-8.899554000000029,-2.0633178000000005,0.2505343323333203
-9.311260000000027,-2.4558748000000006,0.1037244046666536
-9.722966000000028,-2.8484318000000006,-0.04308552300001308
-9.722966000000028,-2.8484318000000006,-0.04308552300001308
-9.691050666666696,-2.7526862000000007,0.3015986646666536
-9.659135333333362,-2.6569406000000004,0.6462828523333203
-9.62722000000003,-2.561195,0.9909670399999868
-9.62722000000003,-2.561195,0.9909670399999868
-9.78679600000003,-2.6090677333333336,0.9590518266666535
-9.946372000000027,-2.656940466666667,0.9271366133333201
-10.105948000000026,-2.7048132000000007,0.8952213999999867
-10.105948000000026,-2.7048132000000007,0.8952213999999867
-9.949563666666693,-2.5739609000000008,0.7388369166666533
-9.793179333333361,-2.4431086000000004,0.5824524333333199
-9.636795000000028,-2.3122563,0.42606794999998643
-9.636795000000028,-2.3122563,0.42606794999998643
-9.793179333333361,-2.328213866666667,0.38457818999998644
-9.949563666666693,-2.3441714333333343,0.3430884299999864
-10.105948000000026,-2.360129000000001,0.3015986699999864
-10.105948000000026,-2.360129000000001,0.3015986699999864
-10.562335666666693,-2.494172900000001,0.44840857999998646
-11.01872333333336,-2.628216800000001,0.5952184899999865
-11.475111000000027,-2.762260700000001,0.7420283999999864
-11.475111000000027,-2.762260700000001,0.7420283999999864
-11.928307000000027,-2.800558900000001,0.754794486666653
-12.381503000000029,-2.8388571000000007,0.7675605733333196
-12.834699000000029,-2.8771553000000005,0.7803266599999863
-12.834699000000029,-2.8771553000000005,0.7803266599999863
-13.926198666666698,-3.333542666666668,0.6175591399999862
-15.017698333333366,-3.789930033333335,0.4547916199999862
-16.109198000000035,-4.2463174000000015,0.2920240999999862
-16.109198000000035,-4.2463174000000015,0.2920240999999862
-13.804920333333365,-4.460149266666668,0.6941556333333195
-11.500642666666698,-4.673981133333334,1.096287166666653
-9.196365000000029,-4.887813,1.4984186999999862
-9.196365000000029,-4.887813,1.4984186999999862
-8.86125533333336,-4.409085,1.501610199999986
-8.526145666666693,-3.9303569999999994,1.5048016999999858
-8.191036000000025,-3.451628999999999,1.5079931999999856
-8.191036000000024,-3.451628999999999,1.5079931999999856
-9.014448333333357,-2.883538399999999,1.6324625333333191
-9.837860666666689,-2.315447799999999,1.7569318666666527
-10.66127300000002,-1.7473571999999986,1.881401199999986
-10.66127300000002,-1.7473571999999986,1.881401199999986
-10.565527333333351,-1.5494829999999986,1.9196993999999863
-10.469781666666684,-1.3516087999999986,1.9579975999999861
-10.374036000000016,-1.1537345999999988,1.996295799999986
-10.374036000000014,-1.1537345999999988,1.9962957999999855
-10.134672000000014,-1.303736033333332,1.7696978999999857
-9.895308000000016,-1.4537374666666654,1.543099999999986
-9.655944000000016,-1.6037388999999986,1.3165020999999861
-9.655944000000018,-1.6037388999999986,1.316502099999986
-10.112331333333351,-1.6962929999999987,1.1856497566666526
-10.568718666666685,-1.7888470999999988,1.0547974133333193
-11.02510600000002,-1.8814011999999989,0.923945069999986
-11.02510600000002,-1.8814011999999989,0.923945069999986
-11.22617200000002,-1.616504999999999,0.9175620266666528
-11.427238000000019,-1.351608799999999,0.9111789833333196
-11.62830400000002,-1.0867125999999991,0.9047959399999863
-11.62830400000002,-1.0867125999999991,0.9047959399999863
-11.602771666666685,-0.9909669999999989,0.8952213933333196
-11.577239333333353,-0.8952213999999991,0.885646846666653
-11.55170700000002,-0.7994757999999992,0.8760722999999864
-10.460207000000018,-0.9622433333333325,1.128202366666653
-9.368707000000017,-1.1250108666666656,1.3803324333333196
-8.277207000000017,-1.287778399999999,1.6324624999999864
-8.277207000000015,-1.287778399999999,1.6324624999999864
-8.277207000000015,-1.287778399999999,1.6324624999999864
-8.532528666666682,-1.1377769466666654,1.4696949999999864
-8.787850333333349,-0.987775493333332,1.3069274999999865
-9.043172000000016,-0.8377740399999986,1.1441599999999867
-8.941043666666681,-1.0484143599999987,1.2016073666666534
-8.838915333333349,-1.2590546799999984,1.25905473333332
-8.736787000000016,-1.4696949999999982,1.3165020999999866
-8.736787000000016,-1.4696949999999982,1.3165020999999866
-8.96657633333335,-1.817570666666665,1.2047988799999862
-9.196365666666685,-2.165446333333332,1.0930956599999861
-9.426155000000017,-2.5133219999999987,0.9813924399999859
-9.426155000000017,-2.5133219999999987,0.9813924399999859
-10.224035000000017,-2.8197079666666656,0.7356453933333192
-11.021915000000016,-3.126093933333332,0.4898983466666526
-11.819795000000015,-3.432479899999999,0.2441512999999859
-11.819795000000015,-3.432479899999999,0.2441512999999859
-12.215543333333349,-3.930356933333332,0.10053288666665257
-12.611291666666682,-4.428233966666665,-0.04308552666668076
-13.007040000000018,-4.926110999999998,-0.18670394000001408
-13.007040000000018,-4.926110999999998,-0.18670394000001408
-12.949593000000016,-4.501638899999999,0.3047901733333193
-12.892146000000016,-4.0771668,0.7962842866666527
-12.834699000000015,-3.652694699999999,1.2877783999999861
-12.834699000000015,-3.652694699999999,1.2877783999999861
-11.280428333333347,-3.365457933333332,1.3739494333333198
-9.72615766666668,-3.078221166666666,1.460120466666653
-8.171887000000012,-2.7909843999999997,1.5462914999999864
-8.171887000000012,-2.7909844000000006,1.5462914999999864
-8.27082416666668,-3.1101364333333343,1.198415816666653
-8.369761333333349,-3.429288466666668,0.8505401333333196
-8.468698500000016,-3.7484405000000023,0.5026644499999863
-8.468698500000016,-3.7484405000000023,0.5026644499999863
-8.778276000000014,-3.193115933333336,0.3877697166666529
-9.087853500000014,-2.6377913666666695,0.27287498333331955
-9.397431000000012,-2.082466800000003,0.15798024999998617
-9.397431000000012,-2.0824668000000024,0.15798024999998614
-9.703817000000013,-1.699484420000002,0.6781980666666528
-10.010203000000013,-1.316502040000002,1.1984158833333196
-10.316589000000015,-0.9335196600000019,1.7186336999999865
-10.316589000000015,-0.9335196600000019,1.7186336999999865
-10.814466333333348,-0.9016044533333352,1.5462915666666532
-11.31234366666668,-0.8696892466666686,1.37394943333332
-11.810221000000013,-0.837774040000002,1.2016072999999867
-11.810221000000013,-0.837774040000002,1.2016072999999867
-12.879380000000012,-1.3133105600000017,0.7484114499999867
-13.948539000000011,-1.7888470800000016,0.29521559999998664
-15.01769800000001,-2.2643836000000013,-0.15798025000001337
-15.01769800000001,-2.264383600000001,-0.1579802500000134
-13.958113333333344,-1.6005473933333345,-0.1324480883333467
-12.898528666666678,-0.9367111866666679,-0.10691592666668004
-11.838944000000012,-0.27287498000000127,-0.08138376500001337
-11.838944000000012,-0.2728749800000013,-0.08138376500001337
-10.57829366666668,0.3047901466666654,0.27925802333331995
-9.317643333333345,0.8824552733333322,0.6398998116666533
-8.056993000000013,1.460120399999999,1.0005415999999867
-8.056993000000013,1.460120399999999,1.0005415999999867
-8.175079000000013,1.5973557666666656,1.4601204666666536
-8.293165000000014,1.7345911333333321,1.9196993333333203
-8.411251000000014,1.871826499999999,2.379278199999987
-8.411251000000014,1.871826499999999,2.379278199999987
-8.27720733333335,1.2654376933333322,2.395235799999987
-8.143163666666682,0.6590488866666654,2.4111933999999873
-8.009120000000017,0.0526600799999987,2.4271509999999874
-8.009120000000019,0.0526600799999987,2.4271509999999874
-8.098482333333353,-0.31117321333333464,2.4622577333333204
-8.187844666666686,-0.675006506666668,2.4973644666666535
-8.27720700000002,-1.0388398000000014,2.532471199999987
-8.27720700000002,-1.0388398000000014,2.532471199999987
-9.43572900000002,-1.2207564333333345,2.277149599999987
-10.59425100000002,-1.402673066666668,2.0218279999999873
-11.752773000000019,-1.5845897000000015,1.7665063999999873
-11.752773000000019,-1.5845897000000015,1.7665063999999873
-12.608100333333352,-1.9962958000000015,1.6005473666666539
-13.463427666666687,-2.4080019000000017,1.4345883333333205
-14.318755000000023,-2.8197080000000017,1.268629299999987
-14.318755000000024,-2.8197080000000017,1.268629299999987
-13.846410000000025,-3.087795733333335,1.1984158333333204
-13.374065000000025,-3.355883466666668,1.1282023666666536
-12.901720000000026,-3.623971200000001,1.0579888999999871
-12.901720000000026,-3.623971200000001,1.0579888999999871
-11.120851800000027,-3.789930133333334,1.1984157999999872
-9.33998360000003,-3.9558890666666677,1.3388426999999874
-7.559115400000032,-4.121848000000001,1.4792695999999876
-7.559115400000032,-4.121848000000001,1.4792695999999876
-7.603796600000031,-4.029294000000001,1.176075183333321
-7.64847780000003,-3.9367400000000017,0.872880766666654
-7.69315900000003,-3.844186000000002,0.5696863499999874
-7.69315900000003,-3.844186000000002,0.5696863499999872
-8.45912400000003,-3.592055900000002,0.4898983433333206
-9.225089000000027,-3.339925800000002,0.4101103366666539
-9.991054000000027,-3.0877957000000023,0.3303223299999873
-9.991054000000027,-3.0877957000000023,0.3303223299999873
-10.061267500000028,-2.3473630333333353,0.5633033199999873
-10.13148100000003,-1.6069303666666688,0.7962843099999873
-10.20169450000003,-0.8664977000000021,1.0292652999999874
-10.20169450000003,-0.8664977000000021,1.0292652999999874
-9.939989666666696,-0.7899012200000021,1.3994816333333204
-9.67828483333336,-0.713304740000002,1.769697966666654
-9.416580000000025,-0.6367082600000019,2.139914299999987
-9.416580000000023,-0.6367082600000018,2.139914299999987
-10.581485000000024,-0.9877754733333349,1.6452286666666538
-11.746390000000025,-1.3388426866666683,1.1505430333333206
-12.911295000000024,-1.6899099000000015,0.6558573999999874
-13.310235000000022,-1.0228822000000017,0.5218135533333207
-13.709175000000021,-0.3558545000000019,0.38776970666665395
-14.10811500000002,0.311173199999998,0.2537258599999873
-14.10811500000002,0.311173199999998,0.25372585999998726
-13.457044666666688,0.6941555999999981,0.41011033999998725
-12.805974333333355,1.0771379999999982,0.5664948199999872
-12.154904000000023,1.4601203999999983,0.7228792999999872
-12.154904000000023,1.4601203999999983,0.7228792999999873
-11.066595666666688,1.2175648999999984,1.364374866666654
-9.978287333333354,0.9750093999999985,2.0058704333333206
-8.889979000000018,0.7324538999999985,2.647365999999987
-8.889979000000018,0.7324538999999985,2.647365999999987
-9.071895666666686,1.195224333333332,2.6888557666666535
-9.253812333333352,1.657994766666665,2.73034553333332
-9.435729000000018,2.1207651999999984,2.7718352999999865
-9.435729000000018,2.1207651999999984,2.7718352999999865
-9.285727666666684,1.6994845199999984,2.8037505333333197
-9.13572633333335,1.2782038399999982,2.835665766666653
-8.985725000000018,0.8569231599999982,2.8675809999999866
-8.985725000000016,0.8569231599999982,2.8675809999999866
-8.95380966666668,-0.01755336000000174,2.54842893333332
-8.921894333333347,-0.8920298800000017,2.2292768666666536
-8.889979000000011,-1.7665064000000017,1.910124799999987
-8.889979000000011,-1.7665064000000017,1.910124799999987
-9.793179333333347,-2.1143821000000016,1.5654406333333204
-10.696379666666681,-2.462257800000002,1.2207564666666535
-11.599580000000017,-2.8101335000000014,0.8760722999999867
-11.631495333333353,-2.8803470000000018,0.7196878066666533
-11.663410666666687,-2.9505605000000017,0.56330331333332
-11.695326000000023,-3.0207740000000016,0.4069188199999865
-11.695326000000023,-3.0207740000000016,0.4069188199999865
-11.695326000000023,-3.0207740000000016,0.4069188199999865
-12.154904666666688,-3.059072166666668,0.25372585333331993
-12.614483333333354,-3.097370333333334,0.10053288666665323
-13.07406200000002,-3.1356685,-0.05266008000001343
-11.529366333333352,-3.633545666666667,0.2633004133333199
-9.984670666666688,-4.131422833333334,0.5792609066666531
-8.439975000000024,-4.6293,0.8952213999999864
-8.439975000000024,-4.6293,0.8952213999999864
-8.184653433333358,-4.338871666666666,0.6750065099999865
-7.9293318666666925,-4.048443333333332,0.45479161999998646
-7.674010300000025,-3.758014999999999,0.23457672999998655
-7.674010300000025,-3.758014999999999,0.23457672999998655
-8.315505533333358,-3.212265066666666,0.4133018633333198
-8.957000766666694,-2.666515133333333,0.592026996666653
-9.598496000000027,-2.1207651999999997,0.7707521299999863
-9.59849600000003,-2.1207652,0.7707521299999863
-9.99424500000003,-1.5207593866666667,0.9813924533333197
-10.389994000000028,-0.9207535733333332,1.192032776666653
-10.78574300000003,-0.3207477599999999,1.4026730999999864
-10.78574300000003,-0.3207477599999999,1.4026730999999864
-10.897445833333364,-0.36223752999999986,1.5207593666666532
-11.009148666666698,-0.4037272999999999,1.63884563333332
-11.120851500000034,-0.44521706999999994,1.7569318999999866
-11.120851500000034,-0.44521706999999994,1.7569318999999866
-11.270853000000033,-0.9111790133333333,1.5079932999999865
-11.420854500000033,-1.3771409566666666,1.2590546999999865
-11.570856000000033,-1.8431028999999999,1.0101160999999865
-11.570856000000033,-1.8431028999999999,1.0101160999999863
-11.727240500000034,-1.9611891666666665,0.7388368933333197
-11.883625000000036,-2.079275433333333,0.46755768666665304
-12.040009500000037,-2.1973617,0.1962784799999863
-12.040009500000039,-2.1973617,0.1962784799999863
-11.580430666666706,-1.9228909333333333,0.1994699999999863
-11.12085183333337,-1.6484201666666667,0.20266151999998627
-10.661273000000039,-1.3739493999999999,0.20585303999998625
-10.661273000000037,-1.3739493999999999,0.2058530399999862
-10.664464666666703,-1.5558660333333334,0.39096120666665285
-10.667656333333369,-1.737782666666667,0.5760693733333195
-10.670848000000035,-1.9196993000000004,0.7611775399999862
-10.670848000000035,-1.9196993000000007,0.761177539999986
-9.882542333333369,-1.7537402666666673,1.3707578933333195
-9.094236666666703,-1.5877812333333339,1.980338246666653
-8.305931000000037,-1.4218222000000005,2.5899185999999865
-8.63465733333337,-1.2047988433333339,2.5707694666666527
-8.963383666666703,-0.987775486666667,2.5516203333333194
-9.292110000000037,-0.7707521300000003,2.5324711999999856
-9.292110000000037,-0.7707521300000003,2.5324711999999856
-9.292110000000037,-0.7707521300000003,2.5324711999999856
-9.024022666666703,-0.8537316200000001,2.452683233333319
-8.755935333333369,-0.9367111100000001,2.3728952666666516
-8.487848000000035,-1.0196906,2.293107299999985
-8.5357206666667,-1.3835239333333336,2.0441686999999855
-8.583593333333368,-1.7473572666666672,1.795230099999986
-8.631466000000037,-2.111190600000001,1.5462914999999864
-8.631466000000037,-2.1111906000000005,1.5462914999999864
-9.170833000000039,-2.3154479,1.2590546999999863
-9.71020000000004,-2.5197051999999993,0.9718178999999861
-10.24956700000004,-2.723962499999999,0.6845810999999861
-10.249567000000042,-2.723962499999999,0.6845810999999861
-10.846381166666708,-2.8037504999999996,0.34308843333331934
-11.443195333333373,-2.8835385000000002,0.0015957666666526944
-12.040009500000039,-2.963326500000001,-0.339896900000014
-12.040009500000039,-2.963326500000001,-0.339896900000014
-12.576185000000038,-3.448437566666667,-0.32074778000001397
-13.112360500000037,-3.933548633333333,-0.30159866000001395
-13.648536000000036,-4.418659699999999,-0.28244954000001393
-13.648536000000036,-4.418659699999999,-0.28244954000001393
-12.525121000000034,-4.536745799999999,0.0462770299999861
-11.401706000000035,-4.6548319000000005,0.3750035999999861
-10.278291000000037,-4.772918000000001,0.7037301699999862
-10.278291000000037,-4.772918000000001,0.7037301699999862
-9.691051000000039,-4.201636000000001,0.4388340033333195
-9.10381100000004,-3.6303540000000005,0.17393783666665277
-8.51657100000004,-3.0590720000000005,-0.0909583300000139
-8.516571000000042,-3.0590720000000005,-0.0909583300000139
-8.688913333333375,-3.011199233333334,0.19308695999998612
-8.861255666666707,-2.963326466666667,0.47713224999998616
-9.03359800000004,-2.9154537000000005,0.7611775399999862
-9.03359800000004,-2.9154537000000005,0.761177539999986
-9.174025000000041,-2.1909786000000007,1.2016072933333195
-9.31445200000004,-1.4665035000000006,1.642037046666653
-9.454879000000041,-0.7420284000000005,2.0824667999999864
-9.454879000000041,-0.7420284000000005,2.0824667999999864
-9.691051333333375,-0.8122418666666671,2.1814039333333195
-9.927223666666707,-0.8824553333333337,2.2803410666666526
-10.163396000000041,-0.9526688000000004,2.3792781999999857
-10.163396000000041,-0.9526688000000004,2.3792781999999857
-11.009148666666709,-1.1601176000000002,1.964380599999986
-11.854901333333375,-1.3675664000000003,1.5494829999999855
-12.700654000000043,-1.5750152000000004,1.1345853999999853
-12.700654000000043,-1.5750152000000004,1.1345853999999855
-12.659164333333377,-1.597355866666667,0.9079874799999855
-12.61767466666671,-1.6196965333333335,0.6813895599999856
-12.576185000000045,-1.6420372,0.45479163999998556
-12.576185000000045,-1.6420372,0.45479163999998556
-12.576185000000045,-1.6420372,0.45479163999998556
-12.052776000000044,-1.1569261133333335,0.3654290733333188
-11.529367000000043,-0.671815026666667,0.2760665066666521
-11.005958000000042,-0.18670394000000035,0.18670393999998539
-10.476165333333377,-0.16755481333333366,0.4643661599999853
-9.946372666666711,-0.14840568666666698,0.7420283799999853
-9.416580000000046,-0.1292565600000003,1.0196905999999852
-9.416580000000048,-0.1292565600000003,1.0196905999999852
-9.496368000000048,-0.5058559400000003,0.9845839133333186
-9.576156000000049,-0.8824553200000004,0.9494772266666521
-9.65594400000005,-1.2590547000000003,0.9143705399999856
-9.65594400000005,-1.2590547000000003,0.9143705399999856
-8.775084566666719,-1.3420342000000003,1.0324567933333189
-7.894225133333386,-1.4250137,1.150543046666652
-7.013365700000054,-1.5079931999999998,1.2686292999999853
-7.013365700000054,-1.5079931999999998,1.2686292999999853
-6.991024933333386,-1.6324625333333334,1.2239479999999852
-6.968684166666719,-1.756931866666667,1.1792666999999852
-6.946343400000052,-1.8814012000000002,1.1345853999999853
-6.946343400000052,-1.8814012000000002,1.1345853999999853
-8.018694266666719,-2.0569348,0.9845839666666519
-9.091045133333386,-2.2324684000000006,0.8345825333333187
-10.163396000000054,-2.4080020000000006,0.6845810999999854
-10.163396000000056,-2.408002000000001,0.6845810999999854
-11.427238000000058,-2.423959566666668,0.7675606199999855
-12.691080000000058,-2.439917133333335,0.8505401399999855
-13.95492200000006,-2.455874700000002,0.9335196599999854
-13.954922000000062,-2.455874700000002,0.9335196599999854
-13.338958666666732,-2.4973644666666686,0.9813924733333188
-12.722995333333401,-2.538854233333335,1.029265286666652
-12.10703200000007,-2.5803440000000015,1.0771380999999856
-12.10703200000007,-2.5803440000000015,1.0771380999999856
-10.626166666666737,-2.9729010000000016,1.054797433333319
-9.145301333333403,-3.3654580000000016,1.0324567666666524
-7.6644360000000695,-3.7580150000000017,1.0101160999999859
-7.664436000000069,-3.7580150000000017,1.0101160999999859
-7.626137666666733,-3.7388659000000017,0.8281994566666523
-7.587839333333399,-3.719716800000002,0.6462828133333189
-7.5495410000000645,-3.700567700000002,0.46436616999998565
-7.5495410000000645,-3.700567700000002,0.4643661699999857
-7.5495410000000645,-3.700567700000002,0.4643661699999857
-8.6314663333334,-3.046306033333335,0.550537213333319
-9.713391666666736,-2.3920443666666684,0.6367082566666523
-10.79531700000007,-1.7377827000000015,0.7228792999999856
-10.88148800000007,-1.3260766166666682,1.4409712999999857
-10.967659000000069,-0.9143705333333348,2.159063299999986
-11.053830000000067,-0.5026644500000016,2.877155299999986
-11.053830000000067,-0.5026644500000016,2.877155299999986
-10.41552600000007,-0.8888383666666684,2.9888585333333193
-9.777222000000068,-1.275012283333335,3.1005617666666527
-9.138918000000068,-1.661186200000002,3.212264999999986
-9.138918000000066,-1.661186200000002,3.212264999999986
-9.138918000000066,-1.661186200000002,3.212264999999986
-9.0304063333334,-1.8845926000000015,2.9058790999999857
-8.921894666666732,-2.1079990000000017,2.5994931999999853
-8.813383000000064,-2.3314054000000017,2.293107299999985
-8.388910866666729,-2.203744600000002,2.309064866666652
-7.964438733333395,-2.0760838000000024,2.3250224333333187
-7.539966600000061,-1.9484230000000025,2.340979999999986
-7.539966600000061,-1.9484230000000025,2.340979999999986
-7.539966600000061,-1.9484230000000025,2.340979999999986
-7.0708130666667275,-1.728208133333336,2.372895199999986
-6.601659533333394,-1.5079932666666693,2.4048103999999864
-6.132506000000061,-1.287778400000003,2.4367255999999866
-6.132506000000061,-1.287778400000003,2.436725599999987
-6.394210566666728,-1.4250137666666696,2.1973616333333204
-6.655915133333394,-1.5622491333333361,1.957997666666654
-6.917619700000061,-1.699484500000003,1.7186336999999874
-7.884650133333395,-1.7728894333333358,1.2590547666666543
-8.851680566666728,-1.846294366666669,0.7994758333333211
-9.81871100000006,-1.919699300000002,0.3398968999999876
-9.818711000000063,-1.919699300000002,0.3398968999999876
-9.818711000000063,-1.919699300000002,0.3398968999999876
-11.459152666666727,-2.0920414000000025,-0.19627850000001237
-13.099594333333393,-2.2643835000000028,-0.7324539000000123
-14.740036000000059,-2.436725600000003,-1.2686293000000124
-14.740036000000059,-2.4367256000000035,-1.2686293000000124
-13.683642666666726,-2.6154507333333368,-0.8186249450000126
-12.627249333333394,-2.79417586666667,-0.36862059000001257
-11.570856000000061,-2.972901000000004,0.08138376499998741
-11.570856000000061,-2.972901000000004,0.08138376499998741
-10.64531500000006,-2.5484288333333374,0.01117032333332075
-9.71977400000006,-2.1239566666666705,-0.05904311833334591
-8.79423300000006,-1.699484500000004,-0.1292565600000126
-8.522954100000062,-1.798421600000004,-0.6111761066666793
-8.251675200000063,-1.897358700000004,-1.0930956533333458
-7.980396300000064,-1.996295800000004,-1.5750152000000126
-7.980396300000064,-1.996295800000004,-1.5750152000000126
-7.980396300000064,-1.996295800000004,-1.5750152000000126
-8.162312866666731,-2.0728922666666705,-1.3803324800000125
-8.344229433333398,-2.149488733333337,-1.1856497600000127
-8.526146000000066,-2.2260852000000035,-0.9909670400000126
-8.7495523333334,-2.459066233333337,-0.8728807800000125
-8.972958666666731,-2.692047266666671,-0.7547945200000123
-9.196365000000066,-2.9250283000000046,-0.6367082600000122
-9.196365000000066,-2.9250283000000046,-0.6367082600000121
-9.799562666666732,-3.158009266666671,-0.5984100400000122
-10.402760333333399,-3.390990233333337,-0.5601118200000121
-11.005958000000065,-3.6239712000000033,-0.5218136000000121
-11.005958000000065,-3.6239712000000033,-0.5218136000000121
-11.005958000000065,-3.6239712000000033,-0.5218136000000121
-10.377228333333399,-4.08035846666667,-0.033511000000012135
-9.748498666666732,-4.536745733333337,0.45479159999998786
-9.119769000000064,-4.993133000000004,0.9430941999999879
-10.658081666666732,-5.076112533333337,1.0867125999999878
-12.1963943333334,-5.15909206666667,1.2303309999999879
-13.734707000000066,-5.242071600000003,1.3739493999999877
-13.734707000000066,-5.242071600000003,1.3739493999999877
-13.0070403333334,-3.9239738666666697,2.0697007999999877
-12.279373666666734,-2.605876133333337,2.765452199999988
-11.551707000000066,-1.287778400000004,3.461203599999988
-11.551707000000066,-1.2877784000000043,3.461203599999988
-11.551707000000066,-1.2877784000000043,3.461203599999988
-10.948509666666732,-1.4441629000000045,3.659077833333322
-10.345312333333398,-1.6005474000000042,3.8569520666666555
-9.742115000000064,-1.7569319000000039,4.054826299999989
-9.3080683333334,-1.8750181333333373,3.5314169999999887
-8.874021666666735,-1.993104366666671,3.0080076999999883
-8.43997500000007,-2.1111906000000045,2.4845983999999883
-8.439975000000072,-2.1111906000000045,2.4845983999999883
-8.187844900000071,-2.1590634000000044,2.3154478333333217
-7.9357148000000715,-2.2069362000000043,2.1462972666666555
-7.683584700000072,-2.254809000000004,1.9771466999999892
-7.683584700000072,-2.254809000000004,1.9771466999999892
-7.683584700000072,-2.254809000000004,1.9771466999999892
-8.187844800000073,-2.3026818333333376,2.034594133333322
-8.692104900000073,-2.350554666666671,2.0920415666666554
-9.196365000000075,-2.3984275000000044,2.149488999999989
-9.196365000000077,-2.3984275000000044,2.1494889999999893
-10.278290666666743,-2.459066333333338,2.312256466666656
-11.360216333333412,-2.519705166666671,2.475023933333323
-12.44214200000008,-2.580344000000004,2.6377913999999896
-13.498534833333414,-2.5611949333333377,2.35055459999999
-14.554927666666748,-2.5420458666666708,2.06331779999999
-15.611320500000081,-2.522896800000004,1.77608099999999
-15.611320500000081,-2.522896800000004,1.77608099999999
-14.500671666666749,-1.6835269600000042,1.7633148999999904
-13.390022833333417,-0.8441571200000043,1.7505487999999907
-12.279374000000082,-0.00478728000000439,1.7377826999999908
-12.27937400000008,-0.004787280000004389,1.7377826999999908
-11.392131333333415,0.4196849133333289,1.2622461999999908
-10.504888666666748,0.8441571066666622,0.786709699999991
-9.61764600000008,1.2686292999999955,0.31117319999999093
-9.61764600000008,1.2686292999999955,0.31117319999999093
-8.708062833333415,0.5122389999999956,0.35904601333332425
-7.798479666666748,-0.2441513000000044,0.40691882666665763
-6.888896500000082,-1.0005416000000045,0.45479163999999095
-6.888896500000082,-1.0005416000000045,0.45479163999999095
-6.355912533333414,-1.281395366666671,0.3654290733333243
-5.8229285666667465,-1.5622491333333377,0.2760665066666576
-5.289944600000079,-1.8431029000000043,0.18670393999999088
-5.289944600000079,-1.8431029000000043,0.18670393999999088
-5.918674066666746,-1.7569318333333375,0.24734281666665756
-6.547403533333413,-1.670760766666671,0.3079816933333242
-7.176133000000081,-1.5845897000000047,0.3686205699999909
-7.176133000000081,-1.5845897000000047,0.3686205699999909
-7.93571500000008,-1.4601204333333377,0.6335167466666576
-8.69529700000008,-1.3356511666666708,0.8984129233333243
-9.454879000000078,-1.211181900000004,1.163309099999991
-9.454879000000078,-1.2111819000000041,1.163309099999991
-10.02616100000008,-1.6516116666666711,1.2813953666666575
-10.597443000000082,-2.0920414333333377,1.399481633333324
-11.168725000000082,-2.5324712000000047,1.5175678999999904
-11.168725000000082,-2.5324712000000047,1.5175678999999904
-12.062350666666747,-3.0622634666666713,1.4058646666666572
-12.955976333333412,-3.592055733333338,1.294161433333324
-13.849602000000077,-4.121848000000004,1.182458199999991
-13.849602000000075,-4.121848000000004,1.182458199999991
-12.850656000000077,-4.109082000000004,1.3037359666666577
-11.851710000000077,-4.096316000000004,1.4250137333333244
-10.852764000000079,-4.083550000000003,1.5462914999999908
-10.852764000000079,-4.083550000000003,1.5462914999999906
-10.348504000000078,-3.41652226666667,1.469695033333324
-9.84424400000008,-2.749494533333337,1.3930985666666575
-9.33998400000008,-2.0824668000000037,1.3165020999999908
-9.33998400000008,-2.0824668000000037,1.3165020999999906
-9.378282333333411,-1.9803382000000032,1.4984187333333239
-9.416580666666745,-1.8782096000000028,1.6803353666666572
-9.454879000000076,-1.7760810000000025,1.8622519999999902
-9.454879000000076,-1.7760810000000025,1.8622519999999902
-9.177216666666745,-1.316502086666669,2.0824669333333237
-8.89955433333341,-0.8569231733333358,2.302681866666657
-8.621892000000075,-0.3973442600000025,2.5228967999999905
-8.621892000000075,-0.3973442600000025,2.5228967999999905
-8.372953333333408,-0.5984100400000024,2.321830966666657
-8.12401466666674,-0.7994758200000024,2.1207651333333235
-7.875076000000072,-1.0005416000000025,1.91969929999999
-7.875076000000072,-1.0005416000000025,1.91969929999999
-7.875076000000072,-1.0005416000000025,1.91969929999999
-8.717637333333407,-1.3260766333333358,1.6484201333333235
-9.560198666666741,-1.6516116666666694,1.3771409666666568
-10.402760000000074,-1.977146700000003,1.10586179999999
-11.730432333333406,-1.8494859333333362,0.69096415999999
-13.058104666666738,-1.7218251666666695,0.27606651999998993
-14.38577700000007,-1.5941644000000028,-0.13883112000001005
-14.38577700000007,-1.5941644000000028,-0.13883112000001005
-13.66130200000007,-1.188841313333336,0.0015957666666566266
-12.936827000000072,-0.7835182266666694,0.14202265333332328
-12.212352000000074,-0.3781951400000027,0.28244953999998995
-12.212352000000076,-0.3781951400000027,0.28244953999998995
-12.212352000000076,-0.3781951400000027,0.28244953999998995
-11.248512666666741,-0.269683453333336,0.6558573933333233
-10.284673333333407,-0.16117176666666932,1.0292652466666565
-9.320834000000074,-0.05266008000000266,1.40267309999999
-9.489984666666743,-0.20266153666666933,1.1696921233333233
-9.65913533333341,-0.35266299333333606,0.9367111466666569
-9.828286000000077,-0.5026644500000028,0.7037301699999903
-9.828286000000077,-0.5026644500000028,0.7037301699999903
-9.371899000000077,-0.8122419000000027,0.9111789799999904
-8.915512000000078,-1.1218193500000027,1.1186277899999906
-8.459125000000078,-1.4313968000000026,1.3260765999999906
-8.459125000000078,-1.4313968000000026,1.3260765999999906
-8.59636033333341,-1.6835268666666694,1.3292681333333238
-8.733595666666742,-1.935656933333336,1.332459666666657
-8.870831000000074,-2.187787000000003,1.3356511999999903
-8.870831000000074,-2.1877870000000024,1.3356511999999903
-9.694243000000077,-2.5260881333333356,1.125010856666657
-10.517655000000078,-2.864389266666669,0.9143705133333236
-11.34106700000008,-3.202690400000002,0.7037301699999903
-11.34106700000008,-3.202690400000002,0.7037301699999903
-11.701708666666747,-3.4643950666666687,0.5473456899999903
-12.062350333333413,-3.7260997333333354,0.39096120999999034
-12.422992000000079,-3.987804400000002,0.23457672999999035
-12.422992000000079,-3.987804400000002,0.23457672999999035
-12.544269666666745,-4.0707839333333355,0.5345796199999904
-12.665547333333413,-4.1537634666666685,0.8345825099999904
-12.786825000000078,-4.2367430000000015,1.1345853999999904
-12.786825000000078,-4.236743000000001,1.1345853999999906
-11.280427500000078,-3.8058878000000007,1.501610199999991
-9.774030000000076,-3.375032600000001,1.8686349999999907
-8.267632500000076,-2.944177400000001,2.2356597999999908
-8.267632500000076,-2.944177400000001,2.2356597999999903
-8.369761166666743,-3.0463060666666677,1.827145233333324
-8.471889833333412,-3.148434733333334,1.4186306666666575
-8.57401850000008,-3.2505634000000008,1.010116099999991
-8.57401850000008,-3.2505634000000008,1.0101160999999907
-8.57401850000008,-3.2505634000000008,1.0101160999999907
-8.771893000000079,-2.928219800000001,0.8090503399999909
-8.96976750000008,-2.6058762000000013,0.6079845799999909
-9.167642000000079,-2.2835326000000014,0.40691881999999074
-9.486793666666747,-1.7473572333333347,0.8026673466666575
-9.805945333333412,-1.211181866666668,1.198415873333324
-10.125097000000077,-0.6750065000000015,1.5941643999999908
-10.125097000000077,-0.6750065000000015,1.5941643999999908
-11.005956666666743,-0.5888354666666683,1.5431000666666577
-11.886816333333408,-0.5026644333333349,1.4920357333333243
-12.767676000000074,-0.41649340000000157,1.440971399999991
-12.767676000000074,-0.41649340000000157,1.440971399999991
-12.767676000000074,-0.41649340000000157,1.440971399999991
-13.105977000000074,-0.6909641333333347,1.0164992033333244
-13.444278000000073,-0.965434866666668,0.5920270066666578
-13.782579000000071,-1.2399056000000013,0.16755480999999106
-12.844272333333405,-1.501610266666668,0.16755480999999106
-11.905965666666738,-1.7633149333333347,0.16755480999999106
-10.96765900000007,-2.0250196000000016,0.16755480999999106
-10.96765900000007,-2.0250196000000016,0.16755480999999106
-9.796371133333404,-2.053743266666668,0.5792609066666577
-8.625083266666737,-2.0824669333333348,0.9909670033333243
-7.453795400000071,-2.111190600000002,1.4026730999999908
-7.453795400000071,-2.111190600000002,1.4026730999999912
-7.453795400000071,-2.111190600000002,1.4026730999999912
-7.71869160000007,-1.536716966666668,1.9931043999999911
-7.98358780000007,-0.9622433333333346,2.583535699999991
-8.24848400000007,-0.38776970000000094,3.173966999999991
-8.708062666666736,-0.11968200000000095,3.4516292333333247
-9.167641333333405,0.14840569999999906,3.7292914666666577
-9.627220000000072,0.41649339999999907,4.006953699999991
-9.627220000000072,0.41649339999999907,4.006953699999991
-9.464452666666737,-0.06223460000000092,3.8665267666666576
-9.301685333333403,-0.5409626000000008,3.726099833333324
-9.138918000000068,-1.0196906000000008,3.585672899999991
-9.138918000000066,-1.0196906000000008,3.585672899999991
-9.3495583333334,-1.5590575333333343,2.9377943333333243
-9.560198666666732,-2.098424466666668,2.289915766666658
-9.770839000000064,-2.6377914000000016,1.6420371999999912
-9.770839000000064,-2.6377914000000016,1.6420371999999912
-10.195311000000062,-2.6537490000000017,1.4186307666666578
-10.619783000000062,-2.669706600000002,1.1952243333333248
-11.044255000000062,-2.685664200000002,0.9718178999999916
-11.044255000000062,-2.685664200000002,0.9718178999999916
-11.18468200000006,-2.934602766666669,0.8633062166666582
-11.325109000000062,-3.183541333333336,0.7547945333333249
-11.465536000000062,-3.432479900000003,0.6462828499999915
-11.331492333333395,-3.7516319333333357,0.6654319566666582
-11.19744866666673,-4.070783966666668,0.6845810633333249
-11.063405000000065,-4.389936000000001,0.7037301699999916
-11.063405000000065,-4.389936000000001,0.7037301699999916
-11.063405000000065,-4.389936000000001,0.7037301699999916
-10.610209000000065,-4.227168500000001,0.4835152876666582
-10.157013000000065,-4.064401000000001,0.2633004053333248
-9.703817000000063,-3.9016335000000013,0.0430855229999915
-9.435729333333397,-3.531417133333335,0.18032089533332485
-9.16764166666673,-3.1612007666666684,0.3175562676666582
-8.899554000000064,-2.7909844000000015,0.45479163999999156
-8.899554000000064,-2.7909844000000015,0.45479163999999156
-9.407005666666729,-2.6441745000000014,0.6877726266666583
-9.914457333333395,-2.497364600000002,0.920753613333325
-10.421909000000062,-2.350554700000002,1.1537345999999917
-10.421909000000062,-2.350554700000002,1.1537345999999917
-10.300631333333394,-1.8973588133333354,1.5367169666666587
-10.179353666666728,-1.4441629266666685,1.9196993333333257
-10.058076000000062,-0.9909670400000018,2.3026816999999924
-10.058076000000062,-0.9909670400000018,2.3026816999999924
-10.246375333333395,-0.9909670400000018,2.273958066666659
-10.434674666666728,-0.9909670400000018,2.245234433333325
-10.622974000000061,-0.9909670400000018,2.2165107999999916
-10.622974000000061,-0.9909670400000018,2.2165107999999916
-11.628303333333394,-1.1313939266666682,1.7409742866666582
-12.633632666666728,-1.2718208133333349,1.2654377733333249
-13.638962000000062,-1.4122477000000015,0.7899012599999914
-13.638962000000062,-1.4122477000000015,0.7899012599999914
-13.76981400000006,-1.0835211166666683,0.7420284566666581
-13.90066600000006,-0.7547945333333349,0.6941556533333246
-14.03151800000006,-0.4260679500000017,0.6462828499999912
-14.03151800000006,-0.4260679500000017,0.6462828499999912
-12.100648666666727,0.09414983333333164,0.8026673333333245
-10.169779333333393,0.614367616666665,0.959051816666658
-8.23891000000006,1.1345853999999982,1.1154362999999914
-8.238910000000057,1.1345853999999982,1.1154362999999916
-8.478274000000058,0.690964106666665,1.3484172666666583
-8.717638000000056,0.24734281333333166,1.5813982333333252
-8.957002000000056,-0.19627848000000167,1.814379199999992
-8.957002000000054,-0.19627848000000167,1.814379199999992
-8.957002000000054,-0.19627848000000167,1.814379199999992
-9.046364333333386,-0.5186220200000017,1.5941643333333253
-9.135726666666718,-0.8409655600000017,1.3739494666666585
-9.225089000000049,-1.1633091000000018,1.1537345999999917
-8.794233766666716,-1.125010833333335,1.6037388999999915
-8.363378533333384,-1.0867125666666684,2.053743199999991
-7.93252330000005,-1.0484143000000017,2.503747499999991
-7.93252330000005,-1.0484143000000017,2.503747499999991
-8.248483533333383,-1.3069274333333347,2.325022399999991
-8.564443766666715,-1.565440566666668,2.146297299999991
-8.880404000000048,-1.8239537000000012,1.9675721999999911
-8.880404000000048,-1.8239537000000012,1.9675721999999911
-9.601687666666715,-1.9867212333333344,1.8175707666666574
-10.322971333333383,-2.149488766666668,1.667569333333324
-11.04425500000005,-2.312256300000002,1.5175678999999904
-11.04425500000005,-2.312256300000002,1.5175678999999904
-11.551706666666716,-2.4941729333333353,1.4920357333333236
-12.059158333333384,-2.676089566666669,1.4665035666666573
-12.566610000000052,-2.8580062000000024,1.440971399999991
-12.566610000000054,-2.8580062000000024,1.440971399999991
-12.872996000000052,-3.371840933333336,1.3452257999999908
-13.179382000000052,-3.8856756666666694,1.2494801999999907
-13.48576800000005,-4.399510400000003,1.1537345999999908
-13.48576800000005,-4.399510400000003,1.153734599999991
-12.001711333333382,-4.163337933333335,1.265437799999991
-10.517654666666715,-3.9271654666666684,1.377140999999991
-9.033598000000048,-3.690993000000002,1.488844199999991
-8.54210380000005,-3.438862900000002,1.3005444899999912
-8.050609600000051,-3.186732800000002,1.1122447799999913
-7.559115400000053,-2.9346027000000023,0.9239450699999914
-7.559115400000053,-2.934602700000003,0.9239450699999914
-8.114439933333387,-2.7016217333333366,0.904795946666658
-8.669764466666718,-2.46864076666667,0.8856468233333246
-9.225089000000052,-2.235659800000003,0.8664976999999912
-9.225089000000052,-2.2356598000000028,0.8664976999999912
-9.225089000000052,-2.2356598000000028,0.8664976999999912
-9.180407666666719,-1.7665063666666694,1.1505430333333244
-9.135726333333384,-1.2973529333333362,1.4345883666666577
-9.09104500000005,-0.8281995000000028,1.718633699999991
-9.09104500000005,-0.8281995000000028,1.718633699999991
-9.397431000000047,-0.9941585333333359,1.7952301333333243
-9.703817000000045,-1.1601175666666694,1.8718265666666578
-10.010203000000045,-1.3260766000000028,1.9484229999999911
-11.226172333333375,-1.5909728000000027,1.5207593333333245
-12.442141666666709,-1.8558690000000027,1.0930956666666578
-13.658111000000043,-2.1207652000000023,0.6654319999999911
-13.658111000000043,-2.1207652000000023,0.6654319999999911
-13.658111000000043,-2.1207652000000023,0.6654319999999911
-13.792154666666711,-1.9388485333333358,0.4771322933333244
-13.92619833333338,-1.7569318666666691,0.28883258666665773
-14.060242000000047,-1.5750152000000026,0.1005328799999911
-14.060242000000047,-1.5750152000000026,0.1005328799999911
-13.077254000000046,-1.2367140533333358,0.16436328666665775
-12.094266000000045,-0.898412906666669,0.2281936933333244
-11.111278000000043,-0.5601117600000023,0.29202409999999107
-9.94318146666671,-0.3015986400000023,0.49628137999999106
-8.775084933333376,-0.04308552000000232,0.7005386599999911
-7.606988400000044,0.21542759999999764,0.9047959399999912
-7.606988400000044,0.21542759999999764,0.9047959399999912
-7.606988400000044,0.21542759999999764,0.9047959399999912
-7.8750759333333775,-0.23776826666666903,0.9845839599999912
-8.143163466666712,-0.6909641333333357,1.0643719799999911
-8.411251000000044,-1.1441600000000023,1.144159999999991
-8.411251000000044,-1.1441600000000023,1.1441599999999907
-8.079333100000044,-1.4218222333333357,1.4792696666666574
-7.747415200000044,-1.6994844666666689,1.814379333333324
-7.415497300000044,-1.977146700000002,2.1494889999999907
-7.220814533333377,-1.8303367666666688,2.2675751666666573
-7.026131766666711,-1.6835268333333353,2.385661333333324
-6.8314490000000445,-1.5367169000000018,2.503747499999991
-6.8314490000000445,-1.5367169000000018,2.503747499999991
-6.8314490000000445,-1.5367169000000018,2.503747499999991
-7.460178333333378,-1.6835268333333353,2.379278199999991
-8.088907666666712,-1.8303367666666688,2.254808899999991
-8.717637000000046,-1.9771467000000023,2.130339599999991
-10.134672000000046,-2.1079990666666686,2.107998999999991
-11.551707000000045,-2.2388514333333354,2.0856583999999914
-12.968742000000043,-2.3697038000000017,2.0633177999999917
-12.968742000000043,-2.3697038000000017,2.0633177999999917
-13.007040333333377,-2.315447900000002,2.1558718666666583
-13.04533866666671,-2.2611920000000016,2.248425933333325
-13.083637000000046,-2.206936100000002,2.3409799999999916
-13.083637000000047,-2.206936100000002,2.3409799999999916
-13.128318333333382,-2.634599833333335,2.3792782333333253
-13.172999666666717,-3.0622635666666684,2.417576466666659
-13.21768100000005,-3.4899273000000015,2.4558746999999923
-13.21768100000005,-3.4899273000000015,2.4558746999999923
-13.21768100000005,-3.4899273000000015,2.4558746999999923
-11.848518666666719,-3.493118866666668,2.0984244666666587
-10.479356333333385,-3.496310433333335,1.740974233333325
-9.110194000000051,-3.4995020000000014,1.3835239999999913
-8.637849000000053,-3.1388602000000017,1.3133105333333248
-8.165504000000054,-2.778218400000002,1.243097066666658
-7.693159000000054,-2.417576600000002,1.1728835999999914
-7.693159000000054,-2.417576600000002,1.1728835999999914
-7.479327333333387,-2.143105866666669,1.2941613666666583
-7.2654956666667205,-1.8686351333333355,1.4154391333333247
-7.051664000000055,-1.5941644000000021,1.5367168999999912
-7.051664000000055,-1.5941644000000021,1.5367168999999912
-7.051664000000055,-1.5941644000000021,1.5367168999999912
-6.981450466666722,-1.3452258000000021,1.8399113666666578
-6.911236933333389,-1.0962872000000021,2.1431058333333244
-6.841023400000057,-0.847348600000002,2.4463002999999905
-6.767618466666722,-0.9430942000000021,2.2133192666666575
-6.6942135333333885,-1.0388398000000019,1.9803382333333241
-6.620808600000054,-1.1345854000000017,1.7473571999999908
-6.620808600000056,-1.1345854000000017,1.7473571999999908
-6.8505980666667226,-1.5909727666666684,1.530333833333324
-7.080387533333389,-2.0473601333333353,1.3133104666666575
-7.310177000000055,-2.503747500000002,1.0962870999999907
-7.310177000000055,-2.5037475000000025,1.0962870999999905
-7.310177000000055,-2.5037475000000025,1.0962870999999905
-8.414442666666721,-2.666515066666669,1.128202333333324
-9.518708333333388,-2.8292826333333356,1.1601175666666574
-10.622974000000054,-2.9920502000000027,1.1920327999999907
-11.468727166666723,-2.711196466666669,1.201607333333324
-12.314480333333387,-2.4303427333333363,1.211181866666657
-13.160233500000055,-2.149489000000003,1.22075639999999
-13.160233500000055,-2.1494890000000035,1.22075639999999
-13.91981533333339,-2.1016161000000038,0.9622432899999903
-14.679397166666723,-2.053743200000004,0.7037301799999905
-15.438979000000055,-2.005870300000004,0.44521706999999067
-15.438979000000055,-2.0058703000000047,0.44521706999999067
-15.438979000000055,-2.0058703000000047,0.44521706999999067
-14.181520000000054,-1.9037417000000048,0.8026673466666572
-12.924061000000052,-1.801613100000005,1.1601176233333237
-11.666602000000049,-1.6994845000000052,1.51756789999999
-11.666602000000049,-1.6994845000000052,1.51756789999999
-10.721912000000051,-1.0579889433333387,1.4888441999999902
-9.777222000000052,-0.41649338666667185,1.4601204999999904
-8.832532000000052,0.2250021699999948,1.4313967999999904
-8.238909333333387,0.3079816899999948,0.946285732666657
-7.64528666666672,0.39096120999999484,0.46117466533332374
-7.051664000000052,0.47394072999999487,-0.023936402000009533
-7.051664000000052,0.47394072999999487,-0.023936402000009533
-7.051664000000052,0.47394072999999487,-0.023936402000009533
-6.655915500000052,-0.4388340466666718,0.07500072533332379
-6.260167000000052,-1.3516088233333383,0.17393785266665715
-5.864418500000053,-2.264383600000005,0.2728749799999905
-5.864418500000053,-2.2643836000000044,0.2728749799999905
-6.2186772000000525,-2.187787066666671,0.19947001333332384
-6.572935900000053,-2.1111905333333376,0.1260650466666572
-6.927194600000053,-2.0345940000000042,0.052660079999990526
-7.08996216666672,-1.8941671333333379,0.0973413666666572
-7.252729733333386,-1.7537402666666715,0.14202265333332387
-7.415497300000053,-1.6133134000000051,0.18670393999999055
-7.415497300000053,-1.6133134000000051,0.18670393999999055
-7.415497300000053,-1.6133134000000051,0.18670393999999055
-7.629329200000053,-1.9133162666666719,0.49947289333332384
-7.843161100000053,-2.2133191333333384,0.8122418466666571
-8.056993000000054,-2.513322000000005,1.1250107999999905
-8.056993000000054,-2.5133220000000045,1.1250107999999905
-7.96443876666672,-2.411193366666671,1.396290033333324
-7.871884533333386,-2.309064733333338,1.667569266666657
-7.779330300000052,-2.206936100000004,1.9388484999999902
-7.9516722000000515,-2.459066233333337,2.04736019999999
-8.124014100000053,-2.711196366666671,2.15587189999999
-8.296356000000054,-2.9633265000000044,2.26438359999999
-8.296356000000056,-2.9633265000000044,2.2643835999999897
-8.296356000000056,-2.9633265000000044,2.2643835999999897
-9.78360433333339,-3.263329366666671,2.296298733333323
-11.270852666666721,-3.5633322333333375,2.3282138666666565
-12.758101000000053,-3.863335100000004,2.36012899999999
-12.758101000000053,-3.863335100000004,2.36012899999999
-11.666601666666722,-3.595247400000004,2.3026816666666563
-10.575102333333389,-3.327159700000004,2.245234333333323
-9.483603000000056,-3.059072000000004,2.1877869999999895
-9.483603000000054,-3.059072000000004,2.1877869999999895
-9.917649666666719,-2.8420486666666704,2.2069361666666563
-10.351696333333384,-2.625025333333337,2.226085333333323
-10.785743000000048,-2.4080020000000033,2.24523449999999
-10.785743000000048,-2.4080020000000033,2.24523449999999
-10.80170033333338,-2.4431086666666704,2.1494888666666565
-10.817657666666713,-2.478215333333337,2.053743233333323
-10.833615000000046,-2.513322000000004,1.95799759999999
-10.833615000000046,-2.513322000000004,1.95799759999999
-10.211268666666713,-2.3282138666666707,2.17182949999999
-9.588922333333379,-2.1431057333333374,2.38566139999999
-8.966576000000044,-1.9579976000000041,2.59949329999999
-8.966576000000043,-1.9579976000000041,2.5994932999999905
-8.778276333333377,-2.0186365000000035,2.360129266666657
-8.589976666666711,-2.0792754000000033,2.120765233333324
-8.401677000000046,-2.1399143000000027,1.8814011999999904
-8.401677000000047,-2.1399143000000023,1.8814011999999904
-8.398485333333381,-1.9484231000000023,1.9037417999999906
-8.395293666666715,-1.7569319000000023,1.9260823999999905
-8.39210200000005,-1.5654407000000023,1.9484229999999905
-8.39210200000005,-1.5654407000000023,1.9484229999999905
-8.727211666666713,-1.6165050333333355,1.7601233333333237
-9.06232133333338,-1.6675693666666689,1.571823666666657
-9.397431000000045,-1.7186337000000023,1.38352399999999
-9.30168533333338,-1.827145366666669,1.3548002999999902
-9.205939666666714,-1.9356570333333358,1.3260765999999902
-9.110194000000048,-2.0441687000000024,1.2973528999999904
-9.110194000000048,-2.0441687000000024,1.2973528999999904
-9.110194000000048,-2.0441687000000024,1.2973528999999904
-9.544240666666715,-1.8941672666666693,1.1250108199999904
-9.978287333333382,-1.744165833333336,0.9526687399999906
-10.41233400000005,-1.5941644000000028,0.7803266599999906
-10.386802000000047,-1.6324626000000027,0.8154333733333239
-10.361270000000047,-1.6707608000000025,0.8505400866666571
-10.335738000000047,-1.7090590000000023,0.8856467999999905
-10.335738000000047,-1.7090590000000023,0.8856467999999905
-10.00062833333338,-1.9452315333333356,0.9750093999999905
-9.665518666666712,-2.181404066666669,1.0643719999999905
-9.330409000000044,-2.4175766000000025,1.1537345999999904
-9.330409000000042,-2.4175766000000025,1.1537345999999904
-9.02083166666671,-2.2037447333333358,1.042031366666657
-8.711254333333377,-1.9899128666666688,0.9303281333333236
-8.401677000000046,-1.776081000000002,0.8186248999999902
-8.401677000000047,-1.776081000000002,0.8186248999999902
-8.66019033333338,-1.9388485333333356,0.6750064999999901
-8.918703666666714,-2.101616066666669,0.5313880999999901
-9.177217000000047,-2.2643836000000026,0.38776969999999017
-9.177217000000047,-2.2643836000000026,0.38776969999999017
-9.569773666666713,-2.5165137333333365,0.5122389799999901
-9.962330333333378,-2.76864386666667,0.6367082599999903
-10.354887000000046,-3.0207740000000034,0.7611775399999902
-10.354887000000046,-3.0207740000000043,0.7611775399999902
-10.610208500000047,-3.0239654333333377,0.71968777999999
-10.865530000000048,-3.027156866666671,0.6781980199999899
-11.120851500000049,-3.030348300000005,0.6367082599999898
-11.120851500000049,-3.030348300000005,0.6367082599999898
-12.107031500000048,-3.2920530000000046,0.7101132266666564
-13.093211500000047,-3.5537577000000042,0.7835181933333232
-14.079391500000048,-3.8154624000000044,0.8569231599999899
-14.079391500000048,-3.8154624000000044,0.8569231599999899
-13.051722000000048,-3.8729097333333375,1.23352253999999
-12.024052500000048,-3.930357066666671,1.61012191999999
-10.99638300000005,-3.987804400000005,1.9867212999999901
-10.99638300000005,-3.987804400000005,1.9867212999999901
-10.105948666666714,-3.611205000000005,1.98991279999999
-9.215514333333381,-3.234605600000005,1.9931042999999897
-8.325080000000048,-2.858006200000005,1.9962957999999895
-8.325080000000048,-2.858006200000005,1.996295799999989
-8.325080000000048,-2.858006200000005,1.996295799999989
-8.985724666666714,-2.605876133333338,2.1271481333333226
-9.646369333333382,-2.3537460666666714,2.258000466666656
-10.30701400000005,-2.101616000000005,2.3888527999999893
-10.067650166666716,-1.884592633333338,2.3186393333333224
-9.828286333333383,-1.6675692666666713,2.2484258666666554
-9.58892250000005,-1.4505459000000045,2.1782123999999885
-9.58892250000005,-1.4505459000000045,2.1782123999999885
-9.614454666666715,-1.3707579000000045,2.0601261666666555
-9.63998683333338,-1.2909699000000046,1.9420399333333223
-9.665519000000044,-1.2111819000000044,1.8239536999999888
-9.665519000000042,-1.2111819000000044,1.8239536999999888
-10.351696000000043,-1.338842733333338,1.632462499999989
-11.037873000000042,-1.4665035666666715,1.4409712999999893
-11.724050000000043,-1.594164400000005,1.2494800999999895
-11.724050000000043,-1.594164400000005,1.2494800999999895
-12.56341966666671,-1.6611862666666717,0.9430941766666558
-13.402789333333379,-1.7282081333333383,0.6367082533333225
-14.242159000000045,-1.7952300000000048,0.33032232999998895
-14.242159000000045,-1.7952300000000048,0.33032232999998895
-14.293223000000046,-0.6047930000000048,0.11968199666665565
-14.344287000000046,0.5856439999999953,-0.09095833666667769
-14.395351000000048,1.7760809999999954,-0.301598670000011
-14.395351000000048,1.7760809999999954,-0.30159867000001106
-12.05596690000005,1.5686321999999955,0.28883255333332225
-9.71658280000005,1.3611833999999956,0.8792637766666557
-7.377198700000047,1.1537345999999957,1.4696949999999889
-7.377198700000047,1.1537345999999957,1.4696949999999889
-7.817628466666714,1.0196907333333292,1.2335225133333223
-8.25805823333338,0.8856468666666627,0.9973500266666558
-8.698488000000047,0.7516029999999961,0.7611775399999893
-8.698488000000049,0.7516029999999961,0.7611775399999893
-8.918703000000049,-0.03670246666667051,0.8250079599999894
-9.13891800000005,-0.8250079333333371,0.8888383799999895
-9.359133000000051,-1.6133134000000038,0.9526687999999895
-9.359133000000051,-1.6133134000000038,0.9526687999999895
-9.27934500000005,-2.0409771333333375,1.4122476666666561
-9.19955700000005,-2.4686408666666706,1.8718265333333228
-9.11976900000005,-2.896304600000004,2.3314053999999893
-9.11976900000005,-2.896304600000004,2.3314053999999893
-9.81232900000005,-2.7080048666666703,2.0058703666666564
-10.50488900000005,-2.519705133333337,1.680335333333323
-11.19744900000005,-2.331405400000003,1.3548002999999895
-11.19744900000005,-2.331405400000003,1.3548002999999895
-11.714475333333384,-2.644174400000003,1.0707550166666564
-12.231501666666718,-2.956943400000003,0.7867097333333231
-12.748528000000052,-3.269712400000003,0.5026644499999898
-12.748528000000052,-3.269712400000003,0.5026644499999898
-12.758102333333385,-3.47396966666667,0.8058588666666564
-12.767676666666718,-3.678226933333337,1.109053283333323
-12.777251000000051,-3.882484200000004,1.4122476999999896
-12.777251000000051,-3.882484200000004,1.4122476999999896
-11.235747000000053,-3.981421300000004,1.3835239999999898
-9.694243000000055,-4.080358400000004,1.35480029999999
-8.152739000000055,-4.179295500000005,1.32607659999999
-8.593168666666722,-3.987804333333337,0.8441570633333232
-9.033598333333389,-3.7963131666666707,0.3622375266666565
-9.474028000000056,-3.604822000000004,-0.11968201000001022
-9.474028000000056,-3.604822000000004,-0.11968201000001022
-9.474028000000056,-3.604822000000004,-0.11968201000001022
-9.407006000000054,-2.9377943000000037,0.1484056933333231
-9.339984000000054,-2.2707666000000035,0.4164933966666564
-9.272962000000055,-1.6037389000000033,0.6845810999999897
-9.043172333333388,-1.3420342333333366,1.0452228666666563
-8.81338266666672,-1.08032956666667,1.4058646333333231
-8.583593000000056,-0.8186249000000032,1.76650639999999
-8.583593000000056,-0.8186249000000032,1.76650639999999
-8.583593000000056,-0.8186249000000032,1.76650639999999
-8.583593000000056,-0.8186249000000032,1.76650639999999
-8.583593000000056,-0.8186249000000032,1.76650639999999
-8.583593000000056,-0.8186249000000032,1.76650639999999
-10.843189333333386,-1.17607516666667,1.2750122999999898
-13.10278566666672,-1.5335254333333366,0.7835181999999898
-15.362382000000055,-1.8909757000000036,0.29202409999998985
-15.362382000000059,-1.8909757000000036,0.2920240999999898
-14.813440666666727,-1.07075501666667,0.4643661999999898
-14.264499333333395,-0.2505343333333366,0.6367082999999898
-13.715558000000064,0.5696863499999968,0.8090503999999897
-13.715558000000064,0.5696863499999968,0.8090503999999897
-12.113414666666728,0.6686234666666634,1.150543033333323
-10.511271333333394,0.7675605833333301,1.4920356666666563
-8.909128000000061,0.8664976999999968,1.8335282999999896
-8.909128000000061,0.8664976999999968,1.8335282999999896
-8.995299333333397,0.9430941666666635,1.884592633333323
-9.081470666666732,1.0196906333333302,1.935656966666656
-9.167642000000066,1.0962870999999967,1.9867212999999895
-9.167642000000066,1.0962870999999965,1.9867212999999895
-9.247429666666733,0.6526658233333298,2.0377856333333226
-9.3272173333334,0.20904454666666306,2.0888499666666562
-9.407005000000064,-0.23457673000000365,2.1399142999999894
-9.036788666666732,-0.780326653333337,2.0409771666666563
-8.6665723333334,-1.3260765766666702,1.942040033333323
-8.296356000000069,-1.8718265000000036,1.8431028999999894
-8.29635600000007,-1.8718265000000036,1.8431028999999894
-8.65699800000007,-2.1303396666666705,1.7345912333333227
-9.017640000000073,-2.3888528333333374,1.6260795666666559
-9.378282000000073,-2.6473660000000043,1.517567899999989
-9.378282000000075,-2.6473660000000048,1.517567899999989
-10.332546500000076,-2.7750267666666715,1.338842746666656
-11.286811000000077,-2.902687533333338,1.1601175933333228
-12.241075500000077,-3.030348300000005,0.9813924399999898
-12.241075500000077,-3.030348300000005,0.9813924399999898
-12.365545000000076,-3.202690433333338,0.9271365933333232
-12.490014500000074,-3.375032566666672,0.8728807466666565
-12.614484000000074,-3.5473747000000055,0.8186248999999899
-12.614484000000074,-3.5473747000000055,0.8186248999999899
-12.324055333333407,-3.9175911333333384,0.8792637999999898
-12.033626666666741,-4.287807566666671,0.9399026999999899
-11.743198000000076,-4.658024000000004,1.0005415999999898
-11.743198000000076,-4.658024000000004,1.00054159999999
-10.619783000000076,-4.431425933333337,0.7324538933333233
-9.496368000000077,-4.20482786666667,0.4643661866666567
-8.372953000000079,-3.9782298000000034,0.19627847999999
-8.68253033333341,-3.5282254333333367,0.20904456333332333
-8.992107666666742,-3.078221066666671,0.22181064666665665
-9.301685000000075,-2.6282167000000047,0.23457672999999
-9.301685000000075,-2.628216700000005,0.23457672999999
-9.308068000000075,-2.018636400000005,0.41330186333332336
-9.314451000000075,-1.409056100000005,0.5920269966666566
-9.320834000000074,-0.7994758000000047,0.7707521299999899
-9.320834000000074,-0.7994758000000047,0.7707521299999899
-9.53147466666674,-0.6813895566666713,1.15054301999999
-9.742115333333409,-0.5633033133333379,1.53033390999999
-9.952756000000077,-0.4452170700000046,1.9101247999999902
-9.952756000000077,-0.4452170700000046,1.9101247999999902
-10.41552633333341,-0.7579860466666712,1.4792695766666568
-10.878296666666744,-1.0707550233333378,1.0484143533333234
-11.341067000000079,-1.3835240000000046,0.6175591299999901
-11.341067000000079,-1.3835240000000049,0.61755912999999
-12.490014333333411,-1.3835240000000049,0.24734280333332334
-13.638961666666743,-1.3835240000000049,-0.12287352333334332
-14.787909000000075,-1.3835240000000049,-0.49308985000001
-14.787909000000075,-1.3835240000000049,-0.49308985000001
-14.787909000000075,-1.3835240000000049,-0.49308985000001
-13.734707333333409,-0.7994758100000049,-0.0941498433333433
-12.681505666666743,-0.21542762000000484,0.30479016333332337
-11.628304000000076,0.36862056999999515,0.7037301699999902
-10.42829233333341,-0.15159722000000492,1.4186307133333234
-9.228280666666743,-0.671815010000005,2.133531256666657
-8.028269000000078,-1.192032800000005,2.84843179999999
-8.028269000000078,-1.1920328000000049,2.84843179999999
-8.567636000000077,-0.9143705333333382,2.8165165333333237
-9.107003000000075,-0.6367082666666714,2.784601266666657
-9.646370000000074,-0.3590460000000045,2.7526859999999904
-9.646370000000074,-0.3590460000000045,2.7526859999999904
-9.646370000000074,-0.3590460000000045,2.7526859999999904
-9.43572966666674,-0.49308984666667116,2.615450666666657
-9.225089333333408,-0.6271336933333378,2.4782153333333237
-9.014449000000075,-0.7611775400000044,2.34097999999999
-8.714446000000075,-1.1154362600000043,2.0665092999999897
-8.414443000000077,-1.469694980000004,1.7920385999999897
-8.114440000000078,-1.823953700000004,1.5175678999999895
-8.114440000000078,-1.823953700000004,1.5175678999999895
-8.755935666666744,-2.1654464000000044,1.1473515399999894
-9.39743133333341,-2.5069391000000043,0.7771351799999896
-10.038927000000077,-2.8484318000000037,0.4069188199999898
-10.038927000000077,-2.8484318000000037,0.4069188199999898
-10.718720666666743,-2.8675808666666707,0.1260650466666565
-11.39851433333341,-2.886729933333337,-0.15478872666667684
-12.078308000000076,-2.905879000000004,-0.4356425000000102
-12.078308000000076,-2.905879000000004,-0.4356425000000102
-12.34958733333341,-3.113327800000004,-0.35585449333334357
-12.620866666666744,-3.320776600000004,-0.2760664866666769
-12.89214600000008,-3.5282254000000037,-0.19627848000001022
-12.892146000000082,-3.5282254000000037,-0.19627848000001022
-12.525121000000084,-3.8952502666666704,0.06542617999998977
-12.158096000000086,-4.262275133333337,0.32713083999998976
-11.791071000000088,-4.629300000000004,0.5888354999999897
-11.791071000000088,-4.629300000000004,0.5888354999999897
-10.878296333333418,-4.351637766666671,0.29840715333332307
-9.965521666666751,-4.073975533333338,0.007978806666656402
-9.052747000000082,-3.796313300000005,-0.28244954000001027
-9.05274700000008,-3.796313300000005,-0.2824495400000102
-9.263387333333414,-3.365458033333338,0.5856439733333231
-9.474027666666746,-2.9346027666666714,1.4537374866666564
-9.684668000000078,-2.5037475000000047,2.3218309999999893
-9.684668000000078,-2.5037475000000047,2.3218309999999893
-10.227226666666743,-2.143105733333338,2.1941701666666567
-10.769785333333408,-1.7824639666666713,2.0665093333333235
-11.312344000000072,-1.4218222000000047,1.9388484999999906
-11.312344000000072,-1.4218222000000047,1.9388484999999906
-11.063405333333407,-1.4665035000000046,1.5399084666666571
-10.81446666666674,-1.5111848000000048,1.1409684333333239
-10.565528000000075,-1.5558661000000047,0.7420283999999905
-10.565528000000077,-1.5558661000000047,0.7420283999999905
-10.536804333333409,-1.3388427133333378,0.3271307833333238
-10.508080666666743,-1.121819326666671,-0.0877668333333429
-10.479357000000077,-0.9047959400000041,-0.5026644500000096
-10.479357000000077,-0.9047959400000041,-0.5026644500000096
-10.868722000000076,-1.1282023600000042,-0.7930927666666762
-11.258087000000076,-1.351608780000004,-1.0835210833333428
-11.647452000000078,-1.5750152000000044,-1.3739494000000094
