accx,accy,accz
-0.8186249,3.2218397000000003,4.2463174000000015
-1.17288365,2.1925744000000003,4.20323205
-1.2909699000000001,1.849485966666667,4.188870266666667
-1.5271424,1.1633091000000002,4.160146699999999
-1.5271424,1.1633091000000002,4.1601467
-2.8452402666666665,0.47074922000000013,4.278232900000001
-4.163338133333333,-0.22181065999999983,4.396319100000001
-5.481436000000001,-0.9143705399999998,4.514405300000002
-5.4814359999999995,-0.9143705399999998,4.514405300000003
-6.604850999999999,-1.8590605266666664,3.8792927666666692
-7.728265999999998,-2.8037505133333327,3.2441802333333363
-8.851680999999997,-3.7484404999999996,2.609067700000003
-8.851680999999997,-3.7484404999999996,2.609067700000003
-10.409142999999998,-4.635682999999999,1.8462943866666695
-11.966605,-5.522925499999999,1.0835210733333358
-13.524067,-6.410167999999998,0.32074776000000255
-13.524067,-6.410167999999998,0.32074776000000255
-13.377257,-6.346337666666664,-0.1994700266666641
-13.230446999999998,-6.2825073333333314,-0.7196878133333308
-13.083636999999996,-6.218676999999999,-1.2399055999999973
-13.083636999999996,-6.218676999999999,-1.2399055999999973
-12.595334333333332,-6.199527866666666,-1.3388426999999972
-12.107031666666666,-6.180378733333332,-1.437779799999997
-11.618729000000002,-6.161229599999999,-1.5367168999999972
-11.618729000000002,-6.161229599999999,-1.5367168999999972
-11.26127866666667,-5.7335659666666645,-1.3101189866666638
-10.903828333333337,-5.305902333333331,-1.0835210733333305
-10.546378000000004,-4.878238699999998,-0.856923159999997
-10.546378000000006,-4.878238699999997,-0.856923159999997
-10.281482000000006,-4.606959366666664,-0.8633062066666638
-10.016586000000006,-4.33568003333333,-0.8696892533333305
-9.751690000000005,-4.064400699999997,-0.8760722999999971
-9.751690000000005,-4.064400699999997,-0.8760722999999971
-9.595305500000006,-3.9941872999999966,-0.9207535666666637
-9.438921000000006,-3.9239738999999965,-0.9654348333333304
-9.282536500000008,-3.8537604999999964,-1.010116099999997
-9.282536500000008,-3.8537604999999964,-1.0101160999999967
-9.410197333333342,-3.5314169999999963,-0.97820091333333
-9.537858166666673,-3.2090734999999966,-0.9462857266666633
-9.665519000000005,-2.8867299999999965,-0.9143705399999966
-9.665519000000005,-2.8867299999999965,-0.9143705399999966
-9.579347666666672,-2.7686437333333296,-0.9271366266666634
-9.49317633333334,-2.650557466666663,-0.9399027133333302
-9.407005000000007,-2.5324711999999963,-0.952668799999997
-9.407005000000007,-2.5324711999999963,-0.952668799999997
-9.403813666666673,-2.4143849333333294,-1.0324567999999972
-9.40062233333334,-2.296298666666663,-1.1122447999999971
-9.397431000000006,-2.178212399999996,-1.1920327999999973
-9.397431000000006,-2.178212399999996,-1.1920327999999973
-9.371898666666674,-1.9931042666666627,-1.2239479999999971
-9.346366333333341,-1.8079961333333294,-1.2558631999999972
-9.320834000000007,-1.6228879999999961,-1.2877783999999972
-9.320834000000007,-1.6228879999999961,-1.2877783999999972
-9.244237666666676,-1.5622491333333297,-1.2877783999999972
-9.167641333333343,-1.5016102666666633,-1.2877783999999972
-9.09104500000001,-1.440971399999997,-1.2877783999999972
-9.09104500000001,-1.440971399999997,-1.2877783999999972
-9.113385666666678,-1.5079933333333304,-1.3069274999999971
-9.135726333333345,-1.5750152666666637,-1.326076599999997
-9.158067000000012,-1.6420371999999972,-1.3452256999999967
-9.158067000000012,-1.6420371999999972,-1.3452256999999967
-9.215514333333346,-1.657994766666664,-1.38033243333333
-9.27296166666668,-1.6739523333333304,-1.415439166666663
-9.330409000000012,-1.6899098999999966,-1.4505458999999963
-9.330409000000014,-1.6899098999999964,-1.4505458999999963
-9.33360066666668,-1.6484201666666631,-1.415439166666663
-9.336792333333346,-1.6069304333333296,-1.38033243333333
-9.339984000000012,-1.5654406999999964,-1.3452256999999967
-9.33998400000001,-1.5654406999999964,-1.3452256999999967
-9.34636700000001,-1.6037389333333296,-1.3292680999999966
-9.35275000000001,-1.6420371666666629,-1.3133104999999965
-9.359133000000009,-1.6803353999999961,-1.2973528999999964
-9.359133000000009,-1.6803353999999961,-1.2973528999999964
-9.343175333333344,-1.6931014999999963,-1.2973528999999964
-9.327217666666678,-1.7058675999999962,-1.2973528999999964
-9.311260000000013,-1.7186336999999963,-1.2973528999999964
-9.311260000000015,-1.7186336999999963,-1.2973528999999964
-9.336792166666681,-1.7377827999999962,-1.3101189999999965
-9.36232433333335,-1.756931899999996,-1.3228850999999964
-9.387856500000016,-1.776080999999996,-1.3356511999999965
-9.387856500000018,-1.776080999999996,-1.3356511999999965
-9.336792333333351,-1.8111877333333293,-1.2909698999999966
-9.285728166666686,-1.8462944666666623,-1.2462885999999964
-9.234664000000022,-1.8814011999999956,-1.2016072999999965
-9.234664000000022,-1.8814011999999956,-1.2016072999999965
-9.231472333333356,-1.9005502999999955,-1.1952242666666633
-9.22828066666669,-1.9196993999999954,-1.1888412333333298
-9.225089000000024,-1.9388484999999953,-1.1824581999999966
-9.225089000000024,-1.9388484999999953,-1.1824581999999966
-9.225089000000024,-1.9388484999999953,-1.1824581999999966
-9.225089000000024,-1.9388484999999953,-1.1824581999999966
-9.225089000000024,-1.9388484999999953,-1.1824581999999966
-9.263387333333357,-1.9484230666666622,-1.1569260666666634
-9.301685666666689,-1.9579976333333289,-1.13139393333333
-9.33998400000002,-1.9675721999999958,-1.105861799999997
-9.33998400000002,-1.9675721999999958,-1.1058617999999971
-9.33998400000002,-1.9675721999999958,-1.1058617999999971
-9.282536666666687,-2.0026789333333292,-1.0643720133333303
-9.225089333333353,-2.0377856666666623,-1.0228822266666637
-9.16764200000002,-2.0728923999999957,-0.981392439999997
-9.183599333333353,-2.082466933333329,-0.9941584933333304
-9.199556666666686,-2.0920414666666622,-1.0069245466666639
-9.215514000000018,-2.101615999999995,-1.0196905999999972
-9.215514000000018,-2.101615999999995,-1.0196905999999972
-9.215514000000018,-2.101615999999995,-1.0196905999999972
-9.215514000000018,-2.1175736666666616,-1.0292651666666641
-9.215514000000018,-2.133531333333328,-1.038839733333331
-9.215514000000018,-2.149488999999994,-1.0484142999999977
-9.228280333333352,-2.1686380333333277,-1.0484142999999977
-9.241046666666685,-2.1877870666666612,-1.0484142999999977
-9.25381300000002,-2.206936099999995,-1.0484142999999977
-9.25381300000002,-2.206936099999995,-1.0484142999999977
-9.234663666666686,-2.2165106666666623,-1.0260736799999977
-9.215514333333353,-2.226085233333329,-1.0037330599999974
-9.19636500000002,-2.2356597999999956,-0.9813924399999975
-9.19636500000002,-2.2356597999999956,-0.9813924399999975
-9.20274800000002,-2.254808966666662,-0.9718178933333309
-9.209131000000019,-2.2739581333333283,-0.9622433466666642
-9.215514000000018,-2.293107299999994,-0.9526687999999975
-9.215514000000018,-2.293107299999994,-0.9526687999999975
-9.257004000000018,-2.293107299999994,-0.9718178999999977
-9.29849400000002,-2.293107299999994,-0.9909669999999976
-9.33998400000002,-2.293107299999994,-1.0101160999999974
-9.33998400000002,-2.293107299999994,-1.0101160999999974
-9.29849400000002,-2.2994902999999947,-0.9909669999999974
-9.257004000000018,-2.3058732999999947,-0.9718178999999975
-9.215514000000018,-2.3122562999999947,-0.9526687999999975
-9.215514000000018,-2.3122562999999947,-0.9526687999999975
-9.221897333333352,-2.302681733333328,-0.9686263999999976
-9.228280666666686,-2.2931071666666614,-0.9845839999999976
-9.234664000000022,-2.2835325999999943,-1.0005415999999976
-9.234664000000022,-2.2835325999999943,-1.0005415999999976
-9.231472333333356,-2.3058732999999942,-1.0164991666666643
-9.22828066666669,-2.3282139999999947,-1.032456733333331
-9.225089000000024,-2.350554699999995,-1.0484142999999977
-9.225089000000024,-2.350554699999995,-1.0484142999999977
-9.202748333333357,-2.350554699999995,-1.051605833333331
-9.18040766666669,-2.350554699999995,-1.0547973666666641
-9.158067000000022,-2.350554699999995,-1.0579888999999973
-9.158067000000022,-2.350554699999995,-1.0579888999999973
-9.148492333333353,-2.3409801333333284,-1.0484143666666643
-9.138917666666686,-2.3314055666666618,-1.0388398333333313
-9.129343000000018,-2.3218309999999946,-1.029265299999998
-9.129343000000018,-2.3218309999999946,-1.0292652999999983
-9.167641333333352,-2.3441715999999952,-1.042031366666665
-9.205939666666687,-2.3665121999999954,-1.0547974333333314
-9.244238000000022,-2.3888527999999956,-1.0675634999999981
-9.244238000000022,-2.3888527999999956,-1.067563499999998
-9.292110833333357,-2.392044366666662,-1.0292652666666644
-9.339983666666692,-2.395235933333329,-0.9909670333333308
-9.387856500000025,-2.3984274999999955,-0.9526687999999975
-9.387856500000026,-2.3984274999999955,-0.9526687999999975
-9.324026000000027,-2.4111935333333285,-0.9143705466666643
-9.260195500000028,-2.4239595666666616,-0.8760722933333308
-9.196365000000029,-2.436725599999994,-0.8377740399999974
-9.196365000000029,-2.436725599999994,-0.8377740399999972
-9.145300666666694,-2.439917166666661,-0.8473485933333306
-9.094236333333361,-2.4431087333333275,-0.8569231466666638
-9.043172000000027,-2.446300299999994,-0.866497699999997
-9.043172000000027,-2.446300299999994,-0.866497699999997
-9.110194000000027,-2.487790033333327,-0.9494772333333303
-9.177216000000024,-2.5292797666666607,-1.0324567666666635
-9.244238000000024,-2.570769499999994,-1.115436299999997
-9.244238000000022,-2.570769499999994,-1.115436299999997
-9.19955666666669,-2.5580033999999943,-1.1026702333333303
-9.154875333333354,-2.5452372999999944,-1.0899041666666636
-9.11019400000002,-2.532471199999995,-1.077138099999997
-9.11019400000002,-2.532471199999995,-1.077138099999997
-9.075087333333352,-2.510130566666662,-1.0292652866666636
-9.039980666666686,-2.487789933333328,-0.9813924733333304
-9.00487400000002,-2.4654492999999946,-0.933519659999997
-9.00487400000002,-2.4654492999999946,-0.933519659999997
-9.03678900000002,-2.4335341333333282,-0.9430942066666637
-9.06870400000002,-2.401618966666662,-0.9526687533333303
-9.100619000000021,-2.369703799999995,-0.9622432999999969
-9.100619000000021,-2.369703799999995,-0.9622432999999969
-9.145300666666687,-2.3569376666666617,-0.971817879999997
-9.189982333333354,-2.3441715333333284,-0.9813924599999971
-9.234664000000022,-2.3314053999999946,-0.9909670399999971
-9.247430000000021,-2.318639366666661,-0.9718179133333305
-9.26019600000002,-2.3058733333333277,-0.9526687866666638
-9.27296200000002,-2.293107299999994,-0.933519659999997
-9.27296200000002,-2.293107299999994,-0.933519659999997
-9.27296200000002,-2.293107299999994,-0.933519659999997
-9.241047000000018,-2.3154478666666614,-0.9079874933333304
-9.209132000000018,-2.3377884333333285,-0.8824553266666637
-9.177217000000018,-2.3601289999999957,-0.856923159999997
-9.177217000000018,-2.3601289999999957,-0.856923159999997
-9.161259000000017,-2.366512066666662,-0.8441570733333305
-9.145301000000018,-2.3728951333333286,-0.8313909866666638
-9.129343000000018,-2.379278199999995,-0.8186248999999971
-9.129343000000018,-2.379278199999995,-0.8186248999999971
-9.138917666666686,-2.427151066666662,-0.8218164333333305
-9.148492333333353,-2.4750239333333286,-0.8250079666666639
-9.158067000000022,-2.522896799999995,-0.8281994999999972
-9.151684000000023,-2.516513699999995,-0.8218164666666637
-9.145301000000023,-2.5101305999999948,-0.8154334333333303
-9.138918000000023,-2.5037474999999945,-0.8090503999999968
-9.138918000000023,-2.5037474999999945,-0.8090503999999968
-9.138918000000023,-2.516513599999995,-0.8090503999999968
-9.138918000000023,-2.529279699999995,-0.8090503999999968
-9.138918000000023,-2.5420457999999955,-0.8090503999999968
-9.138918000000023,-2.5420457999999955,-0.8090503999999968
-9.129343333333358,-2.5452372666666623,-0.828199499999997
-9.119768666666692,-2.548428733333329,-0.847348599999997
-9.110194000000027,-2.5516201999999955,-0.866497699999997
-9.110194000000028,-2.5516201999999955,-0.866497699999997
-9.12296033333336,-2.522896566666662,-0.879263779999997
-9.135726666666692,-2.4941729333333282,-0.8920298599999971
-9.148493000000023,-2.4654492999999946,-0.9047959399999971
-9.148493000000022,-2.4654492999999946,-0.9047959399999971
-9.132535000000022,-2.462257766666662,-0.8856468266666636
-9.116577000000023,-2.459066233333329,-0.8664977133333301
-9.100619000000021,-2.455874699999996,-0.8473485999999967
-9.100619000000021,-2.455874699999996,-0.8473485999999966
-9.116577000000019,-2.430342533333329,-0.8409655666666632
-9.132535000000017,-2.4048103666666623,-0.83458253333333
-9.148493000000014,-2.379278199999995,-0.8281994999999966
-9.148493000000013,-2.3920443333333288,-0.8633062199999966
-9.148493000000013,-2.404810466666662,-0.8984129399999965
-9.148493000000013,-2.4175765999999954,-0.9335196599999964
-9.148493000000013,-2.4175765999999954,-0.9335196599999964
-9.167642000000013,-2.420768066666662,-0.9462857399999964
-9.186791000000015,-2.423959533333329,-0.9590518199999964
-9.205940000000016,-2.4271509999999954,-0.9718178999999965
-9.205940000000018,-2.4271509999999954,-0.9718178999999965
-9.212323000000017,-2.449491666666662,-0.9335196533333298
-9.218706000000017,-2.4718323333333285,-0.8952214066666632
-9.225089000000017,-2.494172999999995,-0.8569231599999965
-9.225089000000015,-2.494172999999995,-0.8569231599999965
-9.231472000000014,-2.510130599999995,-0.8409655733333298
-9.237855000000014,-2.5260881999999953,-0.825007986666663
-9.244238000000013,-2.5420457999999955,-0.8090503999999963
-9.244238000000013,-2.5420457999999955,-0.8090503999999963
-9.218706000000015,-2.529279699999995,-0.8090503999999963
-9.193174000000017,-2.516513599999995,-0.8090503999999963
-9.167642000000018,-2.5037474999999945,-0.8090503999999963
-9.16764200000002,-2.5037474999999945,-0.8090503999999963
-9.164450333333354,-2.5005559999999947,-0.8313910333333298
-9.161258666666688,-2.497364499999995,-0.8537316666666631
-9.158067000000022,-2.494172999999995,-0.8760722999999966
-9.158067000000022,-2.494172999999995,-0.8760722999999966
-9.164450333333354,-2.4877899999999955,-0.8856468466666633
-9.170833666666686,-2.481406999999996,-0.8952213933333298
-9.177217000000018,-2.4750239999999963,-0.9047959399999965
-9.170833666666686,-2.4973645999999965,-0.9367111599999965
-9.164450333333354,-2.519705199999996,-0.9686263799999965
-9.158067000000022,-2.542045799999996,-1.0005415999999965
-9.158067000000022,-2.5420457999999955,-1.0005415999999965
-9.158067000000022,-2.5420457999999955,-1.0005415999999965
-9.164450333333354,-2.5356627999999954,-1.0164991666666632
-9.170833666666686,-2.5292797999999954,-1.0324567333333299
-9.177217000000018,-2.522896799999995,-1.0484142999999966
-9.177217000000018,-2.522896799999995,-1.0484142999999966
-9.170833666666686,-2.516513699999995,-1.0260736799999963
-9.164450333333354,-2.5101305999999948,-1.0037330599999963
-9.158067000000022,-2.5037474999999945,-0.9813924399999964
-9.158067000000022,-2.5037474999999945,-0.9813924399999964
-9.142109333333353,-2.5133220666666616,-0.9558602733333297
-9.126151666666686,-2.5228966333333283,-0.930328106666663
-9.11019400000002,-2.532471199999995,-0.9047959399999964
-9.11019400000002,-2.532471199999995,-0.9047959399999964
-9.122960333333351,-2.5228966333333283,-0.8952213933333297
-9.135726666666683,-2.5133220666666616,-0.885646846666663
-9.148493000000014,-2.5037474999999945,-0.8760722999999965
-9.167642000000013,-2.5101305999999948,-0.8824553333333297
-9.186791000000015,-2.516513699999995,-0.888838366666663
-9.205940000000016,-2.522896799999995,-0.8952213999999964
-9.205940000000018,-2.522896799999995,-0.8952213999999964
-9.199556666666686,-2.5260882666666618,-0.8824553199999964
-9.193173333333354,-2.5292797333333286,-0.8696892399999964
-9.186790000000022,-2.532471199999995,-0.8569231599999964
-9.186790000000022,-2.532471199999995,-0.8569231599999964
-9.16125800000002,-2.5356627333333286,-0.8728807533333297
-9.13572600000002,-2.5388542666666623,-0.8888383466666631
-9.11019400000002,-2.5420457999999955,-0.9047959399999964
-9.11019400000002,-2.5420457999999955,-0.9047959399999964
-9.119768666666685,-2.567577966666662,-0.9271365933333297
-9.12934333333335,-2.593110133333328,-0.949477246666663
-9.138918000000016,-2.6186422999999945,-0.9718178999999963
-9.138918000000015,-2.6186422999999945,-0.9718178999999963
-9.151684333333348,-2.6090677333333283,-0.965434866666663
-9.164450666666683,-2.599493166666662,-0.9590518333333297
-9.177217000000017,-2.589918599999996,-0.9526687999999964
-9.177217000000018,-2.589918599999996,-0.9526687999999964
-9.161259000000017,-2.5867270666666626,-0.9462857533333296
-9.145301000000018,-2.583535533333329,-0.939902706666663
-9.129343000000018,-2.5803439999999953,-0.9335196599999963
-9.129343000000018,-2.5803439999999953,-0.9335196599999963
-9.142109333333352,-2.5739609999999953,-0.9143705399999963
-9.154875666666685,-2.5675779999999953,-0.8952214199999964
-9.16764200000002,-2.561194999999995,-0.8760722999999965
-9.158067333333355,-2.561194999999995,-0.8792637999999964
-9.148492666666689,-2.561194999999995,-0.8824552999999963
-9.138918000000023,-2.561194999999995,-0.8856467999999963
-9.138918000000023,-2.561194999999995,-0.8856467999999963
-9.138918000000023,-2.561194999999995,-0.8856467999999963
-9.119768833333357,-2.577152566666662,-0.879263766666663
-9.10061966666669,-2.593110133333329,-0.8728807333333296
-9.081470500000021,-2.6090676999999958,-0.8664976999999964
-9.180407666666689,-2.618642266666662,-0.863306186666663
-9.279344833333354,-2.6282168333333282,-0.8601146733333297
-9.37828200000002,-2.6377913999999945,-0.8569231599999964
-9.37828200000002,-2.6377913999999945,-0.8569231599999964
-9.253812666666688,-2.704813333333328,-0.8122418733333298
-9.129343333333354,-2.7718352666666615,-0.7675605866666629
-9.004874000000022,-2.8388571999999948,-0.7228792999999962
-9.004874000000022,-2.8388571999999948,-0.7228792999999962
-8.992108000000021,-2.7782182999999954,-0.7228792999999962
-8.979342000000022,-2.717579399999996,-0.7228792999999962
-8.966576000000023,-2.656940499999996,-0.7228792999999962
-8.966576000000023,-2.6569404999999966,-0.7228792999999962
-8.988916666666691,-2.653748999999997,-0.796284266666663
-9.011257333333358,-2.650557499999997,-0.8696892333333297
-9.033598000000024,-2.647365999999997,-0.9430941999999964
-9.033598000000026,-2.6473659999999977,-0.9430941999999964
-9.001682666666696,-2.5675779999999975,-0.9367111566666632
-8.969767333333365,-2.4877899999999973,-0.93032811333333
-8.937852000000035,-2.4080019999999975,-0.9239450699999967
-8.937852000000037,-2.4080019999999975,-0.9239450699999967
-8.867638666666702,-2.420768099999998,-0.9079874799999968
-8.797425333333367,-2.433534199999998,-0.8920298899999969
-8.727212000000032,-2.4463002999999985,-0.876072299999997
-8.72721200000003,-2.4463002999999985,-0.876072299999997
-8.682530666666695,-2.497364633333332,-0.8345825333333304
-8.637849333333362,-2.5484289666666653,-0.7930927666666636
-8.593168000000027,-2.5994932999999985,-0.7516029999999968
-8.593168000000027,-2.5994932999999985,-0.7516029999999967
-8.692105000000026,-2.752686199999998,-0.67819803333333
-8.791042000000026,-2.9058790999999986,-0.6047930666666633
-8.889979000000025,-3.059071999999999,-0.5313880999999966
-8.889979000000025,-3.059071999999999,-0.5313880999999965
-8.775084333333359,-3.161200666666666,-0.4707492166666632
-8.66018966666669,-3.2633293333333326,-0.41011033333332997
-8.545295000000024,-3.365457999999999,-0.3494714499999967
-8.545295000000023,-3.365457999999999,-0.3494714499999967
-8.583593333333358,-3.4324799333333327,-0.35904601333332997
-8.621891666666693,-3.499501866666666,-0.3686205766666633
-8.660190000000027,-3.5665237999999992,-0.3781951399999967
-8.660190000000028,-3.5665237999999992,-0.37819513999999677
-8.992108000000028,-3.671843933333333,-0.47074922666666347
-9.324026000000027,-3.777164066666666,-0.5633033133333302
-9.655944000000027,-3.882484199999999,-0.6558573999999968
-9.655944000000027,-3.882484199999999,-0.6558573999999968
-10.230417666666694,-4.029294133333333,-0.8664977333333302
-10.80489133333336,-4.1761040666666664,-1.0771380666666637
-11.379365000000028,-4.322914,-1.2877783999999972
-11.379365000000028,-4.322914,-1.2877783999999972
-11.344258333333363,-4.306956333333333,-1.2590546999999972
-11.309151666666695,-4.290998666666667,-1.2303309999999974
-11.27404500000003,-4.275041000000001,-1.2016072999999976
-11.27404500000003,-4.275041000000001,-1.2016072999999976
-10.693188333333362,-4.211210666666666,-1.3165020333333308
-10.112331666666696,-4.147380333333332,-1.431396766666664
-9.531475000000029,-4.083549999999998,-1.5462914999999973
-9.531475000000029,-4.083549999999998,-1.546291499999997
-9.786796666666696,-3.6878015333333316,-1.5526745666666635
-10.042118333333363,-3.2920530666666656,-1.55905763333333
-10.29744000000003,-2.8963045999999992,-1.5654406999999964
-10.29744000000003,-2.8963045999999992,-1.5654406999999964
-9.269770433333363,-2.759069199999999,-1.4441628999999965
-8.242100866666696,-2.6218337999999988,-1.3228850999999964
-7.2144313000000295,-2.484598399999998,-1.2016072999999965
-7.2144313000000295,-2.484598399999998,-1.2016072999999965
-6.869747200000031,-2.3058732666666653,-1.1505429666666631
-6.525063100000032,-2.127148133333332,-1.09947863333333
-6.180379000000031,-1.948422999999999,-1.0484142999999966
-6.1803790000000305,-1.948422999999999,-1.0484142999999966
-5.71760850000003,-1.7824639666666655,-0.8984128666666633
-5.2548380000000305,-1.6165049333333321,-0.74841143333333
-4.792067500000031,-1.4505458999999987,-0.5984099999999967
-4.792067500000031,-1.4505458999999987,-0.5984099999999968
-4.894196166666698,-1.3101190333333321,-0.6590488866666635
-4.996324833333366,-1.1696921666666658,-0.7196877733333302
-5.098453500000034,-1.0292652999999994,-0.780326659999997
-5.098453500000034,-1.0292652999999994,-0.780326659999997
-5.532500266666701,-1.061180466666666,-0.949477239999997
-5.966547033333367,-1.0930956333333326,-1.1186278199999968
-6.400593800000032,-1.125010799999999,-1.287778399999997
-6.400593800000032,-1.125010799999999,-1.2877783999999972
-7.077196200000032,-1.8877841333333325,-1.1760751999999972
-7.7537986000000325,-2.650557466666666,-1.0643719999999972
-8.430401000000034,-3.4133307999999993,-0.9526687999999971
-8.430401000000034,-3.4133307999999993,-0.9526687999999971
-10.8591476666667,-3.809079333333333,-1.1441599999999972
-13.287894333333364,-4.204827866666666,-1.3356511999999974
-15.71664100000003,-4.6005764000000005,-1.5271423999999973
-15.71664100000003,-4.6005764000000005,-1.5271423999999973
-14.797483166666694,-4.3548293,-0.9207535666666642
-13.87832533333336,-4.1090822,-0.31436473333333087
-12.959167500000026,-3.863335099999999,0.29202410000000245
-12.959167500000026,-3.863335099999999,0.29202410000000245
-11.248512766666693,-3.448437499999999,0.6430913000000026
-9.53785803333336,-3.0335398999999987,0.9941585000000025
-7.8272033000000265,-2.618642299999998,1.3452257000000027
-7.8272033000000265,-2.618642299999998,1.3452257000000027
-6.22825163333336,-2.6473659333333317,1.2494801000000024
-4.629299966666693,-2.6760895666666653,1.1537345000000023
-3.030348300000026,-2.704813199999999,1.0579889000000022
-3.030348300000026,-2.704813199999999,1.0579889000000022
-4.083549966666692,-3.1165193333333323,0.6367082533333355
-5.1367516333333585,-3.5282254666666653,0.2154276066666688
-6.189953300000025,-3.939931599999998,-0.2058530399999979
-6.189953300000025,-3.939931599999998,-0.2058530399999979
-10.342120866666692,-3.837802933333332,-1.0101161266666645
-14.49428843333336,-3.735674266666665,-1.8143792133333312
-18.646456000000025,-3.6335455999999984,-2.618642299999998
-18.64645600000003,-3.6335455999999984,-2.618642299999998
-17.073036666666695,-3.582481266666665,-2.4367256666666655
-15.499617333333362,-3.531416933333332,-2.2548090333333324
-13.926198000000028,-3.4803525999999985,-2.0728923999999993
-13.926198000000028,-3.4803525999999985,-2.0728923999999993
-12.394268333333363,-3.209073399999999,-1.7952301333333327
-10.862338666666696,-2.937794199999999,-1.5175678666666659
-9.330409000000031,-2.666514999999999,-1.239905599999999
-9.330409000000033,-2.666514999999999,-1.239905599999999
-6.547403480000033,-2.762260599999999,-0.623942199999999
-3.7643979600000335,-2.8580061999999984,-0.007978799999999028
-0.9813924400000337,-2.953751799999998,0.607984600000001
-0.9813924400000337,-2.953751799999998,0.6079846000000009
-1.3484172266667003,-2.487789899999998,0.7292623666666675
-1.715442013333367,-2.021827999999998,0.8505401333333342
-2.082466800000034,-1.5558660999999978,0.9718179000000009
-2.082466800000034,-1.5558660999999978,0.9718179000000009
-5.085687533333368,-1.482461133333331,0.13244810000000085
-8.088908266666701,-1.4090561666666643,-0.7069216999999992
-11.092129000000035,-1.3356511999999976,-1.5462914999999995
-11.092129000000035,-1.3356511999999976,-1.5462914999999995
-12.68469733333337,-1.4952271999999978,-2.2069361333333326
-14.277265666666702,-1.654803199999998,-2.867580766666666
-15.869834000000035,-1.8143791999999979,-3.528225399999999
-15.869834000000035,-1.8143791999999979,-3.528225399999999
-15.62089533333337,-2.5420457999999977,-2.9952415999999986
-15.371956666666705,-3.2697123999999977,-2.4622577999999984
-15.12301800000004,-3.9973789999999982,-1.9292739999999984
-15.12301800000004,-3.9973789999999982,-1.9292739999999984
-12.477247866666707,-3.6750354333333313,-1.3037360266666649
-9.831477733333372,-3.3526918666666643,-0.6781980533333316
-7.185707600000039,-3.0303482999999978,-0.052660079999998256
-7.185707600000039,-3.0303482999999978,-0.052660079999998256
-5.5388832333333715,-2.3409799666666644,0.09414984666666841
-3.8920588666667038,-1.6516116333333313,0.24095977333333507
-2.2452345000000373,-0.9622432999999978,0.3877697000000017
-2.2452345000000373,-0.9622432999999978,0.3877697000000017
-2.060126300000037,-1.2718207666666645,0.4101103466666684
-1.8750181000000368,-1.5813982333333314,0.4324509933333351
-1.6899099000000366,-1.8909756999999983,0.4547916400000018
-1.6899099000000366,-1.8909756999999983,0.4547916400000018
-3.6846100333333696,-2.459066299999998,0.311173227333335
-5.679310166666703,-3.0271568999999983,0.1675548146666684
-7.6740103000000355,-3.595247499999999,0.023936402000001744
-7.6740103000000355,-3.5952474999999993,0.023936402000001744
-11.12404353333337,-3.5186509999999998,-1.0069246319999983
-14.574076766666705,-3.4420545,-2.037785665999998
-18.02411000000004,-3.3654580000000003,-3.0686466999999986
-18.02411000000004,-3.3654580000000003,-3.0686466999999986
-17.532615666666704,-3.0526890000000004,-2.947368866666665
-17.04112133333337,-2.73992,-2.826091033333332
-16.549627000000033,-2.4271510000000003,-2.7048131999999985
-16.549627000000033,-2.4271510000000003,-2.7048131999999985
-14.580459333333367,-2.305873266666667,-2.264383466666665
-12.611291666666704,-2.1845955333333333,-1.8239537333333313
-10.64212400000004,-2.0633178,-1.3835239999999978
-10.64212400000004,-2.0633178,-1.3835239999999978
-7.099536613666707,-1.8494859333333336,-0.6718149999999977
-3.5569492273333734,-1.6356540666666668,0.039894000000002316
-0.014361841000039751,-1.4218222000000003,0.7516030000000024
-0.014361841000039751,-1.4218222000000003,0.7516030000000024
0.6175591726666269,-0.9782009100000003,0.5984100333333356
1.2494801863332936,-0.5345796200000003,0.445217066666669
1.8814011999999602,-0.09095833000000024,0.29202410000000234
1.8814011999999602,-0.09095833000000024,0.2920241000000024
-3.684609866666706,-0.6494743533333336,-0.8377740666666642
-9.250620933333373,-1.2079903766666669,-1.967572233333331
-14.81663200000004,-1.7665064,-3.0973703999999977
-15.26982800000004,-2.248425933333333,-2.4175765666666647
-15.72302400000004,-2.730345466666666,-1.7377827333333313
-16.17622000000004,-3.212265,-1.057988899999998
-16.17622000000004,-3.212265,-1.057988899999998
-16.17622000000004,-3.212265,-1.057988899999998
-14.200669000000039,-3.167583666666666,-0.5122389666666647
-12.225118000000037,-3.122902333333333,0.033510966666668675
-10.249567000000036,-3.0782209999999997,0.5792609000000021
-8.647423866666704,-2.535662633333333,0.3526629733333353
-7.045280733333371,-1.993104266666666,0.1260650466666686
-5.443137600000038,-1.4505458999999992,-0.1005328799999981
-5.443137600000038,-1.4505458999999992,-0.1005328799999981
-4.472915466666705,-1.3579917999999995,0.34308844666666855
-3.502693333333371,-1.2654376999999997,0.7867097733333351
-2.5324712000000376,-1.1728835999999998,1.2303311000000017
-2.5324712000000376,-1.1728836,1.2303311000000017
-6.422934133333372,-1.7409741666666665,0.18670400000000167
-10.313397066666706,-2.309064733333333,-0.8569230999999983
-14.20386000000004,-2.8771552999999996,-1.900550199999998
-14.20386000000004,-2.8771552999999996,-1.9005501999999985
-15.142167333333374,-3.212264933333333,-2.0505516999999984
-16.080474666666706,-3.5473745666666665,-2.2005531999999985
-17.01878200000004,-3.8824842,-2.3505546999999987
-17.01878200000004,-3.8824842,-2.3505546999999987
-16.335796333333374,-3.5633322333333326,-2.1814040999999986
-15.652810666666705,-3.244180266666666,-2.0122534999999986
-14.969825000000037,-2.9250282999999997,-1.8431028999999988
-14.969825000000037,-2.9250282999999997,-1.8431028999999988
-11.455961333333372,-2.9792840999999997,-1.207990385333332
-7.942097666666707,-3.0335398999999996,-0.5728778706666653
-4.42823400000004,-3.0877956999999996,0.06223464400000145
-4.42823400000004,-3.0877956999999996,0.06223464400000145
-2.3282138333333733,-2.714387866666666,0.4484085626666679
-0.2281936666667065,-2.340980033333332,0.8345824813333343
1.87182649999996,-1.967572199999999,1.2207564000000009
-0.10372443333337333,-1.7505488333333323,0.7101132000000011
-2.0792753666667068,-1.5335254666666656,0.19947000000000123
-4.05482630000004,-1.316502099999999,-0.31117319999999865
-4.05482630000004,-1.316502099999999,-0.31117319999999865
-8.229334866666706,-1.7760809999999987,-1.3579917999999986
-12.403843433333373,-2.2356598999999986,-2.4048103999999983
-16.578352000000038,-2.6952387999999985,-3.4516289999999983
-16.578352000000038,-2.6952387999999985,-3.4516289999999983
-16.511329666666708,-2.944177366666665,-2.6824726666666643
-16.444307333333374,-3.193115933333331,-1.9133163333333307
-16.377285000000043,-3.4420544999999976,-1.1441599999999974
-16.377285000000043,-3.4420544999999976,-1.1441599999999974
-14.85812166666671,-3.212264999999998,-0.7962842933333306
-13.338958333333375,-2.9824754999999983,-0.4484085866666639
-11.819795000000042,-2.752685999999999,-0.10053287999999723
-9.276153466666708,-2.216510666666665,-0.5313881199999972
-6.732511933333375,-1.680335333333332,-0.9622433599999973
-4.188870400000042,-1.1441599999999987,-1.3930985999999974
-4.188870400000042,-1.1441599999999985,-1.3930985999999974
-4.188870400000042,-1.1441599999999985,-1.3930985999999974
-4.010145166666709,-1.086712633333332,-0.7452199999999974
-3.8314199333333754,-1.0292652666666653,-0.0973413999999974
-3.652694700000042,-0.9718178999999987,0.5505372000000026
-3.703759033333375,-1.2016073333333321,0.5537287200000026
-3.754823366666708,-1.4313967666666656,0.5569202400000025
-3.8058877000000417,-1.6611861999999988,0.5601117600000025
-3.8058877000000417,-1.6611861999999988,0.5601117600000025
-5.746331800000042,-2.273958133333332,0.15159717333333586
-7.686775900000041,-2.8867300666666655,-0.2569174133333308
-9.627220000000042,-3.4995019999999992,-0.6654319999999975
-9.627220000000042,-3.4995019999999992,-0.6654319999999975
-12.110223333333373,-3.1484347666666657,-1.1441599999999974
-14.593226666666707,-2.7973675333333325,-1.6228879999999972
-17.07623000000004,-2.4463002999999994,-2.1016159999999973
-17.07623000000004,-2.4463003,-2.1016159999999977
-17.497510000000045,-2.328214033333333,-2.3250224333333307
-17.918790000000044,-2.2101277666666665,-2.5484288666666637
-18.340070000000043,-2.0920414999999997,-2.771835299999997
-18.340070000000043,-2.092041499999999,-2.771835299999997
-15.14535866666671,-2.0728923333333324,-2.2228937999999974
-11.950647333333373,-2.0537431666666657,-1.6739522999999974
-8.75593600000004,-2.034593999999999,-1.1250107999999976
-8.755936000000041,-2.034593999999999,-1.1250107999999976
-6.777193333333375,-1.8431027999999994,-0.5952184766666644
-4.7984506666667075,-1.6516115999999996,-0.06542615333333106
-2.8197080000000407,-1.4601203999999999,0.4643661700000023
-2.8197080000000407,-1.4601203999999999,0.4643661700000023
-1.6005473200000404,-1.176075133333333,0.2984071266666689
-0.38138664000004024,-0.8920298666666664,0.13244808333333558
0.8377740399999599,-0.6079845999999997,-0.03351095999999776
0.8377740399999599,-0.6079845999999997,-0.03351095999999776
-2.028211106666707,-1.2526716666666662,-0.03031944066666442
-4.894196253333373,-1.897358733333333,-0.027127921333331084
-7.7601814000000395,-2.5420458,-0.023936401999997747
-7.7601814000000395,-2.5420458,-0.023936401999997747
-7.7601814000000395,-2.5420458,-0.023936401999997747
-11.309151933333373,-2.755877633333333,-0.8664976679999977
-14.858122466666707,-2.969709466666666,-1.7090589339999973
-18.40709300000004,-3.1835412999999995,-2.5516201999999972
-17.46559433333337,-3.8505690999999995,-1.5494829199999973
-16.5240956666667,-4.517596899999999,-0.5473456399999974
-15.58259700000003,-5.184624699999999,0.45479164000000255
-15.58259700000003,-5.184624699999998,0.45479164000000255
-12.247458433333364,-3.9846130333333307,0.21861914000000252
-8.912319866666698,-2.784601366666664,-0.01755335999999748
-5.5771813000000305,-1.5845896999999975,-0.25372585999999747
-5.5771813000000305,-1.5845896999999975,-0.25372585999999747
-2.9218366000000295,-1.1473514599999974,0.18670392666666924
-0.2664919000000294,-0.7101132199999975,0.627133713333336
2.3888527999999707,-0.2728749799999976,1.0675635000000026
2.3888527999999707,-0.2728749799999976,1.0675635000000023
0.6239421999999707,-1.1409684199999977,0.8633062133333356
-1.1409684000000293,-2.009061859999998,0.6590489266666688
-2.9058790000000294,-2.877155299999998,0.4547916400000021
-2.9058790000000294,-2.877155299999998,0.4547916400000021
-8.162312666666697,-3.368649533333331,-0.6654319066666646
-13.418746333333365,-3.860143766666664,-1.7856554533333313
-18.67518000000003,-4.351637999999997,-2.9058789999999983
-18.67518000000003,-4.351637999999997,-2.9058789999999983
-17.337933333333364,-4.265466799999996,-2.5133220666666642
-16.000686666666695,-4.179295599999996,-2.1207651333333306
-14.663440000000028,-4.093124399999996,-1.7282081999999968
-12.049584666666695,-3.639928599999996,-1.6611862666666635
-9.435729333333361,-3.1867327999999966,-1.59416433333333
-6.821874000000027,-2.733536999999997,-1.5271423999999965
-6.821874000000027,-2.733536999999997,-1.5271423999999965
-6.266549666666694,-3.065455066666664,-1.4920356666666634
-5.71122533333336,-3.3973731333333306,-1.4569289333333302
-5.155901000000026,-3.7292911999999974,-1.421822199999997
-5.155901000000026,-3.7292911999999974,-1.421822199999997
-8.634658000000025,-3.6750353999999974,-2.0314025999999967
-12.113415000000025,-3.6207795999999974,-2.6409829999999963
-15.592172000000025,-3.5665237999999975,-3.2505633999999968
-15.592172000000025,-3.5665237999999975,-3.250563399999996
-16.412392666666694,-3.3846071999999974,-2.497364613333329
-17.232613333333358,-3.2026905999999973,-1.7441658266666626
-18.052834000000026,-3.0207739999999976,-0.990967039999996
-18.052834000000022,-3.020773999999998,-0.990967039999996
-16.035793333333356,-2.347363199999998,-1.5271424599999959
-14.018752666666686,-1.6739523999999983,-2.0633178799999956
-12.001712000000017,-1.0005415999999983,-2.599493299999996
-12.001712000000017,-1.0005415999999983,-2.599493299999996
-12.001712000000017,-1.0005415999999983,-2.599493299999996
-9.630412333333352,-1.1665006333333316,-1.718633692333329
-7.259112666666685,-1.332459666666665,-0.8377740846666623
-4.88781300000002,-1.4984186999999984,0.04308552300000423
-4.335680000000019,-1.7760809333333316,-0.1356396013333291
-3.7835470000000186,-2.053743166666665,-0.31436472566666246
-3.2314140000000187,-2.3314053999999977,-0.4930898499999958
-3.2314140000000187,-2.3314053999999977,-0.4930898499999958
-4.693130333333351,-2.615450699999998,-0.850540133333329
-6.154846666666685,-2.899495999999998,-1.2079904166666622
-7.616563000000017,-3.183541299999998,-1.5654406999999955
-7.616563000000017,-3.183541299999998,-1.5654406999999955
-8.618700000000018,-3.2697123666666648,-1.9133163666666622
-9.620837000000018,-3.355883433333331,-2.261192033333329
-10.622974000000019,-3.4420544999999976,-2.6090676999999958
-10.622974000000019,-3.4420544999999976,-2.6090676999999958
-11.146383666666685,-3.480352699999998,-2.896304533333329
-11.66979333333335,-3.5186508999999986,-3.183541366666662
-12.193203000000016,-3.556949099999999,-3.470778199999995
-12.193203000000016,-3.556949099999999,-3.470778199999995
-12.043201333333348,-3.2633293333333317,-3.5920559333333286
-11.89319966666668,-2.969709566666665,-3.713333666666662
-11.743198000000012,-2.676089799999998,-3.834611399999995
-11.743198000000012,-2.676089799999998,-3.834611399999995
-11.261278666666678,-2.602684766666665,-3.442054433333329
-10.779359333333346,-2.529279733333332,-3.0494974666666628
-10.297440000000014,-2.455874699999999,-2.656940499999996
-10.297440000000014,-2.455874699999999,-2.6569404999999966
-9.269770433333347,-2.2580004666666653,-2.653748999999997
-8.24210086666668,-2.0601262333333317,-2.650557499999997
-7.214431300000013,-1.862251999999998,-2.647365999999997
-7.214431300000013,-1.862251999999998,-2.6473659999999977
-7.24953796666668,-1.8845926666666646,-2.4303425999999977
-7.284644633333348,-1.9069333333333311,-2.2133191999999977
-7.319751300000015,-1.9292739999999977,-1.996295799999998
-7.319751300000015,-1.9292739999999977,-1.996295799999998
-8.082524533333348,-1.9484230999999976,-2.0792753666666646
-8.845297766666683,-1.9675721999999976,-2.1622549333333314
-9.608071000000017,-1.9867212999999975,-2.2452344999999982
-9.608071000000017,-1.9867212999999975,-2.2452344999999982
-9.943180666666683,-2.060126233333331,-2.248425999999998
-10.278290333333347,-2.1335311666666636,-2.251617499999998
-10.613400000000013,-2.2069360999999974,-2.2548089999999976
-10.613400000000013,-2.206936099999998,-2.2548089999999976
-10.83680666666668,-2.152680299999998,-2.0058703999999974
-11.060213333333346,-2.098424499999998,-1.7569317999999974
-11.283620000000013,-2.044168699999998,-1.5079931999999971
-11.283620000000013,-2.044168699999998,-1.5079931999999971
-10.709146333333345,-1.8111876999999978,-1.0835210433333307
-10.13467266666668,-1.578206699999998,-0.6590488866666641
-9.560199000000011,-1.3452256999999979,-0.23457672999999737
-9.56019900000001,-1.3452256999999979,-0.23457672999999737
-9.387856666666677,-1.425013699999998,-0.15798024666666402
-9.215514333333344,-1.504801699999998,-0.0813837633333307
-9.04317200000001,-1.584589699999998,-0.0047872799999973585
-9.043172000000013,-1.584589699999998,-0.0047872799999973585
-9.44530366666668,-1.7665063333333315,-0.0015957599999973586
-9.847435333333346,-1.948422966666665,0.0015957600000026412
-10.249567000000013,-2.130339599999999,0.004787280000002641
-10.249567000000013,-2.130339599999999,0.004787280000002641
-9.489985133333347,-2.0728922666666656,0.3845781866666693
-8.730403266666679,-2.015444933333332,0.764369093333336
-7.970821400000013,-1.9579975999999986,1.1441600000000027
-7.970821400000013,-1.9579975999999986,1.1441600000000027
-7.594222066666679,-1.9931043333333316,1.1792667000000028
-7.217622733333346,-2.0282110666666644,1.2143734000000028
-6.841023400000012,-2.063317799999998,1.2494801000000029
-6.841023400000012,-2.063317799999998,1.2494801000000029
-6.888896266666678,-2.178212533333331,1.1920327666666692
-6.936769133333345,-2.2931072666666643,1.1345854333333358
-6.984642000000012,-2.4080019999999975,1.0771381000000024
-6.984642000000012,-2.4080019999999975,1.0771381000000024
-7.058047000000012,-2.443108666666664,1.0547974333333359
-7.131452000000011,-2.478215333333331,1.0324567666666693
-7.204857000000011,-2.5133219999999983,1.0101161000000027
-7.204857000000011,-2.5133219999999983,1.0101161000000027
-7.93252350000001,-2.4239594999999983,0.6718149733333361
-8.66019000000001,-2.3345969999999983,0.3335138466666694
-9.38785650000001,-2.2452344999999982,-0.004787279999997285
-9.387856500000012,-2.2452344999999982,-0.004787279999997284
-10.68999666666668,-2.235659933333331,-0.4611746533333307
-11.992136833333348,-2.2260853666666645,-0.9175620266666641
-13.294277000000015,-2.216510799999998,-1.3739493999999972
-13.102786000000016,-1.929273966666664,-1.693101399999997
-12.911295000000017,-1.6420371333333306,-2.0122533999999974
-12.719804000000018,-1.3548002999999973,-2.3314053999999973
-12.71980400000002,-1.3548002999999973,-2.3314053999999977
-12.71980400000002,-1.3548002999999973,-2.3314053999999977
-10.737869866666685,-1.093095649999997,-1.8303367666666646
-8.75593573333335,-0.8313909999999972,-1.3292681333333314
-6.774001600000019,-0.5696863499999972,-0.828199499999998
-6.77400160000002,-0.5696863499999972,-0.828199499999998
-5.175049966666686,-0.6207506666666638,-0.47074923333333124
-3.5760983333333525,-0.6718149833333306,-0.11329896666666457
-1.9771467000000194,-0.7228792999999972,0.2441513000000021
-2.69523880000002,-0.7675605866666638,-0.0047872833333312366
-3.41333090000002,-0.8122418733333306,-0.2537258666666646
-4.13142300000002,-0.8569231599999974,-0.5026644499999979
-4.13142300000002,-0.8569231599999974,-0.5026644499999979
-4.13142300000002,-0.8569231599999974,-0.5026644499999979
-6.08144200000002,-1.0452228399999974,-0.8664977666666646
-8.03146100000002,-1.2335225199999975,-1.2303310833333312
-9.98148000000002,-1.4218221999999976,-1.5941643999999977
-10.463399166666688,-1.6643777999999976,-1.399481633333331
-10.945318333333354,-1.9069333999999973,-1.2047988666666645
-11.42723750000002,-2.1494889999999973,-1.0101160999999979
-11.427237500000018,-2.1494889999999978,-1.0101160999999976
-12.809166000000019,-2.2133193333333305,-1.5782067333333307
-14.19109450000002,-2.2771496666666637,-2.1462973666666643
-15.57302300000002,-2.340979999999997,-2.714387999999998
-15.57302300000002,-2.3409799999999965,-2.714387999999998
-15.57302300000002,-2.3409799999999965,-2.714387999999998
-13.479385333333354,-2.7143878666666628,-1.3228851999999978
-11.385747666666688,-3.0877957333333295,0.06861760000000228
-9.292110000000022,-3.4612035999999957,1.460120400000002
-8.749552000000023,-2.698430266666662,0.8760722333333355
-8.206994000000023,-1.9356569333333289,0.29202406666666886
-7.664436000000023,-1.1728835999999954,-0.29202409999999784
-7.664436000000023,-1.1728835999999954,-0.29202409999999784
-6.799534000000023,-1.4633119666666616,-0.1771293733333312
-5.934632000000022,-1.7537403333333283,-0.06223464666666453
-5.069730000000022,-2.044168699999995,0.05266008000000214
-5.069730000000021,-2.044168699999995,0.05266008000000214
-5.069730000000021,-2.044168699999995,0.05266008000000214
-5.877184533333355,-2.6122592999999945,0.1611717666666688
-6.684639066666688,-3.1803498999999946,0.2696834533333355
-7.492093600000022,-3.748440499999995,0.3781951400000021
-7.492093600000022,-3.748440499999995,0.3781951400000021
-7.010173966666688,-3.521842566666662,0.5728778600000021
-6.528254333333354,-3.295244633333329,0.7675605800000022
-6.0463347000000205,-3.0686466999999964,0.9622433000000021
-8.056992466666687,-3.2026905333333295,-0.09414983333333123
-10.067650233333355,-3.3367343666666627,-1.1505429666666644
-12.078308000000021,-3.470778199999996,-2.206936099999998
-12.078308000000021,-3.470778199999996,-2.206936099999998
-12.078308000000021,-3.470778199999996,-2.206936099999998
-13.817686666666688,-2.768643766666662,-2.4941729666666643
-15.557065333333355,-2.066509333333329,-2.7814098333333312
-17.296444000000022,-1.3643748999999954,-3.068646699999998
-17.29644400000002,-1.3643748999999954,-3.068646699999998
-15.062379666666686,-1.0867126333333288,-2.570769533333331
-12.828315333333352,-0.8090503666666621,-2.072892366666664
-10.59425100000002,-0.5313880999999955,-1.5750151999999975
-6.336763200000019,-0.9782008999999955,-0.7579860333333309
-2.0792754000000193,-1.4250136999999954,0.05904313333333581
2.1782123999999805,-1.8718264999999954,0.8760723000000024
2.1782123999999805,-1.8718264999999954,0.8760723000000024
2.1782123999999805,-1.8718264999999954,0.8760723000000024
1.3675663133333138,-1.0867125666666622,0.32393931333333564
0.5569202266666471,-0.3015986333333287,-0.228193673333331
-0.2537258600000196,0.4835153000000047,-0.7803266599999977
-0.2537258600000196,0.4835153000000047,-0.7803266599999977
-5.46547824000002,-0.7196877999999954,-1.1537345066666642
-10.677230620000017,-1.9228908999999954,-1.5271423533333308
-15.888983000000016,-3.126093999999996,-1.9005501999999972
-15.888983000000016,-3.126093999999996,-1.9005501999999972
-16.157071000000016,-3.2633293333333295,-1.4058645999999975
-16.42515900000002,-3.4005646666666625,-0.9111789999999975
-16.693247000000017,-3.5377999999999954,-0.4164933999999974
-16.693247000000017,-3.537799999999995,-0.4164933999999974
-15.116635666666687,-3.4229053333333277,-0.1771293766666641
-13.540024333333355,-3.308010666666661,0.062234646666669245
-11.963413000000022,-3.193115999999994,0.30159867000000257
-11.963413000000022,-3.193115999999994,0.3015986700000026
-9.630412000000023,-3.0846043333333273,0.2186191400000026
-7.297411000000022,-2.9760926666666605,0.1356396100000026
-4.964410000000022,-2.8675809999999937,0.052660080000002586
-4.964410000000022,-2.8675809999999937,0.052660080000002586
-2.9569437000000227,-2.11119066666666,0.7867097200000025
-0.9494774000000227,-1.354800333333327,1.5207593600000024
1.0579888999999774,-0.5984099999999937,2.2548090000000025
1.0579888999999774,-0.5984099999999937,2.254809000000002
-3.863335066666689,-1.5494829999999935,0.6558574000000021
-8.784659033333355,-2.5005559999999933,-0.9430941999999978
-13.70598300000002,-3.4516289999999934,-2.5420457999999977
-13.70598300000002,-3.4516289999999934,-2.5420457999999972
-13.718749333333355,-3.269712333333327,-2.1590633999999973
-13.731515666666688,-3.08779566666666,-1.7760809999999971
-13.744282000000021,-2.9058789999999934,-1.3930985999999972
-13.744282000000021,-2.9058789999999934,-1.3930985999999972
-12.700654666666688,-2.2548089333333263,-1.1313939333333305
-11.657027333333355,-1.6037388666666594,-0.8696892666666637
-10.613400000000022,-0.9526687999999927,-0.607984599999997
-8.060183933333356,-1.1792666999999928,-0.16117176666666366
-5.506967866666689,-1.4058645999999928,0.2856410666666697
-2.9537518000000222,-1.6324624999999928,0.732453900000003
-2.9537518000000227,-1.6324624999999928,0.732453900000003
-2.9537518000000227,-1.6324624999999928,0.732453900000003
-2.2452343666666894,-1.4537373666666598,0.595218520000003
-1.5367169333333563,-1.2750122333333265,0.45798314000000295
-0.828199500000023,-1.0962870999999934,0.3207477600000029
-0.828199500000023,-1.0962870999999936,0.3207477600000029
-5.663352333333356,-1.498418633333327,-0.866497726666664
-10.498505166666687,-1.9005501666666607,-2.053743213333331
-15.333658000000021,-2.302681699999994,-3.2409886999999973
-15.333658000000021,-2.302681699999994,-3.2409886999999973
-14.02513500000002,-3.0431143666666607,-1.8399113666666633
-12.716612000000021,-3.783547033333327,-0.43883403333333
-11.408089000000023,-4.523979699999994,0.9622433000000035
-11.408089000000023,-4.523979699999993,0.9622433000000035
-10.581485333333356,-3.2920529666666596,0.6494743340000034
-9.754881666666689,-2.0601262333333263,0.33670536800000345
-8.928278000000024,-0.8281994999999931,0.023936402000003427
-8.928278000000025,-0.8281994999999931,0.023936402000003427
-7.425071900000025,-1.3165020999999928,-0.28883257866666323
-5.921865800000025,-1.8048046999999923,-0.6016015593333298
-4.418659700000025,-2.293107299999992,-0.9143705399999965
-4.418659700000025,-2.293107299999992,-0.9143705399999963
-5.615479800000025,-2.5133221333333253,-0.6813895599999963
-6.812299900000025,-2.7335369666666587,-0.4484085799999962
-8.009120000000026,-2.953751799999992,-0.21542759999999625
-8.009120000000026,-2.953751799999992,-0.21542759999999625
-11.570856666666694,-2.854814699999993,-1.2367140333333295
-15.13259333333336,-2.755877599999993,-2.258000466666663
-18.694330000000026,-2.6569404999999935,-3.279286899999996
-18.69433000000003,-2.6569404999999935,-3.2792868999999967
-16.32941333333336,-2.0888499333333272,-2.4526831999999965
-13.964496666666692,-1.5207593666666603,-1.6260794999999968
-11.599580000000024,-0.9526687999999934,-0.7994757999999967
-11.599580000000023,-0.9526687999999934,-0.7994757999999967
-10.227226333333354,-1.60373886666666,-0.7643690766666634
-8.854872666666688,-2.254808933333327,-0.72926235333333
-7.482519000000021,-2.905878999999994,-0.6941556299999966
-7.482519000000021,-2.905878999999994,-0.6941556299999966
-7.482519000000021,-2.905878999999994,-0.6941556299999966
-4.977175680000021,-2.7494945333333267,-0.31117320666666326
-2.4718323600000214,-2.5931100666666604,0.07180921666667008
0.03351095999997877,-2.4367255999999937,0.4547916400000034
-0.6430912933333546,-1.9548060799999936,0.32074778666667
-1.319693546666688,-1.4728865599999936,0.18670393333333668
-1.9962958000000215,-0.9909670399999936,0.05266008000000335
-1.996295800000021,-0.9909670399999936,0.05266008000000335
-6.285698866666688,-1.4122476933333268,-0.44521707999999666
-10.575101933333356,-1.83352834666666,-0.9430942399999966
-14.864505000000023,-2.254808999999993,-1.4409713999999967
-14.864505000000023,-2.254808999999993,-1.4409713999999962
-14.864505000000023,-2.254808999999993,-1.4409713999999962
-14.94110166666669,-2.35693766666666,-1.045222886666663
-15.017698333333357,-2.4590663333333267,-0.6494743733333297
-15.094295000000024,-2.561194999999993,-0.2537258599999963
-14.870888333333356,-2.2803412333333264,-0.528196606666663
-14.64748166666669,-1.99948746666666,-0.8026673533333297
-14.424075000000023,-1.7186336999999934,-1.0771380999999967
-14.424075000000023,-1.7186336999999934,-1.0771380999999967
-11.057021333333354,-1.7601234333333267,-0.5760694166666632
-7.6899676666666865,-1.80161316666666,-0.07500073333332986
-4.32291400000002,-1.8431028999999934,0.4260679500000035
-4.3229140000000195,-1.8431028999999934,0.4260679500000035
-4.3229140000000195,-1.8431028999999934,0.4260679500000035
-2.10799900000002,-1.4696950333333267,0.5633033133333368
0.10691599999998018,-1.09628716666666,0.7005386766666701
2.32183099999998,-0.7228792999999932,0.8377740400000034
-2.915453666666686,-1.2558631999999934,-0.48351530666666326
-8.152738333333351,-1.7888470999999937,-1.8048046533333302
-13.390023000000019,-2.3218309999999938,-3.1260939999999966
-13.390023000000019,-2.321830999999994,-3.1260939999999966
-14.184711333333352,-2.7463031666666615,-2.4016189333333298
-14.979399666666685,-3.170775333333328,-1.677143866666663
-15.774088000000019,-3.5952474999999944,-0.9526687999999961
-15.774088000000019,-3.5952474999999944,-0.9526687999999961
-15.774088000000019,-3.5952474999999944,-0.9526687999999961
-14.267690666666686,-2.6569405533333277,-0.9973500666666628
-12.761293333333354,-1.7186336066666608,-1.0420313333333293
-11.254896000000022,-0.7803266599999942,-1.086712599999996
-11.254896000000022,-0.7803266599999942,-1.0867125999999958
-8.222951766666688,-1.434588306666661,-0.6047930666666624
-5.191007533333353,-2.088849953333328,-0.12287353333332907
-2.1590633000000206,-2.743111599999995,0.35904600000000425
-2.6760895666666875,-2.733537066666661,0.23936400000000427
-3.1931158333333545,-2.7239625333333275,0.11968200000000428
-3.7101421000000214,-2.714387999999994,4.292862361883938e-15
-3.7101421000000214,-2.714387999999994,4.292862361883938e-15
-3.7101421000000214,-2.714387999999994,4.292862361883938e-15
-9.008065400000023,-2.771835333333327,-1.2941613999999957
-14.305988700000023,-2.8292826666666606,-2.5883227999999954
-19.603912000000026,-2.8867299999999942,-3.8824841999999955
-19.603912000000026,-2.8867299999999942,-3.8824841999999955
-15.64323566666669,-3.202690466666661,-1.7537402999999958
-11.682559333333357,-3.5186509333333276,0.37500360000000416
-7.721883000000022,-3.8346113999999942,2.5037475000000042
-7.022940133333354,-2.966517966666661,1.3835239466666707
-6.323997266666687,-2.098424533333328,0.2633003933333374
-5.62505440000002,-1.2303310999999946,-0.8569231599999959
-5.62505440000002,-1.2303310999999946,-0.8569231599999959
-5.62505440000002,-1.2303310999999946,-0.8569231599999959
-5.139943266666687,-1.7345912666666612,-0.7547945066666625
-4.654832133333353,-2.238851433333328,-0.6526658533333292
-4.1697210000000196,-2.743111599999994,-0.5505371999999958
-4.1697210000000196,-2.743111599999994,-0.5505371999999958
-4.1697210000000196,-2.743111599999994,-0.5505371999999958
-4.1697210000000196,-2.743111599999994,-0.5505371999999958
-4.1697210000000196,-2.743111599999994,-0.5505371999999958
-4.1697210000000196,-2.743111599999994,-0.5505371999999958
-4.1697210000000196,-2.743111599999994,-0.5505371999999958
-4.1697210000000196,-2.743111599999994,-0.5505371999999958
-4.1697210000000196,-2.743111599999994,-0.5505371999999958
-4.1697210000000196,-2.743111599999994,-0.5505371999999958
-4.1697210000000196,-2.743111599999994,-0.5505371999999958
-4.1697210000000196,-2.743111599999994,-0.5505371999999958
-4.1697210000000196,-2.743111599999994,-0.5505371999999958
-4.1697210000000196,-2.743111599999994,-0.5505371999999958
-4.1697210000000196,-2.743111599999994,-0.5505371999999958
-4.1697210000000196,-2.743111599999994,-0.5505371999999958
-6.001653666666686,-2.3824697999999938,-0.6622403999999958
-7.833586333333353,-2.0218279999999935,-0.7739435999999958
-9.665519000000021,-1.6611861999999935,-0.8856467999999958
-12.898528666666687,-1.68990986666666,-1.785655499999996
-16.131538333333356,-1.7186335333333265,-2.685664199999996
-19.364548000000028,-1.7473571999999928,-3.5856728999999965
-19.364548000000024,-1.7473571999999928,-3.5856728999999965
-16.613458000000026,-1.9516144666666595,-2.739920033333329
-13.862368000000023,-2.1558717333333264,-1.8941671666666622
-11.11127800000002,-2.3601289999999935,-1.0484142999999955
-11.11127800000002,-2.3601289999999935,-1.0484142999999955
-11.11127800000002,-2.3601289999999935,-1.0484142999999955
-8.462316066666688,-2.4782153333333263,-0.5345795833333288
-5.813354133333355,-2.5963016666666596,-0.020744866666662087
-3.1643922000000226,-2.7143879999999925,0.49308985000000455
-3.375032566666689,-2.2899157999999926,-0.0909583333333288
-3.5856729333333557,-1.865443599999993,-0.6750065166666621
-3.796313300000022,-1.4409713999999934,-1.2590546999999954
-3.796313300000022,-1.4409713999999934,-1.2590546999999954
-8.650615533333356,-1.91012486666666,-2.0697007999999957
-13.504917766666688,-2.3792783333333265,-2.8803468999999957
-18.359220000000022,-2.848431799999993,-3.6909929999999957
-18.35922000000002,-2.848431799999993,-3.6909929999999957
-18.35922000000002,-2.848431799999993,-3.6909929999999957
-16.35494516666669,-3.03673146666666,-2.0409770999999957
-14.350670333333355,-3.2250311333333266,-0.39096119999999557
-12.346395500000021,-3.4133307999999936,1.2590547000000045
-10.989999333333353,-3.1229024666666603,1.1633091000000046
-9.633603166666688,-2.8324741333333265,1.0675635000000046
-8.277207000000024,-2.5420457999999932,0.9718179000000043
-8.277207000000024,-2.5420457999999932,0.9718179000000043
-5.226113900000024,-2.2292768333333264,1.1473515000000043
-2.1750208000000235,-1.9165078666666595,1.3228851000000044
0.8760722999999766,-1.6037388999999926,1.4984187000000044
0.8760722999999766,-1.6037388999999926,1.4984187000000044
-1.029265133333357,-1.7984215999999928,0.7835181833333378
-2.9346025666666904,-1.9931042999999928,0.06861766666667113
-4.839940000000024,-2.187786999999993,-0.6462828499999955
-4.839940000000024,-2.187786999999993,-0.6462828499999955
-4.839940000000024,-2.187786999999993,-0.6462828499999955
-9.761264000000025,-2.286724133333326,-1.182458233333329
-14.682588000000026,-2.3856612666666592,-1.718633616666662
-19.603912000000026,-2.4845983999999923,-2.254808999999995
-17.337933000000028,-2.2452343999999926,-1.6994844999999952
-15.071954000000026,-2.0058703999999934,-1.1441599999999952
-12.805975000000025,-1.766506399999993,-0.5888354999999953
-12.805975000000023,-1.766506399999993,-0.5888354999999953
-12.805975000000023,-1.766506399999993,-0.5888354999999953
-9.981479500000022,-2.127148199999993,-0.18670395666666198
-7.156984000000022,-2.4877899999999937,0.2154275866666713
-4.3324885000000215,-2.848431799999993,0.6175591300000046
-4.3324885000000215,-2.848431799999993,0.6175591300000046
-1.9548060000000216,-2.4877899999999933,0.4547916066666713
0.4228764999999785,-2.1271481999999935,0.29202408333333796
2.8005589999999785,-1.7665063999999937,0.12925656000000466
-2.4111936666666884,-1.8622519666666604,-1.0037330933333286
-7.622946333333355,-1.9579975333333273,-2.136722746666662
-12.834699000000022,-2.053743099999994,-3.2697123999999955
-12.834699000000022,-2.0537430999999944,-3.2697123999999955
-12.834699000000022,-2.0537430999999944,-3.2697123999999955
-14.325139000000021,-2.7048132999999943,-2.2707665933333288
-15.815579000000021,-3.3558834999999942,-1.271820786666662
-17.30601900000002,-4.006953699999994,-0.2728749799999952
-15.024081666666687,-3.3016276999999943,-0.07500073333332856
-12.742144333333355,-2.5963016999999944,0.12287351333333811
-10.460207000000024,-1.8909756999999943,0.32074776000000477
-10.460207000000024,-1.8909756999999943,0.3207477600000048
-7.9835874333333585,-1.9835297999999941,0.33670536333333817
-5.506967866666692,-2.0760838999999938,0.3526629666666716
-3.030348300000025,-2.168637999999994,0.3686205700000049
-3.030348300000025,-2.168637999999994,0.3686205700000049
-3.5058848666666917,-2.136722799999994,0.28883256666667156
-3.981421433333358,-2.1048075999999942,0.2090445633333382
-4.456958000000025,-2.072892399999995,0.12925656000000488
-4.456958000000025,-2.072892399999995,0.12925656000000488
-9.247429666666696,-2.2739581999999943,-1.0069245933333284
-14.037901333333364,-2.475023999999994,-2.1431057466666616
-18.82837300000003,-2.676089799999994,-3.279286899999995
-18.828373000000035,-2.676089799999994,-3.2792868999999953
-15.850684833333368,-2.3728953333333274,-2.095232939999996
-12.8729966666667,-2.069700866666661,-0.9111789799999958
-9.895308500000029,-1.7665063999999944,0.27287498000000426
-9.895308500000029,-1.7665063999999944,0.27287498000000426
-8.797425433333364,-1.9899127999999944,0.07500073333333762
-7.699542366666698,-2.213319199999994,-0.12287351333332903
-6.6016593000000325,-2.436725599999994,-0.32074775999999566
-6.6016593000000325,-2.436725599999994,-0.3207477599999957
-3.6143965333333656,-2.4016188666666607,0.2760664933333376
-0.6271337666666987,-2.3665121333333277,0.8728807466666709
2.360128999999968,-2.3314053999999946,1.4696950000000042
2.360128999999968,-2.3314053999999946,1.4696950000000042
-2.1718293333333656,-2.069700766666662,-0.15798026666666254
-6.703787666666699,-1.8079961333333288,-1.785655533333329
-11.235746000000033,-1.546291499999996,-3.413330799999996
-11.235746000000033,-1.546291499999996,-3.413330799999996
-14.0251346666667,-2.3473630999999955,-2.723962433333329
-16.814523333333366,-3.1484346999999953,-2.034594066666662
-19.603912000000033,-3.9495062999999946,-1.3452256999999956
-19.603912000000033,-3.9495062999999946,-1.3452256999999956
-15.703874500000033,-3.4899273666666617,-0.10691586666666238
-11.803837000000032,-3.030348433333329,1.131393966666671
-7.903799500000031,-2.570769499999996,2.369703800000004
-7.903799500000031,-2.5707694999999964,2.369703800000004
-5.238880223333365,-2.17821253333333,1.7186336666666708
-2.5739609466666984,-1.7856555666666634,1.0675635333333378
0.09095832999996833,-1.3930985999999967,0.4164934000000045
0.09095832999996833,-1.3930985999999967,0.4164934000000045
-1.6611862466666985,-1.7760809999999967,0.0941498666666712
-3.413330823333365,-2.159063399999997,-0.2281936666666621
-5.165475400000031,-2.542045799999997,-0.5505371999999954
-5.165475400000031,-2.542045799999997,-0.5505371999999955
-9.978287600000032,-2.4622577666666636,-1.160117533333329
-14.791099800000033,-2.3824697333333305,-1.7696978666666625
-19.603912000000033,-2.3026816999999973,-2.379278199999996
-19.603912000000033,-2.3026816999999973,-2.3792781999999963
-16.552819000000035,-2.270766499999997,-1.5462914633333298
-13.501726000000035,-2.2388512999999968,-0.7133047266666629
-10.450633000000037,-2.2069360999999965,0.11968201000000385
-10.450633000000037,-2.2069360999999965,0.11968201000000385
-6.662298486666704,-2.216510666666663,0.29840714000000385
-2.873963973333371,-2.2260852333333303,0.4771322700000038
0.9143705399999623,-2.235659799999997,0.6558574000000038
0.9143705399999623,-2.235659799999997,0.6558574000000038
-1.0228821400000376,-1.7282081199999968,0.11968200000000373
-2.9601348200000377,-1.2207564399999966,-0.41649339999999624
-4.897387500000037,-0.7133047599999967,-0.9526687999999962
-4.897387500000037,-0.7133047599999968,-0.9526687999999962
-9.394239333333372,-1.5494830733333302,-1.4218221999999965
-13.891091166666705,-2.385661386666664,-1.8909755999999966
-18.38794300000004,-3.221839699999997,-2.360128999999997
-18.38794300000004,-3.221839699999997,-2.360128999999997
-16.10600600000004,-3.276095466666664,-0.6686233333333305
-13.824069000000039,-3.3303512333333303,1.0228823333333363
-11.54213200000004,-3.384606999999997,2.714388000000003
-11.54213200000004,-3.384606999999997,2.714388000000003
-11.54213200000004,-3.384606999999997,2.714388000000003
-9.987861866666705,-2.9633263999999975,1.8750181600000033
-8.43359173333337,-2.5420457999999977,1.0356483200000033
-6.8793216000000355,-2.120765199999998,0.1962784800000034
-4.587810160000035,-2.398427399999998,0.5058559200000035
-2.2962987200000344,-2.6760895999999974,0.8154333600000033
-0.004787280000034737,-2.953751799999997,1.1250108000000034
-0.004787280000034736,-2.953751799999997,1.1250108000000034
-5.423988186666701,-2.4048103333333297,-0.4675576999999967
-10.843189093333367,-1.8558688666666632,-2.060126199999997
-16.262390000000035,-1.3069273999999966,-3.6526946999999965
-16.262390000000035,-1.3069273999999966,-3.6526946999999965
-14.787908000000035,-1.4473543333333299,-2.78140973333333
-13.313426000000035,-1.5877812666666633,-1.9101247666666634
-11.838944000000035,-1.7282081999999965,-1.0388397999999968
-11.838944000000035,-1.7282081999999965,-1.038839799999997
-10.236800866666703,-2.133531266666663,-0.7707521099999969
-8.63465773333337,-2.53885433333333,-0.5026644199999969
-7.032514600000037,-2.944177399999996,-0.2345767299999968
-7.032514600000037,-2.944177399999996,-0.2345767299999968
-5.21015663333337,-2.80375053333333,0.04946855666666986
-3.387798666666704,-2.663323666666663,0.3335138433333365
-1.5654407000000379,-2.522896799999996,0.6175591300000032
-1.5654407000000379,-2.5228967999999963,0.6175591300000032
-4.871855466666705,-2.3250225333333296,-1.0356482466666634
-8.178270233333373,-2.1271482666666626,-2.68885562333333
-11.484685000000042,-1.929273999999996,-4.342062999999997
-13.820877666666709,-2.570769499999996,-3.49950173333333
-16.157070333333376,-3.2122649999999964,-2.656940466666663
-18.49326300000004,-3.8537604999999964,-1.8143791999999965
-18.49326300000004,-3.8537604999999964,-1.8143791999999965
-15.541107000000045,-3.1165193999999965,-0.4133018666666631
-12.588951000000044,-2.379278299999997,0.9877754666666703
-9.636795000000044,-1.6420371999999972,2.3888528000000036
-9.636795000000044,-1.6420371999999972,2.3888528000000036
-8.296356500000044,-1.460120499999997,1.1313938666666703
-6.955918000000044,-1.2782037999999973,-0.1260650666666631
-5.615479500000045,-1.0962870999999976,-1.3835239999999966
-5.615479500000045,-1.0962870999999976,-1.3835239999999966
-4.201636133333378,-1.0771379999999977,-0.6494743666666632
-2.787792766666712,-1.0579888999999978,0.08457526666667015
-1.3739494000000454,-1.0388397999999979,0.8186249000000035
-1.3739494000000454,-1.038839799999998,0.8186249000000035
-1.7345911666667122,-1.693101399999998,0.7452199333333368
-2.095232933333379,-2.347362999999998,0.6718149666666701
-2.4558747000000456,-3.0016245999999978,0.5984100000000033
-2.455874700000045,-3.0016245999999978,0.5984100000000033
-4.217593800000045,-2.969709399999998,0.59202696666667
-5.979312900000046,-2.9377941999999986,0.5856439333333366
-7.741032000000047,-2.9058789999999988,0.5792609000000034
-7.741032000000047,-2.9058789999999988,0.5792609000000034
-11.254895666666712,-2.5835354999999987,-1.33884273333333
-14.768759333333378,-2.261191999999999,-3.256946366666663
-18.282623000000044,-1.9388484999999989,-5.175049999999996
-18.282623000000044,-1.9388484999999989,-5.175049999999996
-18.17730300000004,-1.9324654333333322,-5.136751799999996
-18.071983000000042,-1.9260823666666658,-5.0984535999999965
-17.96666300000004,-1.9196992999999993,-5.060155399999997
-17.96666300000004,-1.9196992999999996,-5.060155399999997
-16.188986333333375,-1.9388484333333331,-3.9718469333333304
-14.41130966666671,-1.957997566666667,-2.883538466666664
-12.633633000000046,-1.9771467000000005,-1.7952299999999974
-12.633633000000046,-1.9771467000000005,-1.7952299999999974
-10.415526333333379,-2.490981466666667,-1.6356540333333307
-8.197419666666713,-3.0048162333333335,-1.4760780666666642
-5.979313000000045,-3.518651,-1.3165020999999975
-5.979313000000045,-3.518651,-1.3165020999999975
-5.184624500000045,-2.976092566666667,-1.2590547333333308
-4.389936000000046,-2.4335341333333336,-1.2016073666666642
-3.595247500000047,-1.8909757000000003,-1.1441599999999976
-3.595247500000047,-1.8909757000000003,-1.1441599999999976
-4.11546533333338,-1.8048046333333334,-0.9750094199999975
-4.6356831666667135,-1.7186335666666668,-0.8058588399999973
-5.155901000000047,-1.6324625,-0.6367082599999973
-5.155901000000047,-1.6324625,-0.6367082599999973
-6.6176173333333805,-1.7441657333333334,-0.8952214066666638
-8.079333666666713,-1.8558689666666668,-1.1537345533333305
-9.541050000000046,-1.9675722000000002,-1.4122476999999973
-9.541050000000046,-1.9675722000000002,-1.4122476999999973
-10.737870000000045,-1.9835298000000003,-1.8782096333333307
-11.934690000000046,-1.9994874000000005,-2.3441715666666636
-13.131510000000047,-2.0154450000000006,-2.8101334999999974
-13.131510000000047,-2.015445000000001,-2.810133499999998
-12.502780333333378,-2.1782125000000008,-2.7718352666666646
-11.874050666666712,-2.3409800000000005,-2.733537033333331
-11.245321000000045,-2.5037475000000007,-2.695238799999997
-11.245321000000041,-2.5037475000000007,-2.695238799999997
-9.713391433333376,-2.621833733333334,-1.9643806833333304
-8.18146186666671,-2.7399199666666676,-1.2335225666666638
-6.649532300000043,-2.8580062000000015,-0.502664449999997
-6.649532300000043,-2.8580062000000015,-0.502664449999997
-9.25381286666671,-2.2675750000000012,-1.6867183999999968
-11.858093433333375,-1.6771438000000014,-2.8707723499999975
-14.46237400000004,-1.0867126000000014,-4.0548262999999976
-14.46237400000004,-1.0867126000000014,-4.0548262999999976
-12.263416466666706,-1.211181866666668,-2.8675808166666648
-10.064458933333373,-1.3356511333333347,-1.6803353333333313
-7.865501400000041,-1.4601204000000012,-0.49308984999999783
-7.865501400000042,-1.4601204000000012,-0.49308984999999783
-7.843160800000042,-1.673952266666668,-0.5441541833333311
-7.820820200000043,-1.8877841333333345,-0.5952185166666645
-7.798479600000043,-2.1016160000000013,-0.6462828499999977
-7.798479600000043,-2.1016160000000013,-0.6462828499999977
-7.712308600000043,-1.913316300000001,-0.6430913199999977
-7.6261376000000425,-1.7250166000000011,-0.6398997899999977
-7.539966600000042,-1.5367169000000012,-0.6367082599999979
-7.539966600000042,-1.5367169000000012,-0.6367082599999979
-7.629329066666709,-1.5143762666666678,-0.617559139999998
-7.7186915333333745,-1.4920356333333344,-0.5984100199999981
-7.808054000000041,-1.4696950000000009,-0.5792608999999981
-7.808054000000041,-1.4696950000000009,-0.5792608999999982
-8.385719333333375,-1.514376300000001,-0.7292623666666649
-8.963384666666707,-1.559057600000001,-0.8792638333333316
-9.541050000000041,-1.6037389000000009,-1.0292652999999983
-9.541050000000041,-1.6037389000000009,-1.0292652999999983
-10.702763333333374,-1.8558689333333345,-1.3133105999999983
-11.86447666666671,-2.1079989666666683,-1.5973558999999984
-13.026190000000042,-2.360129000000002,-1.8814011999999984
-13.026190000000042,-2.360129000000002,-1.8814011999999984
-12.557036333333377,-2.5165135000000016,-1.8845926999999987
-12.08788266666671,-2.6728980000000013,-1.8877841999999987
-11.618729000000044,-2.829282500000001,-1.8909756999999987
-11.618729000000044,-2.829282500000001,-1.8909756999999987
-10.188928000000045,-2.7718351666666674,-1.696292933333332
-8.759127000000044,-2.7143878333333338,-1.5016101666666655
-7.329326000000044,-2.6569405000000006,-1.3069273999999986
-7.329326000000044,-2.6569405,-1.3069273999999986
-8.845298000000046,-2.299490233333333,-2.025019466666665
-10.361270000000045,-1.9420399666666663,-2.7431115333333325
-11.877242000000045,-1.5845896999999995,-3.4612035999999997
-11.877242000000045,-1.5845896999999993,-3.4612035999999997
-10.824040333333379,-1.357991779999999,-2.988858633333333
-9.770838666666712,-1.1313938599999989,-2.516513666666666
-8.717637000000046,-0.9047959399999989,-2.0441686999999993
-8.717637000000048,-0.9047959399999989,-2.044168699999999
-7.868692666666714,-0.9909669933333322,-1.8590605333333323
-7.019748333333381,-1.0771380466666653,-1.6739523666666656
-6.1708040000000475,-1.1633090999999987,-1.4888441999999988
-6.1708040000000475,-1.1633090999999984,-1.4888441999999988
-5.979312866666714,-1.188841266666665,-1.4377798666666655
-5.78782173333338,-1.2143734333333318,-1.386715533333332
-5.596330600000045,-1.2399055999999984,-1.335651199999999
-5.596330600000044,-1.2399055999999984,-1.335651199999999
-5.803779400000043,-1.1441599999999983,-1.0611804666666655
-6.011228200000043,-1.048414399999998,-0.7867097333333323
-6.218677000000042,-0.9526687999999979,-0.512238999999999
-6.218677000000042,-0.9526687999999979,-0.5122389999999989
-6.694213533333375,-1.0739465666666645,-0.5601117999999988
-7.169750066666708,-1.195224333333331,-0.6079845999999988
-7.645286600000041,-1.3165020999999977,-0.6558573999999987
-7.645286600000041,-1.3165020999999975,-0.6558573999999987
-6.748469400000041,-1.8239537999999973,-0.2633003999999987
-5.851652200000042,-2.3314054999999976,0.12925660000000128
-4.954835000000042,-2.838857199999998,0.5218136000000012
-4.954835000000042,-2.838857199999998,0.5218136000000012
-6.745277666666708,-3.250563333333331,0.20585308333333452
-8.535720333333375,-3.6622694666666646,-0.11010743333333213
-10.32616300000004,-4.073975599999998,-0.4260679499999988
-10.326163000000038,-4.073975599999998,-0.4260679499999988
-11.695325333333372,-4.779301499999998,-0.32074778133333215
-13.064487666666706,-5.484627399999997,-0.21542761266666552
-14.433650000000037,-6.189953299999996,-0.11010744399999887
-14.433650000000037,-6.189953299999996,-0.11010744399999887
-14.388968666666704,-5.309093766666663,-0.08457528266666553
-14.34428733333337,-4.42823423333333,-0.05904312133333219
-14.299606000000034,-3.5473746999999967,-0.03351095999999886
-14.299606000000034,-3.5473746999999967,-0.03351095999999886
-11.248512666666704,-3.2824784666666633,0.3175562266666678
-8.19741933333337,-3.01758223333333,0.6686234133333344
-5.146326000000037,-2.7526859999999966,1.0196906000000012
-5.146326000000036,-2.7526859999999966,1.0196906000000012
-2.7782181333333686,-2.0154448799999964,1.1058616666666679
-0.41011026666670186,-1.2782037599999962,1.1920327333333347
1.957997599999965,-0.540962639999996,1.2782038000000016
1.957997599999965,-0.540962639999996,1.2782038000000016
1.957997599999965,-0.540962639999996,1.2782038000000016
0.3367053999999649,-0.9654348266666627,0.7133047333333348
-1.2845868000000353,-1.3899070133333293,0.14840566666666807
-2.9058790000000356,-1.814379199999996,-0.4164933999999986
-8.439975000000036,-2.146297299999996,-0.9526687999999984
-13.974071000000038,-2.478215399999996,-1.4888441999999984
-19.50816700000004,-2.810133499999996,-2.0250195999999985
-19.50816700000004,-2.810133499999997,-2.0250195999999985
-18.346453666666704,-2.7239623999999965,-1.7218251666666653
-17.18474033333337,-2.637791299999997,-1.4186307333333321
-16.023027000000038,-2.5516201999999963,-1.1154362999999987
-16.023027000000038,-2.5516201999999963,-1.115436299999999
-16.023027000000038,-2.5516201999999963,-1.115436299999999
-13.259170566666704,-2.52608813333333,-0.7675605999999989
-10.495314133333371,-2.500556066666663,-0.4196848999999989
-7.731457700000038,-2.475023999999996,-0.07180919999999887
-5.098453530000039,-2.309064899999996,0.3462799333333344
-2.465449360000038,-2.143105799999996,0.7643690666666677
0.1675548099999625,-1.9771466999999954,1.1824582000000012
0.1675548099999625,-1.9771466999999951,1.182458200000001
0.1675548099999625,-1.9771466999999951,1.182458200000001
-3.132477126666704,-2.4526831666666618,0.20585306666666772
-6.43250906333337,-2.928219633333329,-0.7707520666666655
-9.732541000000035,-3.4037560999999954,-1.7473571999999988
-9.732541000000035,-3.4037560999999954,-1.7473571999999988
-11.79745433333337,-3.550566066666662,-1.725016599999999
-13.862367666666705,-3.6973760333333288,-1.7026759999999987
-15.927281000000038,-3.844185999999995,-1.6803353999999988
-15.927281000000038,-3.844185999999995,-1.6803353999999988
-14.510246000000038,-3.225031099999995,-1.086712639999999
-13.093211000000037,-2.605876199999994,-0.4930898799999989
-11.676176000000035,-1.986721299999994,0.10053288000000109
-11.676176000000035,-1.986721299999994,0.10053288000000109
-8.86125533333337,-1.686718399999994,0.3047901733333344
-6.046334666666705,-1.386715499999994,0.5090474666666677
-3.231414000000038,-1.086712599999994,0.7133047600000011
-3.2314140000000378,-1.086712599999994,0.7133047600000012
-4.195253166666704,-1.6452286333333277,0.29840714000000124
-5.15909233333337,-2.2037446666666614,-0.11649047999999873
-6.122931500000036,-2.762260699999995,-0.5313880999999987
-6.122931500000036,-2.762260699999995,-0.5313880999999987
-9.94637233333337,-2.337788533333328,-1.249480133333332
-13.769813166666703,-1.9133163666666615,-1.9675721666666652
-17.593254000000037,-1.4888441999999944,-2.6856641999999993
-17.59325400000004,-1.4888441999999944,-2.6856641999999993
-15.375147666666706,-1.453737466666661,-2.0728923333333324
-13.157041333333373,-1.4186307333333277,-1.460120466666666
-10.938935000000038,-1.3835239999999944,-0.8473485999999993
-10.938935000000038,-1.3835239999999949,-0.8473485999999992
-9.218705800000038,-1.6356540999999947,-0.6462828333333326
-7.4984766000000365,-1.8877841999999945,-0.445217066666666
-5.778247400000037,-2.1399142999999943,-0.24415129999999938
-5.778247400000037,-2.1399142999999943,-0.24415129999999938
-3.968655416666703,-1.7505488333333277,0.04627703333333393
-2.159063433333369,-1.361183366666661,0.3367053666666672
-0.34947145000003516,-0.9718178999999946,0.6271337000000005
-0.34947145000003516,-0.9718178999999946,0.6271337000000005
-4.412276633333369,-1.5303339333333277,-0.38776973333333276
-8.475081816666703,-2.088849966666661,-1.402673166666666
-12.537887000000035,-2.6473659999999946,-2.417576599999999
-12.537887000000035,-2.6473659999999946,-2.417576599999999
-13.42193833333337,-2.8803469999999947,-2.0760839333333325
-14.305989666666704,-3.1133279999999943,-1.7345912666666656
-15.190041000000038,-3.3463089999999944,-1.393098599999999
-15.190041000000038,-3.3463089999999944,-1.393098599999999
-13.884709000000038,-3.110136466666661,-0.943094240999999
-12.579377000000038,-2.8739639333333273,-0.49308988199999887
-11.274045000000038,-2.637791399999994,-0.04308552299999883
-11.274045000000038,-2.637791399999994,-0.04308552299999883
-8.736786466666706,-2.2292768333333277,0.07819223800000118
-6.199527933333371,-1.8207622666666612,0.19946999900000117
-3.662269400000038,-1.4122476999999947,0.3207477600000012
-3.662269400000038,-1.4122476999999947,0.3207477600000012
-3.4612036000000383,-1.6516116666666614,0.29202408333333457
-3.2601378000000385,-1.890975633333328,0.26330040666666793
-3.059072000000039,-2.130339599999995,0.23457673000000123
-3.059072000000039,-2.130339599999995,0.23457673000000123
-8.388910666666705,-2.2324682666666615,-0.8760723133333322
-13.718749333333372,-2.334596933333328,-1.9867213566666655
-19.048588000000038,-2.4367255999999946,-3.097370399999999
-19.048588000000038,-2.4367255999999946,-3.097370399999999
-16.93261000000004,-2.3984273999999948,-2.2452344799999993
-14.816632000000041,-2.360129199999995,-1.3930985599999992
-12.700654000000043,-2.321830999999995,-0.5409626399999992
-12.700654000000043,-2.3218309999999955,-0.5409626399999992
-9.52190006666671,-2.280341233333329,0.22181064000000084
-6.343146133333377,-2.2388514666666626,0.9845839200000008
-3.1643922000000444,-2.197361699999996,1.7473572000000008
-3.1643922000000444,-2.197361699999996,1.7473572000000008
-1.6005473333333775,-2.0314026333333293,1.5430999333333342
-0.036702466666710766,-1.865443566666663,1.3388426666666675
1.527142399999956,-1.6994844999999963,1.1345854000000009
1.527142399999956,-1.6994844999999963,1.1345854000000009
-5.08568706666671,-1.7505488333333297,-0.9813925333333323
-11.698516533333377,-1.801613166666663,-3.097370466666666
-18.311346000000047,-1.8526774999999962,-5.213348399999999
-18.311346000000047,-1.8526774999999962,-5.213348399999998
-16.760267666666717,-2.5069391333333293,-3.0367315666666657
-15.209189333333383,-3.161200766666662,-0.8601147333333324
-13.658111000000048,-3.8154623999999955,1.316502100000001
-13.658111000000048,-3.8154623999999955,1.316502100000001
-10.549570166666713,-3.2026904999999957,1.4345883333333342
-7.441029333333383,-2.589918599999996,1.5526745666666677
-4.33248850000005,-1.9771466999999963,1.670760800000001
-4.33248850000005,-1.9771466999999963,1.670760800000001
-3.081412633333383,-1.6899098999999964,0.8952214000000008
-1.830336766666716,-1.4026730999999966,0.1196820000000008
-0.5792609000000496,-1.1154362999999965,-0.6558573999999991
-0.5792609000000496,-1.1154362999999965,-0.6558573999999991
-6.177187266666716,-1.1473514999999965,-1.5335254333333321
-11.775113633333383,-1.1792666999999966,-2.4111934666666652
-17.37304000000005,-1.2111818999999964,-3.288861499999998
-17.373040000000046,-1.2111818999999964,-3.288861499999998
-16.374094333333378,-1.5399084999999966,-2.1175736099999987
-15.375148666666712,-1.8686350999999968,-0.9462857199999987
-14.376203000000046,-2.197361699999997,0.22500217000000142
-14.376203000000046,-2.1973616999999965,0.22500217000000142
-11.529367000000045,-2.01544503333333,0.26649193000000143
-8.682531000000045,-1.8335283666666633,0.3079816900000014
-5.835695000000045,-1.6516116999999966,0.3494714500000014
-5.835695000000045,-1.6516116999999966,0.3494714500000014
-4.058018150000046,-1.7218251333333299,0.36223753333333475
-2.2803413000000465,-1.792038566666663,0.3750036166666681
-0.5026644500000469,-1.8622519999999962,0.3877697000000014
-0.5026644500000469,-1.8622519999999962,0.3877697000000014
-4.83036563333338,-2.0537431999999964,-0.821816433333332
-9.158066816666713,-2.245234399999997,-2.0314025666666655
-13.485768000000045,-2.4367255999999973,-3.240988699999999
-13.485768000000045,-2.4367255999999977,-3.240988699999999
-14.404926000000046,-3.1229023999999974,-2.155871852999999
-15.324084000000047,-3.809079199999998,-1.0707550059999986
-16.24324200000005,-4.495255999999999,0.01436184100000141
-16.24324200000005,-4.495255999999999,0.01436184100000141
-14.388968666666715,-3.7165250999999984,0.42925946066666815
-12.534695333333381,-2.9377941999999977,0.8441570803333348
-10.680422000000048,-2.1590632999999975,1.2590547000000016
-10.680422000000048,-2.159063299999998,1.2590547000000016
-10.680422000000048,-2.159063299999998,1.2590547000000016
-7.69635073333338,-2.1143820666666646,1.118627813333335
-4.712279466666714,-2.0697008333333318,0.9782009266666684
-1.7282082000000472,-2.0250195999999985,0.8377740400000017
-2.6090677000000473,-2.3473631333333316,0.4675577000000017
-3.4899272000000465,-2.6697066666666647,0.09734136000000171
-4.370786700000046,-2.9920501999999978,-0.27287497999999827
-4.370786700000046,-2.9920501999999978,-0.27287497999999827
-9.030406466666713,-2.9920501999999978,-0.9590517866666649
-13.690026233333379,-2.9920501999999978,-1.6452285933333315
-18.349646000000046,-2.9920501999999978,-2.331405399999998
-18.349646000000046,-2.9920501999999978,-2.331405399999998
-18.349646000000046,-2.9920501999999978,-2.331405399999998
-15.470894333333378,-2.6601320666666646,-1.8590604466666651
-12.592142666666712,-2.328213933333332,-1.386715493333332
-9.713391000000046,-1.9962957999999986,-0.9143705399999988
-9.276153000000045,-2.2005530999999987,-1.2654377599999986
-8.838915000000044,-2.404810399999999,-1.6165049799999986
-8.401677000000044,-2.609067699999999,-1.9675721999999987
-8.401677000000044,-2.609067699999999,-1.9675721999999987
-8.401677000000044,-2.609067699999999,-1.9675721999999987
-7.938906566666712,-2.6345998666666652,-1.9452315333333319
-7.476136133333379,-2.6601320333333316,-1.9228908666666653
-7.013365700000047,-2.685664199999998,-1.9005501999999987
-9.081470800000046,-2.889921533333332,-2.3282138999999984
-11.149575900000045,-3.094178866666665,-2.7558775999999985
-13.217681000000043,-3.298436199999998,-3.1835412999999986
-13.217681000000043,-3.2984361999999976,-3.1835412999999986
-13.217681000000043,-3.2984361999999976,-3.1835412999999986
-13.990028666666712,-3.3526919999999976,-2.918645133333332
-14.762376333333378,-3.4069477999999975,-2.6537489666666656
-15.534724000000045,-3.4612035999999975,-2.388852799999999
-15.534724000000045,-3.4612035999999975,-2.388852799999999
-13.677259333333376,-2.6984302666666644,-2.487789933333332
-11.81979466666671,-1.9356569333333313,-2.5867270666666653
-9.962330000000042,-1.1728835999999978,-2.6856641999999984
-9.221897333333375,-0.9494772166666645,-2.3058732999999987
-8.48146466666671,-0.7260708333333312,-1.9260823999999992
-7.741032000000044,-0.5026644499999979,-1.5462914999999995
-7.741032000000044,-0.5026644499999979,-1.5462914999999995
-7.741032000000044,-0.5026644499999979,-1.5462914999999995
-7.21123966666671,-1.0994787333333311,-1.5175677999999995
-6.681447333333377,-1.6962930166666643,-1.4888440999999997
-6.151655000000044,-2.2931072999999977,-1.4601203999999999
-6.151655000000045,-2.2931072999999977,-1.4601203999999999
-6.975067333333378,-2.136722766666665,-1.5143762666666662
-7.798479666666711,-1.9803382333333321,-1.568632133333333
-8.621892000000043,-1.8239536999999988,-1.6228879999999999
-8.621892000000042,-1.8239536999999988,-1.6228880000000003
-9.004874333333374,-1.836719799999999,-1.6548032333333336
-9.387856666666709,-1.8494858999999988,-1.686718466666667
-9.770839000000041,-1.862251999999999,-1.7186337000000005
-9.77083900000004,-1.862251999999999,-1.7186337000000005
-10.038926666666706,-1.9037417666666656,-1.8750181333333338
-10.307014333333372,-1.9452315333333325,-2.0314025666666673
-10.575102000000038,-1.9867212999999992,-2.1877870000000006
-10.575102000000038,-1.9867212999999992,-2.1877870000000006
-10.638932333333372,-2.296298766666666,-2.4271510000000007
-10.702762666666706,-2.6058762333333325,-2.666515000000001
-10.766593000000038,-2.915453699999999,-2.905879000000001
-10.766593000000038,-2.915453699999999,-2.905879000000001
-11.39213100000004,-2.656940566666666,-3.3463088666666674
-12.01766900000004,-2.398427433333333,-3.7867387333333338
-12.643207000000041,-2.1399142999999996,-4.227168600000001
-12.643207000000041,-2.1399143,-4.2271686000000015
-11.226172000000043,-2.1941701,-3.588864500000001
-9.809137000000044,-2.2484259,-2.9505604000000005
-8.392102000000042,-2.3026817,-2.3122563000000005
-8.392102000000044,-2.3026816999999995,-2.312256300000001
-7.70273366666671,-2.1526802999999997,-2.3058733000000005
-7.013365333333375,-2.0026788999999994,-2.2994903000000004
-6.323997000000041,-1.8526774999999993,-2.2931073000000004
-6.323997000000041,-1.8526774999999993,-2.2931073000000004
-6.802725133333375,-1.7505488333333326,-2.2611921000000006
-7.281453266666709,-1.648420166666666,-2.229276900000001
-7.760181400000043,-1.5462914999999995,-2.1973617000000014
-7.760181400000043,-1.5462914999999995,-2.1973617000000014
-8.743169600000043,-1.479269566666666,-2.3473631333333347
-9.72615780000004,-1.4122476333333325,-2.497364566666668
-10.70914600000004,-1.3452256999999992,-2.647366000000001
-10.709146000000038,-1.3452256999999992,-2.647366000000001
-10.77297633333337,-1.2654377333333322,-2.516513666666668
-10.836806666666703,-1.1856497666666652,-2.3856613333333345
-10.900637000000037,-1.1058617999999985,-2.254809000000001
-10.900637000000037,-1.1058617999999982,-2.254809000000001
-11.07297933333337,-0.968626409999998,-2.095233000000001
-11.245321666666703,-0.8313910199999981,-1.9356570000000008
-11.417664000000036,-0.6941556299999981,-1.7760810000000007
-11.417664000000036,-0.6941556299999981,-1.7760810000000007
-10.6261666666667,-0.7164962666666647,-1.4377798466666676
-9.834669333333366,-0.7388369033333314,-1.0994786933333345
-9.043172000000032,-0.7611775399999982,-0.761177540000001
-9.043172000000032,-0.7611775399999982,-0.7611775400000008
-8.542103533333366,-1.1409684266666649,-0.5888354600000009
-8.0410350666667,-1.5207593133333315,-0.41649338000000086
-7.5399666000000325,-1.9005501999999979,-0.24415130000000085
-7.5399666000000325,-1.9005501999999979,-0.24415130000000085
-8.810191400000031,-1.871826533333331,-0.4835153000000008
-10.08041620000003,-1.8431028666666645,-0.7228793000000008
-11.35064100000003,-1.8143791999999976,-0.9622433000000008
-11.35064100000003,-1.8143791999999976,-0.9622433000000008
-9.911265533333362,-1.8622519999999978,-0.6111760900000008
-8.471890066666697,-1.9101247999999977,-0.2601088800000008
-7.032514600000031,-1.957997599999998,0.09095832999999916
-7.032514600000031,-1.957997599999998,0.09095832999999916
-6.847406400000032,-1.7154420999999977,-0.03989400333333418
-6.6622982000000315,-1.4728865999999974,-0.1707463366666675
-6.477190000000032,-1.2303310999999972,-0.3015986700000008
-6.477190000000032,-1.2303310999999972,-0.30159867000000085
-6.253783666666699,-1.243097166666664,-0.16117177666666752
-6.030377333333366,-1.2558632333333304,-0.020744883333334168
-5.806971000000033,-1.268629299999997,0.11968200999999917
-5.806971000000033,-1.268629299999997,0.11968200999999917
-6.6399576666666995,-1.332459666666664,-0.2601088600000008
-7.472944333333365,-1.3962900333333306,-0.6398997300000008
-8.305931000000031,-1.4601203999999974,-1.0196906000000008
-8.30593100000003,-1.4601203999999974,-1.0196906000000008
-7.938906333333364,-1.5909727666666642,-0.9494772000000008
-7.571881666666698,-1.7218251333333308,-0.8792638000000007
-7.2048570000000325,-1.852677499999997,-0.8090504000000006
-7.2048570000000325,-1.8526774999999969,-0.8090504000000006
-5.372924333333366,-1.9101248666666635,-0.5090474900000007
-3.5409916666666987,-1.96757223333333,-0.20904458000000067
-1.7090590000000319,-2.0250195999999967,0.09095832999999931
-1.7090590000000319,-2.0250195999999967,0.09095832999999931
-6.706979333333368,-1.8462944666666636,-1.179266713333334
-11.704899666666703,-1.6675693333333304,-2.4494917566666676
-16.702820000000038,-1.4888441999999973,-3.7197168000000005
-16.70282000000004,-1.4888441999999973,-3.7197168000000005
-16.42515800000004,-1.989912866666664,-3.186732933333334
-16.147496000000036,-2.4909815333333305,-2.6537490666666677
-15.869834000000035,-2.9920501999999978,-2.120765200000001
-15.869834000000035,-2.9920501999999978,-2.1207652000000015
-14.293223000000035,-2.765452233333331,-1.7665064333333345
-12.716612000000035,-2.5388542666666645,-1.4122476666666677
-11.140001000000035,-2.312256299999998,-1.057988900000001
-11.140001000000035,-2.312256299999998,-1.057988900000001
-8.484656333333369,-2.4335341333333314,-0.40053575333333424
-5.829311666666702,-2.5548119666666644,0.2569173933333324
-3.173967000000036,-2.676089799999998,0.914370539999999
-3.1739670000000353,-2.676089799999998,0.914370539999999
-2.369703846666702,-2.337788599999998,0.7771351766666657
-1.5654406933333689,-1.9994873999999978,0.6398998133333323
-0.7611775400000355,-1.6611861999999977,0.502664449999999
-0.7611775400000355,-1.6611861999999977,0.5026644499999989
-6.180379026666703,-2.2899156999999977,-0.7516029666666677
-11.599580513333372,-2.918645199999998,-2.0058703833333342
-17.01878200000004,-3.5473746999999984,-3.2601378000000008
-17.01878200000004,-3.5473746999999984,-3.260137800000001
-15.857068333333373,-3.748440466666665,-1.9292739000000017
-14.695354666666708,-3.9495062333333313,-0.5984100000000016
-13.53364100000004,-4.150571999999998,0.7324538999999985
-13.53364100000004,-4.150571999999998,0.7324538999999985
-11.692134000000038,-3.6207796666666643,0.6750065199999984
-9.850627000000037,-3.090987333333331,0.6175591399999983
-8.009120000000037,-2.5611949999999974,0.5601117599999983
-8.009120000000037,-2.5611949999999974,0.5601117599999984
-5.494202056666705,-2.414385066666664,0.4739407299999983
-2.9792841133333723,-2.2675751333333305,0.3877696999999983
-0.464366170000039,-2.120765199999997,0.3015986699999983
-0.464366170000039,-2.1207651999999966,0.30159866999999835
-2.4941730466667056,-1.9899128666666632,-0.004787263333334994
-4.523979923333372,-1.8590605333333299,-0.31117319666666826
-6.553786800000039,-1.7282081999999965,-0.6175591300000016
-6.553786800000039,-1.7282081999999965,-0.6175591300000015
-10.204885866666704,-1.81437923333333,-1.0835210866666682
-13.85598493333337,-1.9005502666666632,-1.5494830433333349
-17.507084000000038,-1.9867212999999966,-2.0154450000000015
-17.507084000000038,-1.9867212999999966,-2.0154450000000015
-15.662385333333368,-1.7090590666666632,-1.6962929666666682
-13.817686666666702,-1.4313968333333298,-1.3771409333333349
-11.972988000000036,-1.1537345999999964,-1.0579889000000013
-11.972988000000036,-1.1537345999999964,-1.0579889000000016
-10.335738100000036,-1.8494859666666634,-0.7930927400000017
-8.698488200000035,-2.5452373333333305,-0.5281965800000018
-7.061238300000035,-3.2409886999999973,-0.26330042000000176
-7.061238300000035,-3.2409886999999973,-0.26330042000000176
-2.940985866666702,-2.762260699999997,0.6367082533333316
1.1792665666666318,-2.2835326999999968,1.5367169266666647
5.299518999999965,-1.8048046999999965,2.436725599999998
5.299518999999965,-1.8048046999999965,2.436725599999998
0.04946833333329792,-1.3962900999999965,-0.052660166666668985
-5.200582333333369,-0.9877754999999967,-2.5420459333333363
-10.450633000000035,-0.5792608999999967,-5.031431700000003
-10.450633000000035,-0.5792608999999967,-5.031431700000003
-13.038955666666704,-2.0409772666666632,-3.7516320666666694
-15.62727833333337,-3.50269363333333,-2.4718324333333355
-18.215601000000035,-4.964409999999996,-1.1920328000000018
-18.21560100000004,-4.964409999999996,-1.192032800000002
-16.495371833333373,-4.188870466666663,-0.6079846133333353
-14.775142666666705,-3.4133309333333295,-0.02393642666666862
-13.054913500000039,-2.6377913999999962,0.5601117599999981
-13.054913500000039,-2.6377913999999962,0.5601117599999981
-10.65489020000004,-2.6697065999999965,-0.036702526666668546
-8.25486690000004,-2.7016217999999967,-0.6335168133333351
-5.854843600000041,-2.733536999999997,-1.2303311000000017
-5.854843600000041,-2.733536999999997,-1.2303311000000017
-3.80907922000004,-2.315447866666664,-0.3877697666666684
-1.7633148400000402,-1.8973587333333306,0.45479156666666487
0.28244953999995975,-1.4792695999999974,1.2973528999999981
0.28244953999995975,-1.4792695999999974,1.2973528999999981
-4.144188973333374,-1.8175707333333306,0.3781951333333315
-8.570827486666706,-2.1558718666666636,-0.5409626333333352
-12.99746600000004,-2.494172999999997,-1.4601204000000019
-12.99746600000004,-2.494172999999997,-1.4601204000000019
-12.99746600000004,-2.494172999999997,-1.4601204000000019
-13.335767000000041,-2.082466899999997,-1.6324625000000017
-13.674068000000043,-1.6707607999999972,-1.8048046000000015
-14.012369000000044,-1.2590546999999972,-1.9771467000000014
-12.831506666666712,-1.367566366666664,-1.8877841333333347
-11.65064433333338,-1.4760780333333308,-1.7984215666666679
-10.469782000000047,-1.5845896999999975,-1.709059000000001
-10.469782000000047,-1.5845896999999975,-1.709059000000001
-9.678285000000047,-1.859060466666664,-1.5462914666666674
-8.886788000000045,-2.1335312333333305,-1.3835239333333338
-8.095291000000044,-2.4080019999999966,-1.2207564000000002
-8.095291000000042,-2.4080019999999966,-1.2207564000000002
-6.068675666666709,-2.2835326666666638,-0.8984128866666669
-4.042060333333375,-2.1590633333333304,-0.5760693733333336
-2.0154450000000423,-2.034593999999997,-0.2537258600000005
-2.0154450000000423,-2.034593999999997,-0.2537258600000005
-3.483544200000042,-1.9133162666666639,-0.7835182066666673
-4.951643400000042,-1.7920385333333304,-1.313310553333334
-6.419742600000042,-1.6707607999999972,-1.8431029000000008
-6.419742600000042,-1.6707607999999972,-1.8431029000000008
-10.485739400000043,-1.9165078666666637,-2.111190600000001
-14.551736200000043,-2.16225493333333,-2.379278300000001
-18.617733000000044,-2.4080019999999966,-2.647366000000001
-18.617733000000044,-2.4080019999999966,-2.647366000000001
-16.335796000000045,-2.423959566666664,-1.543100000000001
-14.053859000000045,-2.439917133333331,-0.4388340000000011
-11.771922000000046,-2.4558746999999976,0.6654319999999988
-11.771922000000046,-2.4558746999999976,0.6654319999999988
-10.648507000000047,-2.3728951666666642,0.34627996666666555
-9.525092000000047,-2.289915633333331,0.027127933333332188
-8.401677000000047,-2.206936099999997,-0.2920241000000012
-8.40167700000005,-2.206936099999997,-0.2920241000000012
-5.503776633333383,-2.423959466666664,0.5026644333333321
-2.605876266666716,-2.6409828333333305,1.2973529666666654
0.29202409999995077,-2.858006199999997,2.0920414999999988
0.2920240999999507,-2.858006199999997,2.0920414999999988
-2.666514933333382,-3.1324769333333307,0.8696892666666654
-5.625053966666715,-3.406947666666664,-0.352662966666668
-8.583593000000048,-3.681418399999997,-1.5750152000000013
-8.583593000000048,-3.681418399999997,-1.5750152000000013
-8.583593000000048,-3.681418399999997,-1.5750152000000013
-11.909157333333381,-2.8835383999999973,-1.9899128000000015
-15.234721666666713,-2.0856583999999976,-2.4048104000000015
-18.560286000000044,-1.2877783999999977,-2.819708000000002
-16.141113666666712,-1.393098566666664,-2.293107200000002
-13.721941333333376,-1.4984187333333303,-1.766506400000002
-11.30276900000004,-1.6037388999999969,-1.239905600000002
-11.30276900000004,-1.6037388999999969,-1.239905600000002
-11.30276900000004,-1.6037388999999969,-1.239905600000002
-8.752744233333374,-1.9771467666666636,-0.7005386866666686
-6.202719466666707,-2.35055463333333,-0.16117177333333532
-3.652694700000041,-2.7239624999999967,0.37819513999999793
-3.652694700000041,-2.7239624999999967,0.37819513999999793
-2.025019433333375,-2.2643835666666634,0.3973442599999979
-0.3973441666667082,-1.8048046333333299,0.41649337999999786
1.2303310999999584,-1.3452256999999967,0.43564249999999777
-4.421850933333375,-1.5016101999999967,-0.9654348666666689
-10.074032966666708,-1.6579946999999968,-2.3665122333333355
-15.726215000000044,-1.8143791999999968,-3.767589600000002
-15.726215000000044,-1.8143791999999968,-3.767589600000002
-15.279402333333374,-2.7941759333333303,-2.2548090233333355
-14.832589666666706,-3.7739726666666638,-0.7420284466666688
-14.385777000000038,-4.753769399999998,0.7707521299999979
-14.385777000000038,-4.753769399999999,0.7707521299999979
-13.827261000000037,-4.102699266666665,0.7835182199999978
-13.268745000000038,-3.451629133333332,0.7962843099999978
-12.710229000000039,-2.8005589999999985,0.8090503999999977
-12.710229000000039,-2.8005589999999985,0.8090503999999977
-9.627220533333372,-2.6760896666666656,0.5601118146666645
-6.544212066666705,-2.5516203333333323,0.31117322933333125
-3.4612036000000383,-2.427150999999999,0.06223464399999793
-3.461203600000038,-2.427150999999999,0.06223464399999793
-2.1877870666667047,-2.2962986666666656,0.6303252293333311
-0.9143705333333711,-2.1654463333333323,1.1984158146666644
0.3590459999999623,-2.034593999999999,1.766506399999998
0.3590459999999623,-2.034593999999999,1.766506399999998
-5.344200666666704,-2.1239565666666658,0.4930898999999978
-11.047447333333368,-2.2133191333333326,-0.7803266000000022
-16.750694000000035,-2.3026816999999995,-2.0537431000000024
-16.75069400000004,-2.3026816999999995,-2.0537431000000024
-15.355999333333372,-2.2420428666666665,-1.5686320666666693
-13.961304666666706,-2.181404033333333,-1.083521033333336
-12.56661000000004,-2.1207651999999997,-0.5984100000000026
-11.890008000000043,-2.1782125666666663,-0.8409655333333359
-11.213406000000044,-2.235659933333333,-1.0835210666666693
-10.536804000000044,-2.2931072999999995,-1.3260766000000026
-10.536804000000044,-2.2931072999999995,-1.3260766000000024
-10.536804000000044,-2.2931072999999995,-1.3260766000000024
-8.168695966666712,-2.4526833,-0.7324538533333357
-5.800587933333379,-2.6122593,-0.13883110666666898
-3.4324799000000454,-2.7718353,0.4547916399999978
-4.734620133333379,-2.6409829333333334,-0.2377682400000023
-6.036760366666711,-2.510130566666667,-0.9303281200000022
-7.338900600000044,-2.3792782000000003,-1.622888000000002
-7.338900600000044,-2.3792782000000003,-1.622888000000002
-10.945318400000042,-2.602684666666667,-2.3952358666666687
-14.551736200000041,-2.826091133333334,-3.1675837333333354
-18.15815400000004,-3.049497600000001,-3.9399316000000018
-18.15815400000004,-3.049497600000001,-3.9399316000000018
-16.166645333333374,-3.202690533333334,-2.337788500000002
-14.175136666666708,-3.355883466666667,-0.735645400000002
-12.183628000000041,-3.5090764,0.8664976999999979
-12.183628000000041,-3.5090764,0.8664976999999979
-11.111277333333376,-2.842048666666667,0.24734278666666462
-10.038926666666711,-2.1750209333333337,-0.3718121266666687
-8.966576000000046,-1.5079932000000003,-0.990967040000002
-8.966576000000048,-1.5079932000000003,-0.990967040000002
-7.530392000000048,-1.5750151333333335,-0.5888354933333354
-6.094208000000048,-1.642037066666667,-0.1867039466666687
-4.658024000000048,-1.7090590000000005,0.21542759999999794
-4.658024000000048,-1.7090590000000005,0.21542759999999794
-3.825037100000048,-2.018636466666667,0.2186191233333313
-2.9920502000000475,-2.3282139333333336,0.22181064666666464
-2.159063300000047,-2.6377914,0.225002169999998
-3.3048190666667145,-2.8452401999999997,0.37181211333333136
-4.450574833333381,-3.0526890000000004,0.5186220566666647
-5.596330600000048,-3.2601378000000008,0.665431999999998
-5.596330600000047,-3.260137800000001,0.6654319999999979
-8.33465473333338,-2.9984332000000022,-0.5537287333333354
-11.072978866666714,-2.736728600000003,-1.7728894666666688
-13.811303000000047,-2.4750240000000034,-2.9920502000000027
-13.811303000000047,-2.4750240000000034,-2.9920502000000027
-15.617703666666714,-2.3409801333333364,-3.7420573333333356
-17.424104333333382,-2.2069362666666694,-4.49206446666667
-19.230505000000047,-2.072892400000003,-5.242071600000004
-19.230505000000047,-2.0728924000000024,-5.242071600000004
-17.937939333333382,-2.1399143333333357,-4.450574733333338
-16.645373666666718,-2.2069362666666685,-3.659077866666672
-15.352808000000051,-2.2739582000000014,-2.8675810000000053
-15.352808000000053,-2.2739582000000014,-2.8675810000000053
-13.086828666666719,-2.6952388000000007,-2.497364633333339
-10.820849333333385,-3.1165194000000014,-2.1271482666666723
-8.554870000000053,-3.537800000000002,-1.7569319000000057
-8.55487000000005,-3.537800000000002,-1.7569319000000057
-8.55487000000005,-3.537800000000002,-1.7569319000000057
-7.27187880000005,-3.2920530000000015,-1.5239509000000055
-5.988887600000051,-3.0463060000000013,-1.2909699000000054
-4.705896400000051,-2.800559000000001,-1.0579889000000056
-5.015473933333385,-2.395235900000001,-1.1633090666666723
-5.325051466666718,-1.9899128000000015,-1.268629233333339
-5.634629000000051,-1.5845897000000015,-1.3739494000000059
-5.634629000000051,-1.5845897000000015,-1.3739494000000059
-6.710171333333384,-1.421822166666668,-1.6516116333333393
-7.785713666666717,-1.2590546333333346,-1.9292738666666727
-8.86125600000005,-1.0962871000000012,-2.206936100000006
-8.861256000000052,-1.0962871000000012,-2.206936100000006
-10.370845000000052,-1.0899041000000014,-2.589918533333339
-11.880434000000053,-1.0835211000000016,-2.9729009666666726
-13.390023000000054,-1.0771381000000015,-3.3558834000000055
-13.390023000000054,-1.0771381000000018,-3.3558834000000055
-11.417663433333388,-1.453737433333335,-2.6314083333333387
-9.445303866666722,-1.8303367666666686,-1.906933266666672
-7.472944300000056,-2.206936100000002,-1.1824582000000052
-7.472944300000056,-2.206936100000002,-1.1824582000000052
-8.829340200000056,-1.839911333333335,-1.5845897333333385
-10.185736100000057,-1.4728865666666682,-1.9867212666666718
-11.542132000000057,-1.1058618000000013,-2.388852800000005
-11.542132000000057,-1.1058618000000011,-2.3888528000000044
-11.060212666666722,-1.0164992133333344,-2.411193433333338
-10.57829333333339,-0.9271366266666677,-2.4335340666666716
-10.096374000000056,-0.837774040000001,-2.4558747000000047
-10.096374000000058,-0.8377740400000008,-2.4558747000000047
-9.324026100000058,-0.9494772266666676,-1.9101247666666712
-8.551678200000058,-1.0611804133333342,-1.3643748333333374
-7.779330300000058,-1.1728836000000007,-0.818624900000004
-7.779330300000059,-1.1728836000000007,-0.818624900000004
-7.932523533333392,-1.3101189666666673,-0.7452199333333372
-8.085716766666726,-1.4473543333333339,-0.6718149666666705
-8.238910000000061,-1.5845897000000004,-0.5984100000000038
-8.238910000000063,-1.5845897000000004,-0.5984100000000038
-8.24848416666673,-1.5845897000000004,-0.34308839666667046
-8.258058333333397,-1.5845897000000004,-0.08776679333333715
-8.267632500000063,-1.5845897000000004,0.16755480999999617
-8.267632500000063,-1.5845897000000004,0.16755480999999617
-8.8867873333334,-1.3962900000000005,-0.20585306000000383
-9.505942166666735,-1.2079903000000003,-0.5792609300000038
-10.12509700000007,-1.0196906000000003,-0.9526688000000038
-10.125097000000071,-1.0196906000000006,-0.9526688000000038
-10.278290333333405,-1.3133104666666673,-1.0803296000000038
-10.43148366666674,-1.6069303333333342,-1.2079904000000037
-10.584677000000074,-1.9005502000000012,-1.3356512000000036
-10.584677000000076,-1.9005502000000014,-1.3356512000000036
-10.996383000000074,-1.9452314666666684,-1.5526745666666704
-11.408089000000075,-1.989912733333335,-1.769697933333337
-11.819795000000076,-2.034594000000002,-1.9867213000000037
-11.819795000000076,-2.034594000000002,-1.9867213000000037
-10.814466000000076,-1.7218250333333351,-2.2452344333333376
-9.809137000000078,-1.4090560666666683,-2.503747566666671
-8.80380800000008,-1.0962871000000016,-2.7622607000000055
-8.80380800000008,-1.0962871000000016,-2.7622607000000055
-9.620837333333414,-0.9271365666666682,-3.2824784666666713
-10.437866666666746,-0.7579860333333349,-3.8026962333333376
-11.254896000000079,-0.5888355000000015,-4.3229140000000035
-11.254896000000079,-0.5888355000000015,-4.3229140000000035
-9.828286333333411,-0.43883404000000165,-3.5154594000000032
-8.401676666666745,-0.28883258000000167,-2.7080048000000034
-6.975067000000078,-0.13883112000000167,-1.9005502000000034
-6.975067000000078,-0.13883112000000167,-1.9005502000000039
-6.534637333333412,-0.26010889666666837,-1.8462943666666707
-6.094207666666745,-0.38138667333333504,-1.7920385333333375
-5.653778000000078,-0.5026644500000017,-1.7377827000000046
-5.653778000000078,-0.5026644500000016,-1.7377827000000046
-5.736757533333411,-0.5696863566666682,-1.5782067000000044
-5.819737066666746,-0.6367082633333349,-1.4186307000000042
-5.90271660000008,-0.7037301700000015,-1.2590547000000043
-5.902716600000081,-0.7037301700000015,-1.2590547000000043
-6.272932966666748,-0.8218164133333348,-1.1984158333333375
-6.643149333333416,-0.9399026566666681,-1.1377769666666708
-7.013365700000084,-1.0579889000000013,-1.0771381000000042
-7.013365700000084,-1.0579889000000013,-1.0771381000000042
-7.211239933333417,-1.2335225000000012,-1.2399056333333374
-7.4091141666667495,-1.4090561000000015,-1.4026731666666707
-7.606988400000081,-1.5845897000000015,-1.5654407000000041
-7.606988400000081,-1.5845897000000015,-1.5654407000000041
-7.421880266666748,-1.9579975333333348,-1.262246266666671
-7.236772133333415,-2.3314053666666683,-0.9590518333333377
-7.051664000000081,-2.7048132000000016,-0.6558574000000044
-7.051664000000081,-2.7048132000000016,-0.6558574000000044
-9.936798333333416,-3.0111992000000014,-1.0611804333333377
-12.821932666666749,-3.3175852000000012,-1.466503466666671
-15.707067000000082,-3.623971200000001,-1.8718265000000043
-15.707067000000082,-3.623971200000001,-1.8718265000000043
-15.269828333333415,-3.3239683000000007,-1.3611833000000042
-14.832589666666747,-3.0239654000000002,-0.8505401000000044
-14.395351000000078,-2.7239625000000003,-0.3398969000000043
-14.395351000000076,-2.7239625000000003,-0.3398969000000043
-12.818740333333409,-2.2516174666666666,-0.1579802533333376
-11.242129666666742,-1.7792724333333334,0.02393639333332907
-9.665519000000076,-1.3069274000000002,0.20585303999999574
-9.665519000000076,-1.3069274000000002,0.20585303999999574
-7.533583466666742,-1.2239479,0.5728778266666624
-5.401647933333408,-1.1409684,0.939902613333329
-3.2697124000000755,-1.0579888999999998,1.3069273999999957
-3.2697124000000755,-1.0579888999999998,1.3069273999999957
-2.519705133333409,-1.207990333333333,1.2303309666666624
-1.7696978666667427,-1.3579917666666663,1.1537345333333289
-1.0196906000000758,-1.5079931999999996,1.0771380999999955
-1.019690600000076,-1.5079931999999996,1.0771380999999955
-5.72718273333341,-1.6260794666666663,0.0175533999999955
-10.434674866666743,-1.7441657333333331,-1.0420313000000043
-15.142167000000079,-1.8622519999999998,-2.1016160000000044
-15.142167000000079,-1.8622519999999998,-2.101616000000005
-14.950676000000078,-1.7313996666666664,-1.9707636666666712
-14.759185000000079,-1.600547333333333,-1.839911333333338
-14.56769400000008,-1.4696949999999998,-1.7090590000000045
-14.56769400000008,-1.4696949999999998,-1.7090590000000045
-12.68469700000008,-1.6611862333333332,-1.4984187000000047
-10.801700000000082,-1.8526774666666668,-1.2877784000000048
-8.918703000000082,-2.0441687,-1.0771381000000047
-8.91870300000008,-2.0441687,-1.0771381000000047
-6.138888966666748,-2.0186365333333334,-0.5728779000000046
-3.359074933333415,-1.9931043666666663,-0.06861770000000456
-0.5792609000000812,-1.9675721999999995,0.4356424999999955
-0.5792609000000812,-1.9675721999999995,0.4356424999999955
-2.940985933333415,-2.1303396999999995,-0.043085533333337846
-5.302710966666749,-2.2931071999999992,-0.5218135666666711
-7.664436000000081,-2.4558746999999994,-1.0005416000000045
-7.66443600000008,-2.455874699999999,-1.0005416000000045
-11.436812333333414,-2.762260699999999,-1.6388456333333377
-15.209188666666746,-3.0686466999999986,-2.2771496666666713
-18.981565000000078,-3.3750326999999984,-2.9154537000000045
-18.981565000000074,-3.3750326999999984,-2.9154537000000045
-17.060270333333406,-3.403756333333332,-1.6579947466666713
-15.138975666666738,-3.432479966666665,-0.40053579333333805
-13.21768100000007,-3.461203599999998,0.8569231599999952
-13.21768100000007,-3.4612035999999975,0.8569231599999952
-10.57510220000007,-2.83247413333333,0.7803266733333286
-7.932523400000069,-2.203744666666663,0.7037301866666619
-5.2899446000000685,-1.5750151999999966,0.6271336999999951
-5.289944600000069,-1.5750151999999966,0.6271336999999951
-5.289944600000069,-1.5750151999999966,0.6271336999999951
-3.295244523333403,-1.7345911666666634,0.6909640999999952
-1.3005444466667362,-1.8941671333333299,0.7547944999999953
0.6941556299999302,-2.0537430999999966,0.8186248999999953
-5.018665246666738,-2.06650923333333,-0.713304733333338
-10.731486123333404,-2.0792753666666637,-2.245234366666671
-16.44430700000007,-2.092041499999997,-3.7771640000000044
-16.44430700000007,-2.092041499999997,-3.777164000000005
-15.640044000000067,-1.8016131333333298,-2.8803468666666716
-14.835781000000066,-1.5111847666666627,-1.9835297333333382
-14.031518000000064,-1.2207563999999957,-1.086712600000005
-14.031518000000064,-1.2207563999999957,-1.086712600000005
-12.030435000000066,-1.3516087333333289,-1.1122447666666717
-10.029352000000067,-1.4824610666666622,-1.1377769333333383
-8.028269000000067,-1.6133133999999956,-1.1633091000000049
-8.028269000000067,-1.6133133999999956,-1.1633091000000049
-5.491010466666734,-1.5909727666666624,-0.6654319566666717
-2.953751933333401,-1.568632133333329,-0.1675548133333383
-0.41649340000006774,-1.5462914999999955,0.33032232999999506
-0.41649340000006774,-1.5462914999999953,0.33032232999999506
-1.9133164000000678,-1.5845897333333288,-0.09734138000000496
-3.4101394000000678,-1.6228879666666625,-0.525005090000005
-4.906962400000068,-1.661186199999996,-0.952668800000005
-4.906962400000068,-1.661186199999996,-0.952668800000005
-8.842106600000067,-2.1782124666666625,-1.5367169333333386
-12.777250800000068,-2.6952387333333294,-2.120765066666672
-16.71239500000007,-3.2122649999999964,-2.7048132000000056
-16.71239500000007,-3.2122649999999964,-2.7048132000000056
-16.147496000000064,-3.4069477666666628,-1.881401043333339
-15.582597000000064,-3.601630533333329,-1.0579888866666722
-15.017698000000061,-3.7963132999999956,-0.23457673000000545
-15.017698000000061,-3.7963132999999956,-0.23457673000000545
-13.284702333333394,-2.985667166666662,-0.30798170000000546
-11.551706666666727,-2.1750210333333286,-0.3813866700000054
-9.81871100000006,-1.3643748999999954,-0.45479164000000544
-9.818711000000063,-1.3643748999999954,-0.45479164000000544
-6.403784683333395,-1.2079903999999952,0.011170306666661209
-2.988858366666728,-1.0516058999999953,0.4771322533333279
0.42606794999993863,-0.8952213999999953,0.9430941999999946
0.42606794999993863,-0.8952213999999953,0.9430941999999946
0.42606794999993863,-0.8952213999999953,0.9430941999999946
-2.2867241666667284,-1.4250137333333288,0.25053433333332786
-4.999516283333395,-1.954806066666662,-0.44202553333333877
-7.712308400000062,-2.4845983999999954,-1.1345854000000053
-11.165533266666728,-2.0760838333333296,-1.4760780333333388
-14.618758133333396,-1.667569266666663,-1.8175706666666722
-18.071983000000063,-1.2590546999999963,-2.159063300000006
-18.071983000000063,-1.2590546999999965,-2.1590633000000063
-15.614512666666732,-1.37075793333333,-1.8526774000000064
-13.157042333333399,-1.4824611666666634,-1.5462915000000066
-10.699572000000066,-1.5941643999999968,-1.2399056000000066
-10.699572000000066,-1.5941643999999968,-1.2399056000000064
-10.699572000000066,-1.5941643999999968,-1.2399056000000064
-7.836778200000065,-1.7760810333333303,-0.665431966666673
-4.973984400000066,-1.9579976666666639,-0.09095833333333976
-2.1111906000000658,-2.1399142999999974,0.4835152999999936
-2.5165136000000654,-1.8111877333333306,0.20904456666666024
-2.921836600000065,-1.482461166666664,-0.0654261666666731
-3.327159600000065,-1.1537345999999973,-0.33989690000000644
-3.327159600000065,-1.1537345999999973,-0.33989690000000644
-3.327159600000065,-1.1537345999999973,-0.33989690000000644
-7.648478066666731,-1.7537403333333306,-1.2654377666666732
-11.969796533333396,-2.353746066666664,-2.19097863333334
-16.29111500000006,-2.953751799999997,-3.1165195000000065
-16.291115000000065,-2.953751799999997,-3.1165195000000074
-15.474085666666731,-3.1707751999999965,-2.009061986666674
-14.657056333333399,-3.3877985999999964,-0.9016044733333409
-13.840027000000065,-3.6048219999999964,0.20585303999999235
-13.096403000000066,-2.883538466666663,0.014361836666659022
-12.352779000000067,-2.1622549333333296,-0.1771293666666743
-11.609155000000067,-1.4409713999999962,-0.36862057000000764
-11.609155000000067,-1.4409713999999962,-0.36862057000000764
-8.941044000000067,-1.3516087999999964,-0.23457672666667428
-6.272933000000066,-1.2622461999999965,-0.10053288333334097
-3.6048220000000657,-1.1728835999999965,0.03351095999999235
-3.6048220000000657,-1.1728835999999965,0.03351095999999235
-3.6048220000000657,-1.1728835999999965,0.03351095999999235
-3.662269333333399,-1.740974166666663,0.05266008333332569
-3.7197166666667325,-2.3090647333333294,0.07180920666665902
-3.777164000000066,-2.877155299999996,0.09095832999999236
-3.7771640000000666,-2.877155299999996,0.09095832999999236
-8.264441666666734,-2.1207650666666624,-0.9686263466666744
-12.751719333333403,-1.3643748333333292,-2.028211023333341
-17.23899700000007,-0.6079845999999959,-3.0877957000000076
-14.89322950000007,-0.8345825333333292,-2.245234386666674
-12.547462000000072,-1.0611804666666627,-1.4026730733333406
-10.201694500000071,-1.2877783999999959,-0.5601117600000073
-10.201694500000071,-1.2877783999999959,-0.5601117600000073
-10.201694500000071,-1.2877783999999959,-0.5601117600000073
-9.14530120000007,-1.626079499999996,-0.518622006666674
-8.088907900000068,-1.964380599999996,-0.47713225333334064
-7.032514600000067,-2.302681699999996,-0.43564250000000726
-7.032514600000067,-2.302681699999996,-0.43564250000000726
-5.3601580666667346,-2.2707664999999957,-0.35266298000000734
-3.6878015333334013,-2.2388512999999954,-0.2696834600000073
-2.0154450000000685,-2.206936099999995,-0.1867039400000073
-4.814408000000069,-2.3282138999999957,-0.7069216933333405
-7.613371000000069,-2.449491699999996,-1.2271394466666738
-10.41233400000007,-2.570769499999996,-1.747357200000007
-10.41233400000007,-2.5707694999999964,-1.747357200000007
-10.41233400000007,-2.5707694999999964,-1.747357200000007
-12.247458166666737,-2.759069166666663,-1.5845897000000073
-14.082582333333404,-2.94736883333333,-1.4218222000000074
-15.91770650000007,-3.1356684999999964,-1.2590547000000074
-15.91770650000007,-3.1356684999999964,-1.2590547000000074
-14.328329333333402,-2.6441743999999967,-0.7037301933333407
-12.738952166666735,-2.1526802999999965,-0.14840568666667409
-11.149575000000068,-1.6611861999999966,0.40691881999999263
-11.149575000000068,-1.6611861999999966,0.40691881999999263
-10.629357500000069,-1.4728864999999962,-0.1611717533333407
-10.10914000000007,-1.2845867999999963,-0.729262326666674
-9.588922500000072,-1.0962870999999963,-1.2973529000000072
-9.588922500000072,-1.0962870999999965,-1.2973529000000072
-7.8272033333334035,-1.4984186333333298,-0.4962813333333407
-6.065484166666735,-1.9005501666666635,0.30479023333332594
-4.303765000000068,-2.3026816999999973,1.1058617999999927
-4.303765000000068,-2.3026816999999973,1.1058617999999927
-5.200582133333401,-2.181403966666664,0.6047931133333259
-6.097399266666734,-2.0601262333333303,0.1037244266666592
-6.9942164000000675,-1.938848499999997,-0.3973442600000075
-6.9942164000000675,-1.938848499999997,-0.3973442600000075
-10.951700933333404,-1.8526774666666637,-1.482461073333341
-14.90918546666674,-1.7665064333333305,-2.5675778866666747
-18.866670000000074,-1.680335399999997,-3.652694700000008
-18.866670000000074,-1.680335399999997,-3.652694700000008
-16.252815333333405,-1.906933266666664,-2.7335369333333417
-13.638960666666735,-2.1335311333333307,-1.814379166666675
-11.025106000000067,-2.3601289999999975,-0.8952214000000084
-11.025106000000067,-2.360128999999997,-0.8952214000000084
-9.9272232333334,-2.459066166666664,-0.9782009333333416
-8.829340466666734,-2.5580033333333305,-1.0611804666666749
-7.731457700000067,-2.6569404999999975,-1.144160000000008
-7.731457700000067,-2.656940499999998,-1.144160000000008
-5.8580353333334,-2.5803439999999975,-0.876072300000008
-3.984612966666733,-2.503747499999997,-0.6079846000000079
-2.1111906000000666,-2.427150999999997,-0.3398969000000079
-2.1111906000000666,-2.4271509999999967,-0.3398969000000079
-2.9633264666667336,-2.334596999999997,-0.41968490000000797
-3.8154623333334,-2.242042999999997,-0.499472900000008
-4.667598200000067,-2.1494889999999973,-0.5792609000000081
-4.667598200000067,-2.1494889999999978,-0.5792609000000081
-6.103782300000067,-2.369703833333331,-0.45479161333334145
-7.539966400000068,-2.5899186666666645,-0.33032232666667477
-8.976150500000069,-2.810133499999998,-0.20585304000000806
-8.976150500000069,-2.810133499999998,-0.20585304000000804
-11.283619666666736,-2.7399200999999977,-0.9526687933333413
-13.591088833333401,-2.6697066999999977,-1.6994845466666746
-15.898558000000067,-2.5994932999999976,-2.446300300000008
-15.898558000000067,-2.5994932999999976,-2.4463003000000083
-15.962388666666733,-3.0622636666666643,-1.6548032666666748
-16.026219333333398,-3.5250340333333305,-0.8633062333333413
-16.090050000000065,-3.987804399999997,-0.07180920000000812
-16.090050000000062,-3.987804399999997,-0.07180920000000812
-14.92514466666673,-2.905879066666664,-0.17393784666667478
-13.760239333333397,-1.8239537333333307,-0.27606649333334143
-12.595334000000065,-0.7420283999999974,-0.3781951400000081
-12.595334000000065,-0.7420283999999974,-0.37819514000000815
-10.386802166666731,-0.8696891999999973,-0.12287352666667484
-8.178270333333396,-0.9973499999999973,0.1324480866666585
-5.969738500000062,-1.1250107999999972,0.3877696999999918
-5.969738500000062,-1.1250107999999972,0.3877696999999918
-5.966547000000062,-1.0675634666666636,0.3175562566666585
-5.963355500000063,-1.0101161333333302,0.24734281333332517
-5.960164000000063,-0.9526687999999969,0.17712936999999185
-5.960164000000063,-0.9526687999999969,0.17712936999999185
-7.169750166666731,-1.0803295999999967,0.1260650473333252
-8.379336333333399,-1.2079903999999966,0.07500072466665852
-9.588922500000066,-1.3356511999999965,0.023936401999991853
-9.588922500000066,-1.3356511999999965,0.023936401999991853
-9.939989666666733,-1.456928966666663,-0.062234642000008146
-10.2910568333334,-1.5782067333333296,-0.14840568600000817
-10.642124000000067,-1.699484499999996,-0.23457673000000814
-10.642124000000067,-1.6994844999999958,-0.23457673000000814
-10.1410553333334,-1.5239508666666624,-0.3175562533333415
-9.639986666666731,-1.348417233333329,-0.4005357766666748
-9.138918000000062,-1.1728835999999958,-0.4835153000000081
-9.138918000000062,-1.1728835999999958,-0.4835153000000081
-9.138918000000062,-1.1728835999999958,-0.4835153000000081
-8.995299666666728,-1.4409712999999957,-0.6367082666666747
-8.851681333333394,-1.7090589999999957,-0.7899012333333414
-8.708063000000061,-1.9771466999999958,-0.943094200000008
-9.084662333333393,-2.0601261999999956,-0.978200900000008
-9.461261666666728,-2.1431056999999956,-1.013307600000008
-9.837861000000059,-2.226085199999995,-1.0484143000000081
-9.837861000000057,-2.226085199999995,-1.0484143000000081
-9.64317833333339,-2.2835326333333286,-1.0164991333333413
-9.448495666666721,-2.340980066666662,-0.9845839666666745
-9.253813000000054,-2.3984274999999955,-0.952668800000008
-9.253813000000052,-2.3984274999999955,-0.952668800000008
-9.253813000000052,-2.3984274999999955,-0.952668800000008
-9.241046666666719,-2.395235933333329,-0.9335196666666746
-9.228280333333386,-2.392044366666662,-0.9143705333333413
-9.21551400000005,-2.3888527999999956,-0.8952214000000079
-9.218705666666716,-2.4367255999999955,-0.8984129133333413
-9.221897333333382,-2.4845983999999954,-0.9016044266666746
-9.225089000000049,-2.532471199999995,-0.904795940000008
-9.225089000000049,-2.532471199999995,-0.904795940000008
-9.186790666666713,-2.513322133333329,-0.9239450600000079
-9.148492333333378,-2.494173066666663,-0.9430941800000078
-9.110194000000044,-2.4750239999999963,-0.9622433000000078
-9.110194000000043,-2.475023999999997,-0.9622433000000078
-9.110194000000043,-2.475023999999997,-0.9622433000000078
-9.154875333333377,-2.45906633333333,-0.9750094000000078
-9.19955666666671,-2.443108666666663,-0.9877755000000078
-9.244238000000045,-2.427150999999996,-1.0005416000000078
-9.196365000000046,-2.414384933333329,-0.9845840000000079
-9.148492000000045,-2.4016188666666625,-0.9686264000000079
-9.100619000000046,-2.3888527999999956,-0.952668800000008
-9.100619000000044,-2.3888527999999956,-0.952668800000008
-9.119768333333377,-2.376086766666662,-0.923945100000008
-9.138917666666712,-2.3633207333333286,-0.8952214000000079
-9.158067000000045,-2.350554699999995,-0.8664977000000079
-9.158067000000045,-2.350554699999995,-0.8664977000000079
-9.158067000000045,-2.350554699999995,-0.8664977000000079
