accx,accy,accz
6.2665496,-3.4229053999999994,4.782493
6.2665496,-3.4229053999999994,4.782493
7.610179733333333,-4.144188933333332,6.020802666666666
8.953809866666665,-4.865472466666665,7.259112333333333
10.297439999999998,-5.5867559999999985,8.497422
10.297439999999996,-5.5867559999999985,8.497422
10.067650333333331,-5.360158133333333,7.906990866666665
9.837860666666664,-5.1335602666666675,7.316559733333332
9.608070999999997,-4.906962400000002,6.726128599999998
9.608070999999997,-4.906962400000002,6.726128599999998
9.410196999999997,-4.938877600000001,5.969738399999998
9.212322999999996,-4.970792800000002,5.213348199999999
9.014448999999994,-5.002708000000002,4.456957999999999
9.062321666666662,-5.296327766666669,3.831419999999999
9.11019433333333,-5.589947533333334,3.205881999999999
9.158066999999997,-5.8835673,2.580343999999999
9.158066999999997,-5.8835673,2.580343999999999
9.209131333333332,-5.870801200000002,2.401618899999999
9.260195666666666,-5.858035100000001,2.222893799999999
9.311259999999999,-5.845269000000001,2.044168699999999
9.31126,-5.845268999999999,2.044168699999999
9.282536333333335,-5.775055666666667,1.8941672666666658
9.253812666666667,-5.7048423333333345,1.7441658333333325
9.225089,-5.634629000000001,1.5941643999999993
9.225089,-5.634629000000001,1.5941643999999993
9.062321666666666,-5.580373133333335,1.2782038833333327
8.899554333333331,-5.526117266666668,0.962243366666666
8.736786999999996,-5.471861400000001,0.6462828499999994
8.736786999999994,-5.471861399999999,0.6462828499999994
8.985725666666662,-5.226114266666666,0.47074923666666607
9.23466433333333,-4.980367133333332,0.29521562333333273
9.483602999999997,-4.734619999999998,0.11968200999999941
9.483602999999997,-4.734619999999997,0.11968200999999941
9.47402833333333,-4.6356829999999976,-0.02712791333333392
9.464453666666662,-4.536745999999998,-0.17393783666666726
9.454878999999993,-4.437808999999999,-0.3207477600000006
9.454878999999993,-4.437809,-0.3207477600000006
9.371899333333326,-4.1792958,-0.15159719333333393
9.28891966666666,-3.920782600000001,0.017553373333332734
9.205939999999993,-3.662269400000001,0.18670393999999937
9.218705999999992,-3.742057433333334,0.2090445799999994
9.231471999999991,-3.8218454666666672,0.2313852199999994
9.24423799999999,-3.9016335000000004,0.25372585999999936
9.24423799999999,-3.9016335000000004,0.25372585999999936
9.24423799999999,-3.9016335000000004,0.25372585999999936
9.253812666666656,-4.048443333333334,0.16915057333333264
9.263387333333322,-4.195253166666667,0.08457528666666597
9.272961999999987,-4.3420630000000005,0.0
9.35594133333332,-4.306956333333335,0.0462770399999993
9.438920666666654,-4.271849666666668,0.0925540799999993
9.521899999999988,-4.2367430000000015,0.1388311199999993
9.521899999999988,-4.2367430000000015,0.1388311199999993
9.537857666666653,-4.306956466666668,0.06542615833333264
9.553815333333318,-4.3771699333333345,-0.007978803333334025
9.569772999999984,-4.4473834000000005,-0.08138376500000069
9.569772999999984,-4.4473834000000005,-0.0813837650000007
9.474027499999984,-4.198444833333334,-0.004787280000000699
9.378281999999984,-3.9495062666666683,0.07180920499999931
9.282536499999985,-3.700567700000002,0.14840568999999929
9.282536499999985,-3.700567700000002,0.14840568999999929
9.100619999999985,-3.742057466666669,0.16755480666666592
8.918703499999985,-3.7835472333333358,0.18670392333333255
8.736786999999985,-3.825037000000003,0.20585303999999918
8.736786999999985,-3.825037000000003,0.20585303999999915
8.752744333333318,-3.9239740000000025,0.15159720099999915
8.76870166666665,-4.0229110000000015,0.09734136199999917
8.784658999999984,-4.121848000000001,0.04308552299999918
8.784658999999984,-4.121848000000001,0.04308552299999918
8.838914999999986,-4.214402133333334,0.014361840999999181
8.893170999999988,-4.306956266666668,-0.014361841000000819
8.94742699999999,-4.399510400000001,-0.04308552300000082
9.01444899999999,-4.310147933333336,0.049468561333332516
9.081470999999988,-4.220785466666669,0.14202264566666586
9.148492999999988,-4.1314230000000025,0.2345767299999992
9.14849299999999,-4.1314230000000025,0.2345767299999992
9.20593999999999,-4.125039900000002,0.14521416666666587
9.263386999999991,-4.118656800000001,0.055851603333332535
9.320833999999993,-4.1122737,-0.033510960000000804
9.320833999999993,-4.1122737,-0.033510960000000804
9.25700366666666,-4.1378059333333335,0.007978803333332533
9.193173333333327,-4.163338166666667,0.049468566666665874
9.129342999999993,-4.1888704,0.0909583299999992
9.129342999999993,-4.1888704,0.0909583299999992
9.135726333333325,-4.128231500000001,0.15798025333333254
9.142109666666657,-4.067592600000001,0.2250021766666659
9.14849299999999,-4.006953700000001,0.29202409999999923
9.14849299999999,-4.006953700000001,0.2920240999999993
9.151684333333323,-4.042060366666668,0.23138521466666592
9.154875666666657,-4.0771670333333345,0.17074632933333256
9.15806699999999,-4.1122737,0.11010744399999921
9.158066999999988,-4.1122737,0.11010744399999921
9.225088999999988,-4.179295700000001,0.10053288433333253
9.292110999999986,-4.246317700000001,0.09095832466666587
9.359132999999986,-4.313339700000001,0.0813837649999992
9.359132999999986,-4.313339700000001,0.0813837649999992
9.282536333333319,-4.185678800000002,0.11968200333333252
9.205939666666652,-4.058017900000002,0.15798024166666588
9.129342999999984,-3.930357000000002,0.19627847999999923
9.142109333333318,-4.086741466666669,0.21861912666666586
9.154875666666653,-4.243125933333335,0.24095977333333252
9.167641999999987,-4.399510400000001,0.26330041999999915
9.167641999999987,-4.399510400000001,0.26330041999999915
9.167641999999987,-4.399510400000001,0.26330041999999915
9.18359933333332,-4.358020600000002,0.2792580133333325
9.199556666666652,-4.316530800000002,0.29521560666666585
9.215513999999985,-4.2750410000000025,0.3111731999999992
9.189981999999986,-4.128231133333336,0.2792579999999992
9.164449999999988,-3.9814212666666684,0.24734279999999917
9.13891799999999,-3.8346114000000013,0.21542759999999914
9.138917999999991,-3.8346114000000013,0.21542759999999914
9.107002666666657,-3.7612064666666676,0.17712935999999915
9.075087333333325,-3.687801533333334,0.13883111999999917
9.043171999999993,-3.6143966000000005,0.10053287999999917
9.043171999999993,-3.6143966000000005,0.10053287999999917
9.065512666666661,-3.662269400000001,0.11968200333333251
9.087853333333328,-3.7101422000000013,0.13883112666666583
9.110193999999995,-3.7580150000000017,0.15798024999999918
9.110193999999995,-3.7580150000000017,0.15798024999999918
9.12934333333333,-3.8218454333333347,0.20585305666666587
9.148492666666662,-3.8856758666666678,0.2537258633333325
9.167641999999995,-3.949506300000001,0.3015986699999991
9.167641999999995,-3.949506300000001,0.3015986699999991
9.180407999999995,-3.9782300000000013,0.31117322333333247
9.193173999999994,-4.006953700000001,0.3207477766666658
9.205939999999993,-4.035677400000002,0.33032232999999916
9.205939999999993,-4.035677400000002,0.33032232999999916
9.202748333333327,-3.9909961000000016,0.3207477766666658
9.19955666666666,-3.946314800000001,0.31117322333333247
9.196364999999995,-3.9016335000000004,0.3015986699999991
9.196364999999995,-3.9016335000000004,0.3015986699999991
9.189982333333328,-3.8761013333333345,0.2984071466666658
9.18359966666666,-3.8505691666666686,0.2952156233333325
9.177216999999994,-3.825037000000003,0.29202409999999923
9.218706333333328,-3.898442000000003,0.30798169999999925
9.260195666666661,-3.9718470000000026,0.3239392999999992
9.301684999999994,-4.045252000000002,0.3398968999999992
9.301684999999994,-4.045252000000002,0.3398968999999992
9.301684999999994,-4.045252000000002,0.3398968999999992
9.241046333333328,-3.9846130333333356,0.36862058333333253
9.18040766666666,-3.9239740666666694,0.39734426666666584
9.119768999999993,-3.8633351000000027,0.42606794999999914
9.097428333333328,-3.888867266666669,0.4069188233333325
9.075087666666663,-3.9143994333333354,0.3877696966666659
9.052746999999998,-3.9399316000000018,0.3686205699999992
9.052747,-3.9399316000000018,0.3686205699999992
9.148492666666666,-4.0484433000000015,0.3686205699999992
9.244238333333332,-4.156955000000002,0.3686205699999992
9.339983999999998,-4.265466700000002,0.3686205699999992
9.339983999999996,-4.265466700000001,0.3686205699999992
9.394239666666664,-4.223976933333334,0.41011032999999925
9.448495333333332,-4.182487166666667,0.45160008999999923
9.502750999999998,-4.1409974,0.4930898499999992
9.502751,-4.1409974,0.4930898499999992
9.391048,-3.9718468000000002,0.45479161333333257
9.279344999999998,-3.8026962,0.41649337666666586
9.167641999999997,-3.6335456,0.37819513999999915
9.167641999999995,-3.6335456,0.37819513999999915
9.154875666666662,-3.6112050000000004,0.3590460133333324
9.142109333333329,-3.5888644000000007,0.3398968866666657
9.129342999999993,-3.566523800000001,0.320747759999999
9.177215999999994,-3.6878015333333347,0.42925945666666565
9.225088999999995,-3.8090792666666675,0.5377711533333324
9.272961999999994,-3.9303570000000003,0.646282849999999
9.272961999999994,-3.9303569999999994,0.6462828499999991
9.247429666666662,-4.0516347999999995,0.6494743666666657
9.22189733333333,-4.1729126,0.6526658833333324
9.196364999999995,-4.294190400000001,0.655857399999999
9.196364999999995,-4.294190400000001,0.655857399999999
9.202747999999994,-4.239934600000001,0.6175591466666658
9.209130999999994,-4.185678800000001,0.5792608933333324
9.215513999999994,-4.131423000000001,0.5409626399999992
9.215513999999994,-4.131423000000001,0.5409626399999992
9.170832833333328,-4.038868833333333,0.5058559266666659
9.126151666666663,-3.946314666666666,0.4707492133333325
9.081470499999996,-3.8537604999999986,0.4356424999999991
9.081470499999996,-3.8537604999999986,0.4356424999999991
9.097427999999995,-3.9143994666666657,0.46117466666666584
9.113385499999994,-3.975038433333333,0.4867068333333325
9.129342999999993,-4.0356774,0.5122389999999991
9.129342999999993,-4.0356774,0.5122389999999991
9.154875333333328,-4.038868933333332,0.5345796333333324
9.18040766666666,-4.0420604666666655,0.5569202666666656
9.205939999999993,-4.045251999999999,0.579260899999999
9.189982333333328,-3.968655466666666,0.5026644166666657
9.174024666666662,-3.8920589333333324,0.4260679333333323
9.158066999999997,-3.815462399999999,0.3494714499999989
9.158066999999997,-3.815462399999999,0.3494714499999989
9.158066999999997,-3.815462399999999,0.3494714499999989
9.16764133333333,-3.8090793666666656,0.3781951333333322
9.177215666666664,-3.802696333333332,0.4069188166666655
9.186789999999997,-3.796313299999999,0.4356424999999988
9.196364666666662,-3.9367400999999993,0.3973442533333322
9.205939333333328,-4.0771669,0.3590460066666655
9.215513999999994,-4.2175937,0.3207477599999988
9.215513999999994,-4.2175937,0.3207477599999988
9.21870566666666,-4.185678466666666,0.3207477599999988
9.221897333333326,-4.153763233333332,0.3207477599999988
9.225088999999992,-4.121847999999998,0.3207477599999988
9.225088999999992,-4.121847999999997,0.3207477599999988
9.164449999999992,-4.070783766666665,0.27606648666666556
9.103810999999991,-4.019719533333332,0.2313852133333322
9.043171999999993,-3.9686552999999996,0.18670393999999887
9.043171999999993,-3.9686552999999996,0.18670393999999887
9.084661999999994,-3.987804366666666,0.19308697333333222
9.126151999999996,-4.006953433333333,0.1994700066666655
9.167641999999995,-4.0261024999999995,0.20585303999999882
9.167641999999995,-4.0261025,0.2058530399999988
9.193173999999994,-4.013336466666668,0.2601088833333321
9.218705999999992,-4.000570433333334,0.31436472666666543
9.24423799999999,-3.9878044000000012,0.36862056999999876
9.24423799999999,-3.9878044000000012,0.36862056999999876
9.221897666666658,-3.997378933333334,0.3079816933333321
9.199557333333326,-4.006953466666667,0.24734281666666544
9.177216999999994,-4.016528,0.1867039399999988
9.177216999999994,-4.016528,0.1867039399999988
9.193174333333326,-4.0069534666666655,0.17393785666666547
9.209131666666659,-3.9973789333333323,0.16117177333333213
9.225088999999992,-3.9878043999999995,0.1484056899999988
9.22828066666666,-3.965463799999999,0.15798024999999882
9.231472333333326,-3.943123199999999,0.1675548099999988
9.234663999999992,-3.9207825999999995,0.17712936999999876
9.23466399999999,-3.9207826000000003,0.17712936999999873
9.23466399999999,-3.9207826000000003,0.17712936999999873
9.21870599999999,-3.879292833333333,0.13563960666666539
9.20274799999999,-3.837803066666666,0.09414984333333205
9.18678999999999,-3.796313299999999,0.05266007999999872
9.189981666666656,-3.8058878666666662,0.043085520666665385
9.193173333333322,-3.8154624333333333,0.033510961333332055
9.196364999999988,-3.825037,0.02393640199999872
9.196364999999988,-3.8250369999999996,0.02393640199999872
9.212322666666656,-3.8569521999999985,0.015957601333332055
9.228280333333322,-3.8888673999999974,0.007978800666665387
9.244237999999987,-3.920782599999997,0.0
9.244237999999985,-3.920782599999997,0.0
9.231471999999986,-3.8441860666666634,-0.01117032000000128
9.218705999999987,-3.76758953333333,-0.022340640000001282
9.205939999999988,-3.6909929999999966,-0.03351096000000128
9.20593999999999,-3.6909929999999966,-0.03351096000000128
9.167641666666656,-3.6973760333333296,-0.04308552133333462
9.129343333333324,-3.703759066666663,-0.05266008266666795
9.091044999999992,-3.7101420999999966,-0.06223464400000128
9.091044999999992,-3.7101420999999966,-0.06223464400000128
9.06551299999999,-3.6909929666666628,-0.06223464400000128
9.03998099999999,-3.671843833333329,-0.06223464400000128
9.01444899999999,-3.6526946999999956,-0.06223464400000128
9.01444899999999,-3.6526946999999956,-0.06223464400000128
8.972958999999989,-3.6686523666666626,-0.06223464400000128
8.931468999999987,-3.6846100333333296,-0.06223464400000128
8.889978999999988,-3.7005676999999966,-0.06223464400000128
8.889978999999988,-3.7005676999999966,-0.06223464400000128
8.889978999999988,-3.7005676999999966,-0.06223464400000128
8.889978999999988,-3.7005676999999966,-0.06223464400000128
8.889978999999988,-3.7005676999999966,-0.06223464400000128
8.77189299999999,-5.123985599999997,0.4101103373333321
8.653806999999992,-6.547403499999997,0.8824553186666654
8.535720999999993,-7.9708213999999975,1.3548002999999988
8.535720999999993,-7.9708213999999975,1.3548002999999988
8.264441666666658,-9.662327266666663,0.5824524333333322
7.9931623333333235,-11.353833133333332,-0.1898954333333345
7.7218829999999885,-13.045338999999998,-0.9622433000000011
7.7218829999999885,-13.045338999999998,-0.9622433000000011
7.772947333333323,-13.578322666666665,-1.721825100000001
7.824011666666657,-14.111306333333332,-2.481406900000001
7.87507599999999,-14.644289999999998,-3.240988700000001
7.6133713333333235,-13.549598666666666,-2.838857133333334
7.351666666666657,-12.454907333333333,-2.436725566666667
7.08996199999999,-11.360216000000001,-2.0345940000000002
7.08996199999999,-11.360216000000001,-2.0345940000000002
7.08996199999999,-11.360216000000001,-2.0345940000000002
6.247400766666657,-9.885733666666667,-1.5909727233333335
5.404839533333323,-8.411251333333333,-1.147351446666667
4.562278299999989,-6.936768999999998,-0.7037301700000002
4.5495120999999905,-6.665489833333332,-0.6271336900000001
4.536745899999992,-6.394210666666666,-0.55053721
4.523979699999992,-6.1229315,-0.47394073
4.523979699999993,-6.1229315,-0.47394073
6.017611133333328,-7.903799666666667,-0.5920269866666666
7.511242566666662,-9.684667833333334,-0.7101132433333334
9.004873999999996,-11.465536,-0.8281995000000002
9.004873999999996,-11.465536,-0.8281995000000002
8.143163533333329,-8.302739566666666,-0.7101132433333334
7.2814530666666615,-5.1399431333333325,-0.5920269866666666
6.419742599999995,-1.9771466999999987,-0.4739407299999998
6.419742599999995,-1.9771466999999987,-0.4739407299999998
5.356966399999995,0.5537287000000014,-1.2430970533333332
4.294190199999996,3.0846041000000017,-2.0122533766666666
3.231413999999996,5.615479500000002,-2.7814096999999998
3.231413999999996,5.615479500000002,-2.7814096999999998
7.096344999999996,5.701650666666668,-4.498447566666666
10.961275999999996,5.787821833333335,-6.215485433333332
14.826206999999997,5.873993000000001,-7.932523299999999
16.415583666666663,-0.8058589999999993,-10.437866533333333
18.00496033333333,-7.485710999999999,-12.943209766666664
19.594336999999996,-14.165562999999999,-15.448552999999999
19.594336999999996,-14.165562999999999,-15.448552999999999
19.594336999999996,-14.165562999999999,-15.448552999999999
19.386888,-15.975154333333334,-12.767676133333334
19.179439000000002,-17.78474566666667,-10.086799266666668
18.971990000000005,-19.594337000000003,-7.405922400000001
13.91662256666667,-19.498591333333337,-6.164421066666667
8.861255133333335,-19.402845666666668,-4.922919733333333
3.8058877000000018,-19.307100000000002,-3.6814183999999983
3.8058877000000018,-19.3071,-3.6814183999999983
-0.2760665333333316,-17.299634,-2.9760924999999983
-4.358020766666665,-15.292168000000002,-2.270766599999998
-8.439974999999999,-13.284702000000003,-1.5654406999999981
-8.439974999999999,-13.284702000000005,-1.5654406999999981
-8.532528999999998,-11.111277000000007,-4.753769133333331
-8.625082999999998,-8.937852000000005,-7.942097566666664
-8.717636999999998,-6.764427000000006,-11.130426
-8.717636999999998,-6.764427000000006,-11.130426
-6.7261285333333305,-7.910182833333338,-12.863421333333333
-4.734620066666664,-9.055938666666671,-14.596416666666665
-2.7431115999999967,-10.201694500000004,-16.329411999999998
-2.7431115999999967,-10.201694500000002,-16.329411999999998
4.316530933333337,-13.332575333333333,-17.120909
11.37617346666667,-16.463456166666663,-17.912406
18.435816,-19.594336999999996,-18.703903000000004
18.435816,-19.594336999999996,-18.703903000000007
18.821989666666664,-19.22731233333333,-16.690054000000007
19.208163333333328,-18.860287666666665,-14.67620500000001
19.594336999999992,-18.493263,-12.662356000000011
18.678371333333327,-12.288947996666666,-12.04958400000001
17.762405666666663,-6.084632993333334,-11.436812000000009
16.846439999999998,0.11968200999999823,-10.824040000000005
16.846439999999998,0.11968200999999823,-10.824040000000005
14.88046333333333,5.998461673333331,-10.907019666666676
12.914486666666662,11.877241336666664,-10.989999333333344
10.948509999999994,17.756020999999997,-11.072979000000013
10.948509999999994,17.756020999999993,-11.072979000000013
11.27085366666666,15.45493533333333,-10.453824000000013
11.593197333333327,13.153849666666664,-9.834669000000014
11.915540999999992,10.852763999999999,-9.215514000000015
11.915540999999992,10.852763999999999,-9.215514000000015
14.449607999999992,7.3293258466666655,-8.012311000000016
16.983674999999995,3.8058876933333323,-6.809108000000016
19.517741999999995,0.28244953999999883,-5.605905000000017
19.517742,0.28244953999999883,-5.605905000000017
19.543273666666664,-6.173995306666669,-3.5920558333333497
19.56880533333333,-12.630440153333334,-1.5782066666666832
19.594336999999996,-19.086885,0.43564249999998356
19.594336999999996,-19.086885,0.43564249999998356
17.373039333333328,-19.256035666666666,0.03351095666665025
15.151741666666661,-19.425186333333333,-0.368620586666683
12.930443999999994,-19.594337,-0.7707521300000164
12.930443999999994,-19.594337,-0.7707521300000164
5.743140666666662,-16.559201666666667,-0.29521562000001644
-1.4441626666666714,-13.524066333333332,0.18032088999998355
-8.631466000000005,-10.488931,0.6558573999999836
-11.500643000000006,-8.455932666666667,1.0484143666666503
-14.369820000000004,-6.422934333333333,1.4409713333333167
-17.238997,-4.389936,1.8335282999999833
-17.238997,-4.389936,1.8335282999999833
-17.238997,-4.389936,1.8335282999999833
-16.501755333333335,-8.005928333333335,-0.023936433333349976
-15.764513666666668,-11.621920666666668,-1.8814011666666834
-15.027272000000002,-15.237913,-3.7388659000000164
-6.805916333333335,-16.690054333333332,-3.483544266666683
1.4154393333333317,-18.14219566666667,-3.2282226333333495
9.636794999999998,-19.594337000000003,-2.9729010000000162
9.636795,-19.594337000000007,-2.9729010000000162
12.955975666666667,-19.51454966666667,-3.563332166666683
16.275156333333335,-19.43476233333334,-4.153763333333349
19.594337000000003,-19.354975000000007,-4.744194500000016
19.594337000000007,-19.354975000000007,-4.744194500000016
19.16667333333334,-13.610238400000005,-7.268687000000017
18.739009666666675,-7.865501800000005,-9.793179500000017
18.31134600000001,-2.120765200000006,-12.317672000000018
18.31134600000001,-2.120765200000006,-12.317672000000018
16.19856000000001,4.948451533333327,-12.333629666666683
14.08577400000001,12.01766826666666,-12.349587333333348
11.97298800000001,19.08688499999999,-12.365545000000013
11.97298800000001,19.086884999999995,-12.365545000000013
12.55703600000001,16.396434,-11.302769000000014
13.141084000000012,13.705982999999998,-10.239993000000014
13.725132000000011,11.015531999999999,-9.177217000000015
13.725132000000011,11.015531999999999,-9.177217000000015
15.678342333333342,7.271878799999999,-9.21870633333335
17.631552666666675,3.5282255999999976,-9.260195666666682
19.584763000000006,-0.2154276000000023,-9.301685000000015
19.584763000000006,-0.2154276000000023,-9.301685000000015
19.58795433333334,-6.675064066666668,-10.016585666666684
19.591145666666673,-13.134700533333335,-10.73148633333335
19.594337000000007,-19.594337,-11.446387000000017
14.720886066666674,-19.121992333333335,-9.557007133333352
9.847435133333343,-18.649647666666667,-7.667627266666685
4.97398420000001,-18.177303,-5.778247400000019
4.97398420000001,-18.177303,-5.778247400000019
4.97398420000001,-18.177303,-5.778247400000019
-1.8973585333333236,-13.721941000000001,-3.075029800000019
-8.768701266666657,-9.266579000000002,-0.3718122000000186
-15.640043999999989,-4.811217000000003,2.3314053999999818
-15.308125999999987,-3.9399319000000026,3.4803527333333157
-14.976207999999986,-3.068646800000002,4.62930006666665
-14.644289999999984,-2.1973617000000023,5.778247399999984
-14.644289999999984,-2.1973617000000023,5.778247399999984
-15.506000666666651,-5.9856961333333345,2.00267906666665
-16.367711333333318,-9.774030566666667,-1.7728892666666833
-17.229421999999985,-13.562365,-5.548457600000017
-17.229421999999985,-13.562365,-5.548457600000017
-9.119769199999986,-15.573022333333332,-8.312314066666683
-1.010116399999987,-17.583679666666665,-11.076170533333352
7.099536400000012,-19.594336999999996,-13.840027000000019
7.099536400000012,-19.594336999999996,-13.840027000000019
11.264469933333347,-19.09007733333333,-14.200668666666685
15.429403466666683,-18.585817666666667,-14.561310333333351
19.594337000000017,-18.081558,-14.921952000000017
19.59433700000002,-18.081558,-14.921952000000017
18.75496800000002,-9.850627333333335,-13.69640833333335
17.915599000000018,-1.6196966666666686,-12.470864666666683
17.07623000000002,6.611233999999999,-11.245321000000017
14.309181500000017,10.942126666666667,-9.553815333333349
11.542133000000016,15.273019333333332,-7.862309666666682
8.775084500000016,19.603911999999998,-6.170804000000015
8.775084500000018,19.603912,-6.170804000000015
11.088936666666685,17.912406333333333,-5.072921100000015
13.402788833333354,16.22090066666667,-3.9750382000000157
15.716641000000022,14.529395000000001,-2.8771553000000156
15.716641000000024,14.529395000000001,-2.8771553000000156
17.009206333333356,14.864504666666669,-5.366540866666682
18.301771666666692,15.199614333333336,-7.855926433333349
19.594337000000024,15.534724000000004,-10.345312000000016
19.594337000000024,15.534724000000006,-10.345312000000016
19.59114566666669,4.093124333333339,-11.379364666666682
19.587954333333357,-7.348475333333329,-12.41341733333335
19.584763000000024,-18.790074999999998,-13.447470000000017
19.584763000000024,-18.790074999999998,-13.447470000000019
16.20494333333336,-18.761350999999994,-9.42934620000002
12.825123666666693,-18.732626999999994,-5.41122240000002
9.445304000000027,-18.703902999999993,-1.3930986000000196
9.445304000000029,-18.703902999999993,-1.3930986000000196
1.9037420000000285,-15.94642966666666,0.5760693666666471
-5.637819999999972,-13.188956333333328,2.5452373333333136
-13.17938199999997,-10.431482999999995,4.51440529999998
-13.17938199999997,-10.431482999999995,4.514405299999981
-12.604908333333304,-8.54848633333333,4.364403766666648
-12.030434666666636,-6.665489666666662,4.214402233333314
-11.455960999999968,-4.782492999999995,4.0644006999999815
-11.455960999999968,-4.782492999999995,4.0644006999999815
-12.911294333333302,-8.720828666666662,1.7728892999999815
-14.366627666666636,-12.659164333333328,-0.5186221000000186
-15.821960999999968,-16.597499999999993,-2.8101335000000187
-6.263358166666635,-17.596445666666657,-1.9292739366666856
3.2952446666666972,-18.595391333333325,-1.0484143733333522
12.853847500000029,-19.594336999999992,-0.1675548100000189
12.853847500000029,-19.594336999999992,-0.1675548100000189
15.10067733333336,-18.45496466666666,-0.834582540000019
17.34750716666669,-17.315592333333328,-1.501610270000019
19.594337000000024,-16.176219999999997,-2.1686380000000187
19.594337000000024,-16.176219999999997,-2.1686380000000187
18.340069666666693,-8.382527666666661,-5.9410146666666845
17.085802333333362,-0.5888353333333273,-9.71339133333335
15.83153500000003,7.204857000000007,-13.485768000000016
15.83153500000003,7.204857000000007,-13.485768000000016
13.865558666666695,10.919786666666672,-14.957059000000017
11.899582333333361,14.634716333333339,-16.428350000000016
9.933606000000026,18.349646000000007,-17.899641000000013
9.933606000000026,18.34964600000001,-17.899641000000013
13.099594000000026,15.490043666666677,-15.927281333333346
16.265582000000027,12.630441333333344,-13.954921666666678
19.431570000000033,9.770839000000011,-11.98256200000001
19.43157000000003,9.770839000000011,-11.98256200000001
19.485825666666695,3.975038333333345,-12.068733166666677
19.540081333333365,-1.8207623333333218,-12.154904333333343
19.59433700000003,-7.616562999999989,-12.24107550000001
19.594337000000035,-7.616562999999989,-12.24107550000001
19.450719000000035,-11.609154333333322,-10.236800833333342
19.307101000000035,-15.601745666666654,-8.232526166666675
19.16348300000004,-19.594336999999985,-6.228251500000009
14.424075500000038,-18.73262699999999,-5.168666866666675
9.68466800000004,-17.87091699999999,-4.109082233333342
4.945260500000042,-17.009206999999993,-3.049497600000008
4.945260500000042,-17.009206999999993,-3.049497600000008
4.945260500000042,-17.009206999999993,-3.049497600000008
0.5473456666667081,-14.373010999999996,-0.9367112333333417
-3.8505691666666255,-11.736814999999998,1.176075133333325
-8.24848399999996,-9.100618999999998,3.288861499999992
-10.728295333333294,-9.078278666666664,2.092041443333325
-13.20810666666663,-9.05593833333333,0.8952213866666585
-15.687917999999966,-9.033597999999996,-0.3015986700000082
-15.687917999999968,-9.033597999999996,-0.3015986700000082
-16.0389853333333,-11.42404633333333,-1.0516058466666747
-16.390052666666634,-13.814494666666663,-1.8016130233333414
-16.741119999999967,-16.204942999999997,-2.5516202000000083
-16.741119999999963,-16.204943,-2.551620200000008
-7.536775666666631,-17.334740999999998,-3.1803498000000077
1.6675686666667033,-18.464539,-3.8090794000000074
10.871913000000037,-19.594336999999996,-4.437809000000008
10.871913000000037,-19.594336999999996,-4.437809000000007
13.779387666666706,-18.987948333333332,-4.83994033333334
16.686862333333373,-18.381559666666664,-5.242071666666673
19.594337000000042,-17.775171,-5.644203000000007
19.594337000000042,-17.775171,-5.644203000000007
18.60177466666671,-10.2878648,-6.831448666666673
17.609212333333375,-2.8005585999999987,-8.01869433333334
16.61665000000004,4.686747600000001,-9.205940000000007
16.61665000000004,4.686747600000001,-9.205940000000007
13.766622333333371,9.659135733333335,-11.146384000000007
10.916594666666704,14.631523866666669,-13.086828000000006
8.066567000000036,19.603912000000005,-15.027272000000005
8.066567000000036,19.603912,-15.027272000000005
11.49106800000004,16.437924000000002,-14.162370333333337
14.91556900000004,13.271936000000002,-13.297468666666669
18.340070000000043,10.105948,-12.432567
18.758159000000045,5.708033433333334,-12.001711666666667
19.176248000000044,1.3101188666666672,-11.570856333333333
19.594337000000042,-3.0877956999999996,-11.140001
19.594337000000042,-3.0877956999999996,-11.140001
19.57837966666671,-8.589976133333332,-10.530420666666666
19.562422333333377,-14.092156566666665,-9.920840333333336
19.546465000000044,-19.594336999999996,-9.311260000000004
19.546465000000044,-19.594336999999996,-9.311260000000006
16.042176000000044,-19.380505666666664,-5.698459200000006
12.537887000000046,-19.166674333333333,-2.085658400000005
9.033598000000044,-18.952843,1.5271423999999951
9.033598000000046,-18.952843,1.5271423999999951
3.1229026666667115,-17.41453,2.998433266666662
-2.787792666666622,-15.876216999999997,4.469724133333329
-8.698487999999955,-14.337903999999996,5.941014999999996
-8.698487999999953,-14.337903999999996,5.941014999999996
-10.466589999999952,-11.717665999999996,5.784630466666663
-12.234691999999953,-9.097427999999995,5.6282459333333295
-14.002793999999952,-6.477189999999996,5.471861399999997
-14.002793999999952,-6.477189999999996,5.471861399999997
-15.470893666666619,-9.91445733333333,3.2505633333333304
-16.938993333333283,-13.351724666666662,1.0292652666666637
-18.40709299999995,-16.788991999999997,-1.192032800000003
-18.407092999999946,-16.788991999999997,-1.192032800000003
-9.745307099999946,-17.724106999999997,-3.304819100000003
-1.0835211999999466,-18.659221999999996,-5.417605400000003
7.5782647000000525,-19.594337,-7.530391700000003
7.5782647000000525,-19.594337,-7.530391700000003
11.583622133333385,-19.310292333333337,-7.51124256666667
15.58897956666672,-19.026247666666674,-7.492093433333337
19.594337000000056,-18.742203000000007,-7.472944300000003
19.25284466666672,-11.558090833333344,-9.263387200000002
18.911352333333394,-4.373978666666677,-11.0538301
18.569860000000062,2.81013349999999,-12.844273000000001
18.569860000000066,2.81013349999999,-12.844273000000001
15.142167333333399,8.408059666666658,-13.843218666666667
11.714474666666733,14.005985833333325,-14.842164333333335
8.286782000000068,19.60391199999999,-15.84111
8.286782000000068,19.60391199999999,-15.84111
11.0027653333334,17.194314333333327,-14.143221333333335
13.718748666666732,14.78471666666666,-12.445332666666667
16.434732000000064,12.37511899999999,-10.747444000000002
16.434732000000064,12.37511899999999,-10.747444000000002
17.48793366666673,7.421879866666657,-10.163395666666668
18.541135333333397,2.468640733333324,-9.579347333333336
19.594337000000063,-2.4845984000000088,-8.995299000000003
19.594337000000063,-2.4845984000000088,-8.995299000000003
19.568805333333398,-8.187844600000009,-8.909128333333335
19.54327366666673,-13.891090800000008,-8.822957666666667
19.517742000000066,-19.594337000000007,-8.736787
15.257062500000066,-19.03901266666668,-5.7431409
10.996383000000066,-18.483688333333347,-2.749494800000001
6.735703500000066,-17.928364000000016,0.2441512999999992
6.735703500000066,-17.928364000000016,0.2441512999999992
6.735703500000066,-17.928364000000016,0.2441512999999992
0.26968366666673216,-13.964496100000014,1.3771409666666656
-6.196336166666601,-10.000628200000012,2.510130633333332
-12.662355999999933,-6.036760300000011,3.6431202999999983
-14.5836506666666,-6.142080433333343,3.039922966666665
-16.504945333333264,-6.247400566666677,2.4367256333333316
-18.426239999999932,-6.3527207000000105,1.8335282999999982
-18.426239999999932,-6.3527207000000105,1.8335282999999982
-16.938992333333267,-10.064458466666677,-0.5313881333333351
-15.4517446666666,-13.776196233333344,-2.8963045666666685
-13.964496999999936,-17.487934000000013,-5.261221000000002
-13.964496999999936,-17.487934000000013,-5.261221000000003
-4.492064999999935,-18.190068333333347,-7.508051333333337
4.980367000000064,-18.89220266666668,-9.75488166666667
14.452799000000065,-19.594337000000014,-12.001712000000003
14.452799000000065,-19.594337000000014,-12.001712000000003
16.166645000000063,-18.959225000000018,-11.13680966666667
17.880491000000063,-18.324113000000022,-10.271907333333337
19.594337000000063,-17.689001000000022,-9.407005000000003
19.594337000000063,-17.689001000000022,-9.407005000000003
18.863479333333398,-10.50488896666669,-9.885733000000004
18.132621666666733,-3.320776933333356,-10.364461000000006
17.401764000000068,3.863335099999978,-10.843189000000008
17.401764000000068,3.863335099999978,-10.843189000000008
14.714504000000067,9.110194066666645,-11.803836666666674
12.027244000000067,14.35705303333331,-12.76448433333334
9.339984000000067,19.603911999999976,-13.725132000000007
9.339984000000067,19.603911999999976,-13.725132000000007
12.292139666666733,18.06240799999998,-13.172999000000006
15.244295333333397,16.52090399999998,-12.620866000000007
18.196451000000064,14.979399999999982,-12.068733000000007
18.66241300000006,8.108056999999983,-11.283619000000007
19.128375000000062,1.2367139999999832,-10.498505000000007
19.594337000000063,-5.634629000000017,-9.713391000000007
19.594337000000063,-5.634629000000017,-9.713391000000007
19.594337000000063,-5.634629000000017,-9.713391000000007
19.508166333333396,-10.287865000000016,-8.025077000000005
19.42199566666673,-14.941101000000018,-6.336763000000005
19.335825000000067,-19.594337000000014,-4.648449000000005
14.3506705333334,-19.109226666666682,-3.2888614500000046
9.365516066666734,-18.624116333333347,-1.9292739000000052
4.380361600000067,-18.139006000000013,-0.5696863500000058
4.380361600000067,-18.139006000000013,-0.5696863500000058
-0.4420255999999331,-16.19217833333335,-0.11010743333333912
-5.264412799999934,-14.245350666666686,0.3494714833333275
-10.086799999999934,-12.298523000000023,0.8090503999999942
-10.086799999999934,-12.298523000000023,0.8090503999999942
-13.118743999999936,-11.449578666666687,-0.10053283333333911
-16.150687999999935,-10.600634333333351,-1.0101160666666724
-19.182631999999938,-9.75169000000002,-1.9196993000000058
-19.182631999999938,-9.75169000000002,-1.919699300000006
-17.631552999999936,-13.032572333333354,-2.972900866666673
-16.080473999999935,-16.313454666666686,-4.02610243333334
-14.529394999999932,-19.59433700000002,-5.079304000000007
-14.529394999999932,-19.59433700000002,-5.079304000000008
-4.6963216666665994,-19.59433700000002,-6.860172333333341
5.136751666666734,-19.59433700000002,-8.641040666666674
14.969825000000066,-19.59433700000002,-10.421909000000007
14.969825000000066,-19.59433700000002,-10.421909000000007
16.511329000000064,-18.26666483333335,-9.965521666666675
18.052833000000064,-16.93899266666669,-9.509134333333341
19.594337000000063,-15.611320500000025,-9.052747000000005
19.594337000000063,-15.611320500000025,-9.052747000000005
18.279431000000063,-7.7442234333333575,-12.42937533333334
16.964525000000066,0.1228736333333084,-15.806003666666674
15.649619000000067,7.989970699999975,-19.18263200000001
13.9102403333334,11.86128446666664,-17.64751100000001
12.170861666666733,15.732598233333308,-16.11239000000001
10.431483000000066,19.603911999999976,-14.57726900000001
10.431483000000066,19.603911999999973,-14.57726900000001
13.074062000000067,15.767704999999971,-13.67087700000001
15.716641000000067,11.93149799999997,-12.764485000000008
18.359220000000064,8.095290999999968,-11.858093000000006
18.359220000000068,8.095290999999966,-11.858093000000006
18.770925666666734,1.619696666666633,-11.021914666666675
19.1826313333334,-4.8558976666667,-10.185736333333343
19.59433700000007,-11.331492000000035,-9.34955800000001
19.59433700000007,-11.331492000000035,-9.34955800000001
19.437953000000075,-14.085773666666702,-9.119768666666678
19.281569000000076,-16.840055333333368,-8.889979333333343
19.125185000000076,-19.594337000000035,-8.660190000000009
19.125185000000076,-19.594337000000035,-8.660190000000009
14.430458666666743,-18.694328666666703,-6.971875833333343
9.735732333333408,-17.79432033333337,-5.283561666666675
5.041006000000075,-16.89431200000004,-3.5952475000000086
5.041006000000075,-16.89431200000004,-3.5952475000000086
0.1898953333334091,-14.133647000000037,-1.533525466666675
-4.661215333333257,-11.372982000000036,0.5281965666666584
-9.512325999999925,-8.612317000000035,2.589918599999992
-12.190011333333258,-9.333600666666703,2.5739609999999917
-14.867696666666589,-10.05488433333337,2.5580033999999916
-17.545381999999922,-10.776168000000036,2.5420457999999915
-17.545381999999922,-10.776168000000036,2.5420457999999915
-17.545381999999922,-10.776168000000036,2.5420457999999915
-16.61026666666659,-13.715557666666703,1.7313996813333248
-15.675151333333256,-16.654947333333368,0.9207535626666581
-14.740035999999924,-19.594337000000035,0.11010744399999146
-4.10589066666659,-19.594337000000035,-0.7867097040000086
6.528254666666744,-19.594337000000035,-1.6835268520000086
17.162400000000076,-19.594337000000035,-2.5803440000000086
17.162400000000076,-19.594337000000035,-2.5803440000000086
17.97304566666674,-17.759213000000035,-3.994187333333342
18.783691333333405,-15.924089000000038,-5.408030666666676
19.594337000000067,-14.088965000000039,-6.821874000000009
19.594337000000067,-14.088965000000039,-6.821874000000009
18.362410666666733,-6.205910333333374,-8.46550700000001
17.1304843333334,1.6771443333332936,-10.109140000000009
15.898558000000065,9.56019899999996,-11.752773000000007
15.898558000000065,9.56019899999996,-11.752773000000007
13.81768666666673,12.908103333333296,-12.295331333333342
11.736815333333396,16.25600766666663,-12.837889666666676
9.655944000000062,19.603911999999966,-13.38044800000001
9.655944000000062,19.603911999999962,-13.38044800000001
12.968741666666729,16.220900999999962,-12.65597300000001
16.281539333333395,12.83788999999996,-11.93149800000001
19.594337000000063,9.454878999999961,-11.207023000000008
19.594337000000067,9.454878999999961,-11.207023000000008
19.594337000000067,3.9846132333332935,-10.948509666666675
19.594337000000067,-1.4856525333333732,-10.689996333333342
19.594337000000067,-6.95591830000004,-10.431483000000009
19.594337000000067,-6.95591830000004,-10.431483000000009
19.575188000000068,-11.168724533333373,-8.500613500000009
19.55603900000007,-15.381530766666707,-6.56974400000001
19.53689000000007,-19.594337000000042,-4.63887450000001
14.590034000000072,-18.987948333333378,-3.8952503333333426
9.643178000000072,-18.381559666666714,-3.151626166666676
4.696322000000073,-17.775171000000046,-2.408002000000009
4.696322000000074,-17.775171000000046,-2.408002000000009
-0.72926233333326,-16.093240000000048,-1.5973558660000091
-6.154846666666593,-14.411309000000045,-0.786709732000009
-11.580430999999926,-12.729378000000045,0.02393640199999103
-11.580430999999924,-12.729378000000045,0.02393640199999103
-13.903857333333255,-12.569802000000044,-0.9047959653333426
-16.227283666666583,-12.410226000000042,-1.8335283326666765
-18.550709999999913,-12.250650000000041,-2.76226070000001
-18.550709999999913,-12.250650000000041,-2.76226070000001
-15.26982766666658,-14.698545666666705,-4.533554133333344
-11.988945333333248,-17.146441333333375,-6.304847566666677
-8.708062999999916,-19.594337000000042,-8.076141000000009
-8.708062999999916,-19.594337000000042,-8.076141000000009
0.45479133333341853,-19.594337000000042,-8.446357333333344
9.617645666666753,-19.594337000000042,-8.816573666666677
18.780500000000085,-19.594337000000042,-9.186790000000011
18.780500000000085,-19.594337000000042,-9.186790000000011
19.05177900000008,-17.957087666666713,-8.261249333333344
19.323058000000078,-16.319838333333383,-7.335708666666676
19.594337000000078,-14.68258900000005,-6.4101680000000085
19.594337000000078,-14.68258900000005,-6.4101680000000085
18.659222000000074,-7.6867766666667166,-8.360186666666676
17.724107000000078,-0.6909643333333827,-10.310205333333343
16.788992000000082,6.304847999999953,-12.26022400000001
14.762376666666752,10.737869333333286,-12.097456666666675
12.735761333333416,15.17089066666662,-11.93468933333334
10.709146000000082,19.603911999999955,-11.771922000000005
10.70914600000008,19.603911999999955,-11.771922000000004
10.70914600000008,19.603911999999955,-11.771922000000004
13.48576833333341,16.91984366666662,-11.503834333333335
16.262390666666743,14.235775333333287,-11.235746666666666
19.03901300000007,11.551706999999952,-10.967658999999998
19.22412100000007,4.8814296666666195,-10.284673666666665
19.40922900000007,-1.7888476666667141,-9.601688333333334
19.59433700000007,-8.459125000000048,-8.918703
19.59433700000007,-8.459125000000048,-8.918703
19.214546666666738,-12.17086233333338,-5.848460633333334
18.834756333333406,-15.882599666666712,-2.7782182666666677
18.454966000000073,-19.594337000000042,0.2920240999999996
18.454966000000073,-19.594337000000042,0.29202409999999956
10.961276500000075,-18.598583000000044,0.1930869733333329
3.467587000000075,-17.602829000000042,0.09414984666666626
-4.026102499999925,-16.60707500000004,-0.004787280000000412
-4.026102499999925,-16.60707500000004,-0.004787280000000412
-5.893141666666591,-13.948538666666712,1.8877841466666663
-7.7601808333332585,-11.290002333333382,3.780355573333333
-9.627219999999925,-8.63146600000005,5.672926999999999
-9.627219999999925,-8.63146600000005,5.672926999999999
-11.972987333333258,-7.243154666666716,4.619725333333332
-14.31875466666659,-5.854843333333384,3.5665236666666655
-16.664521999999923,-4.466532000000051,2.513321999999999
-16.66452199999992,-4.466532000000051,2.513321999999999
-13.520874866666583,-9.011256666666716,0.8696891333333325
-10.377227733333248,-13.555981333333383,-0.7739437333333341
-7.2335805999999145,-18.10070600000005,-2.4175766000000007
0.8058586000000858,-18.598583000000048,-4.035677300000001
8.845297800000086,-19.096460000000047,-5.653777999999999
16.884737000000086,-19.594337000000042,-7.2718786999999985
16.884737000000086,-19.594337000000042,-7.2718786999999985
17.787937000000085,-18.151770333333378,-7.527200466666666
18.691137000000083,-16.709203666666713,-7.782522233333332
19.59433700000008,-15.26663700000005,-8.037844
19.59433700000008,-15.26663700000005,-8.037844
18.703903000000082,-6.7580440000000515,-9.981479666666665
17.813469000000083,1.7505489999999486,-11.92511533333333
16.923035000000084,10.25914199999995,-13.868750999999996
16.923035000000084,10.25914199999995,-13.868750999999994
14.998548333333417,13.367682333333283,-13.316617999999991
13.07406166666675,16.476222666666615,-12.764484999999988
11.149575000000084,19.58476299999995,-12.212351999999987
11.149575000000084,19.58476299999995,-12.212351999999987
12.978316666666752,15.608128999999948,-11.060213333333317
14.807058333333421,11.63149499999995,-9.908074666666652
16.63580000000009,7.654860999999948,-8.755935999999986
16.63580000000009,7.654860999999948,-8.755935999999986
17.621979000000085,2.2420429999999487,-7.903799899999986
18.608158000000085,-3.170775000000051,-7.051663799999986
19.59433700000008,-8.583593000000052,-6.199527699999986
19.59433700000008,-8.58359300000005,-6.199527699999986
19.109226666666746,-12.25384100000005,-5.625054133333318
18.624116333333415,-15.92408900000005,-5.050580566666651
18.13900600000008,-19.59433700000005,-4.476106999999984
10.782551666666748,-18.604966333333383,-4.472915333333318
3.426097333333415,-17.61559566666672,-4.469723666666652
-3.9303569999999177,-16.62622500000006,-4.466531999999986
-3.9303569999999177,-16.62622500000006,-4.466531999999986
-3.9303569999999177,-16.62622500000006,-4.466531999999986
-5.870801333333251,-13.498535000000055,-2.2260849999999857
-7.811245666666584,-10.370845000000056,0.014362000000014419
-9.751689999999916,-7.243155000000055,2.2548090000000145
-12.049583999999916,-6.256975333333389,2.682472666666681
-14.347477999999915,-5.2707956666667215,3.110136333333348
-16.645371999999913,-4.284616000000054,3.5378000000000145
-16.645371999999917,-4.284616000000054,3.5378000000000136
-16.278347666666583,-7.485710666666719,6.209102333333347
-15.91132333333325,-10.686805333333387,8.88040466666668
-15.544298999999917,-13.887900000000053,11.551707000000015
-15.544298999999917,-13.887900000000053,11.551707000000015
-6.0622926666665835,-15.79004566666672,11.149575333333347
3.4197136666667496,-17.692191333333383,10.747443666666681
12.901720000000083,-19.59433700000005,10.345312000000014
12.901720000000083,-19.59433700000005,10.345312000000014
15.132592333333415,-19.06773666666672,5.960163500000014
17.363464666666747,-18.541136333333384,1.5750150000000147
19.59433700000008,-18.01453600000005,-2.810133499999985
19.59433700000008,-18.014536000000046,-2.810133499999985
18.665605333333417,-10.868722200000049,-4.7856846666666515
17.736873666666753,-3.722908400000049,-6.761235833333319
16.80814200000009,3.422905399999951,-8.736786999999985
16.80814200000009,3.422905399999951,-8.736786999999985
14.838973666666755,8.816574266666619,-11.031489666666651
12.869805333333423,14.210243133333286,-13.326192333333317
10.900637000000089,19.603911999999955,-15.620894999999983
10.900637000000089,19.603911999999955,-15.620894999999981
13.798537000000087,15.994302833333286,-15.28897699999998
16.696437000000085,12.38469366666662,-14.957058999999978
19.59433700000008,8.77508449999995,-14.625140999999976
19.59433700000008,1.973954999999951,-11.985753933333308
19.59433700000008,-4.827174500000049,-9.346366866666642
19.59433700000008,-11.62830400000005,-6.706979799999975
19.59433700000008,-11.62830400000005,-6.706979799999975
19.59433700000008,-11.62830400000005,-6.706979799999975
19.21454666666675,-14.283648333333383,-6.598468033333309
18.834756333333416,-16.938992666666717,-6.489956266666643
18.454966000000084,-19.59433700000005,-6.381444499999977
11.902774900000084,-18.26666483333338,-3.7707810333333094
5.350583800000085,-16.938992666666717,-1.160117566666643
-1.201607299999914,-15.611320500000053,1.4505459000000236
-1.201607299999914,-15.611320500000053,1.4505459000000236
-3.4899271999999137,-13.938964000000054,1.8239537666666903
-5.778247099999914,-12.266607500000054,2.1973616333333568
-8.066566999999914,-10.594251000000055,2.570769500000024
-8.066566999999914,-10.594251000000055,2.5707695000000235
-10.36446166666658,-8.542103666666721,1.8079961800000237
-12.662356333333248,-6.489956333333389,1.0452228600000237
-14.960250999999914,-4.437809000000056,0.2824495400000237
-14.960250999999914,-4.4378090000000565,0.2824495400000237
-14.73046166666658,-5.9633556666667245,-0.649474306666643
-14.500672333333247,-7.48890233333339,-1.5813981533333097
-14.270882999999912,-9.014449000000056,-2.513321999999976
-5.55164966666658,-12.541078333333388,-5.401647666666644
3.167583666666754,-16.06770766666672,-8.289973333333311
11.886817000000086,-19.594337000000053,-11.178298999999976
11.886817000000086,-19.594337000000053,-11.178298999999976
14.45599033333342,-19.163482333333388,-10.208076833333308
17.025163666666753,-18.73262766666672,-9.23785466666664
19.59433700000009,-18.301773000000054,-8.267632499999971
19.594337000000092,-18.301773000000054,-8.267632499999971
17.554955666666757,-10.383611333333388,-7.989970333333306
15.515574333333424,-2.46544966666672,-7.712308166666641
13.47619300000009,5.452711999999946,-7.434645999999975
13.47619300000009,5.452711999999946,-7.434645999999975
10.875104333333423,10.169778666666614,-9.132534999999976
8.274015666666756,14.886845333333282,-10.830423999999974
5.672927000000089,19.603911999999948,-12.528312999999974
5.672927000000089,19.603911999999948,-12.528312999999974
9.381473666666755,16.571968166666615,-13.121935333333306
13.090020333333422,13.54002433333328,-13.71555766666664
16.79856700000009,10.508080499999947,-14.309179999999975
16.79856700000009,10.508080499999947,-14.309179999999975
17.73049033333342,5.465478666666613,-12.780441999999974
18.66241366666675,0.4228768333332796,-11.251703999999975
19.59433700000008,-4.619725000000053,-9.722965999999976
19.59433700000008,-4.619725000000053,-9.722965999999976
19.482634000000086,-9.611262333333388,-7.817628566666642
19.370931000000088,-14.60279966666672,-5.912291133333309
19.259228000000093,-19.594337000000053,-4.0069536999999755
19.259228000000096,-19.594337000000053,-4.0069536999999755
13.827260833333428,-19.284760000000052,-3.703759266666642
8.395293666666761,-18.975183000000055,-3.400564833333308
2.9633265000000955,-18.665606000000054,-3.097370399999974
2.9633265000000955,-18.665606000000054,-3.097370399999974
-1.1952243333332377,-15.601746666666722,-0.9047960666666409
-5.353775166666572,-12.537887333333392,1.2877782666666924
-9.512325999999904,-9.47402800000006,3.480352600000026
-11.577239666666571,-7.594222466666728,3.6239710666666927
-13.642153333333239,-5.714416933333394,3.7675895333333593
-15.707066999999904,-3.8346114000000604,3.9112080000000264
-15.707066999999904,-3.8346114000000604,3.9112080000000264
-15.00174066666657,-6.81229960000006,2.4175765500000264
-14.296414333333237,-9.78998780000006,0.9239451000000266
-13.591087999999901,-12.76767600000006,-0.5696863499999734
-13.591087999999901,-12.76767600000006,-0.5696863499999734
-4.9931329999999035,-15.043229666666726,-0.7388369333333068
3.6048220000000963,-17.318783333333393,-0.9079875166666403
12.202777000000097,-19.59433700000006,-1.0771380999999738
12.202777000000097,-19.594337000000063,-1.077138099999974
14.66663033333343,-19.06773666666673,-1.2303310333333073
17.130483666666763,-18.541136333333395,-1.3835239666666406
19.594337000000095,-18.01453600000006,-1.536716899999974
19.594337000000095,-18.014536000000057,-1.536716899999974
18.253899000000093,-10.591059900000056,-2.8899214666666406
16.913461000000098,-3.1675838000000573,-4.243126033333307
15.5730230000001,4.2558922999999425,-5.596330599999973
15.5730230000001,4.2558922999999425,-5.596330599999973
13.029381233333433,8.558061533333277,-8.08571606666664
10.485739466666766,12.86023076666661,-10.575101533333305
7.9420977000001,17.162399999999945,-13.064486999999971
7.9420977000001,17.162399999999945,-13.064486999999971
10.115523133333433,13.881517099999945,-12.049583666666637
12.288948566666768,10.600634199999943,-11.034680333333304
14.462374000000104,7.319751299999942,-10.01977699999997
15.12301833333344,4.144188833333275,-9.477218666666637
15.783662666666771,0.968626366666609,-8.934660333333305
16.444307000000105,-2.2069361000000574,-8.392101999999973
16.444307000000105,-2.2069361000000574,-8.392101999999973
16.444307000000105,-2.2069361000000574,-8.392101999999973
17.494317000000105,-8.002736400000058,-7.054855199999973
18.544327000000106,-13.798536700000058,-5.717608399999972
19.594337000000106,-19.59433700000006,-4.380361599999972
14.83897233333344,-19.370930666666727,-3.3399259666666388
10.083607666666774,-19.147524333333394,-2.2994903333333054
5.328243000000106,-18.92411800000006,-1.2590546999999719
5.328243000000106,-18.924118000000057,-1.2590546999999719
5.328243000000106,-18.924118000000057,-1.2590546999999719
5.328243000000106,-18.924118000000057,-1.2590546999999719
5.328243000000106,-18.924118000000057,-1.2590546999999719
5.328243000000106,-18.924118000000057,-1.2590546999999719
-1.6643776666665604,-15.301743000000057,0.2601089333333615
-8.656998333333227,-11.679368000000055,1.7792725666666949
-15.649618999999895,-8.056993000000055,3.2984362000000282
-14.612374999999894,-9.094237000000057,3.384607166666695
-13.575130999999892,-10.131481000000058,3.4707781333333614
-12.537886999999891,-11.168725000000059,3.5569491000000277
-12.537886999999891,-11.168725000000059,3.5569491000000277
-6.209102566666559,-13.977262333333393,3.036731333333361
0.11968186666677443,-16.785799666666726,2.5165135666666942
6.448466300000107,-19.59433700000006,1.9962958000000277
6.448466300000107,-19.594337000000063,1.9962958000000277
10.830423200000107,-19.5592303333334,1.0579889000000278
15.212380100000106,-19.524123666666735,0.11968200000002775
19.594337000000106,-19.48901700000007,-0.8186248999999722
19.59433700000011,-19.48901700000007,-0.8186248999999722
18.298580333333444,-12.962358556666738,-2.995241599999972
17.002823666666774,-6.435700113333405,-5.171858299999972
15.707067000000109,0.09095832999992837,-7.348474999999972
15.707067000000109,0.09095832999992837,-7.348474999999972
13.699600666666775,4.903770553333262,-7.370815766666638
11.692134333333442,9.716582776666595,-7.393156533333304
9.684668000000109,14.529394999999928,-7.41549729999997
9.684668000000109,14.529394999999928,-7.41549729999997
10.533612333333442,13.479384999999928,-6.359103999999971
11.382556666666774,12.429374999999927,-5.302710699999972
12.231501000000108,11.379364999999927,-4.246317399999972
12.231501000000108,11.379364999999927,-4.246317399999971
14.194286000000107,8.056992566666594,-4.916536599999971
16.157071000000105,4.734620133333261,-5.58675579999997
18.119856000000105,1.4122476999999278,-6.2569749999999695
18.611349666666772,-5.589947200000072,-6.997407666666636
19.10284333333344,-12.592142100000073,-7.737840333333302
19.594337000000106,-19.594337000000074,-8.478272999999968
19.594337000000106,-19.594337000000078,-8.478272999999966
19.594337000000106,-19.594337000000078,-8.478272999999966
16.166644666666773,-19.52731533333341,-5.5676067133333005
12.738952333333444,-19.460293666666743,-2.6569404266666337
9.311260000000113,-19.393272000000078,0.2537258600000329
3.4165223333334453,-16.674096666666745,0.9207535733333662
-2.4782153333332215,-13.954921333333411,1.5877812866666992
-8.372952999999889,-11.235746000000077,2.2548090000000323
-8.372952999999889,-11.235746000000077,2.2548090000000323
-10.536803666666556,-9.158066666666743,1.6005473666666992
-12.70065433333322,-7.08038733333341,0.9462857333333657
-14.864504999999888,-5.002708000000076,0.2920241000000325
-14.864504999999888,-5.002708000000076,0.2920241000000324
-14.941101666666555,-5.7080339000000775,-0.6016015333333008
-15.017698333333222,-6.4133598000000775,-1.4952271666666341
-15.094294999999889,-7.1186857000000785,-2.3888527999999676
-15.094294999999889,-7.1186857000000785,-2.388852799999967
-7.642095233333222,-11.277236133333412,-1.3867154899999672
-0.1898954666665554,-15.435786566666744,-0.3845781799999671
7.262304300000111,-19.594337000000078,0.6175591300000329
7.262304300000111,-19.594337000000078,0.6175591300000329
11.372981866666777,-19.533698666666748,0.45798312666669966
15.483659433333443,-19.47306033333341,0.2984071233333664
19.59433700000011,-19.412422000000078,0.13883112000003306
18.57624200000011,-13.80172933333341,-1.364374819999967
17.558147000000115,-8.191036666666745,-2.867580759999967
16.540052000000117,-2.5803440000000784,-4.370786699999967
16.540052000000117,-2.5803440000000784,-4.370786699999967
16.540052000000117,-2.5803440000000784,-4.370786699999967
14.688970666666782,3.011198999999922,-6.9686841333333005
12.837889333333445,8.602741999999923,-9.566581566666633
10.98680800000011,14.194284999999923,-12.164478999999966
11.570856333333444,14.334711999999923,-11.688942333333301
12.154904666666775,14.475138999999922,-11.213405666666636
12.738953000000109,14.615565999999923,-10.73786899999997
12.738953000000109,14.615565999999923,-10.73786899999997
15.024081000000107,9.67509298666659,-10.524037333333302
17.309209000000106,4.734619973333255,-10.310205666666636
19.594337000000106,-0.20585304000007731,-10.09637399999997
19.59433700000011,-0.20585304000007731,-10.09637399999997
19.59433700000011,-6.668681026666744,-7.721882999999969
19.59433700000011,-13.131509013333412,-5.347391999999968
19.59433700000011,-19.594337000000078,-2.9729009999999683
19.59433700000011,-19.59433700000008,-2.9729009999999683
16.256007333333443,-19.44433566666675,-3.394181666666635
12.917677666666776,-19.29433433333342,-3.815462333333302
9.579348000000108,-19.14433300000009,-4.236742999999969
9.579348000000108,-19.14433300000009,-4.236742999999969
2.6090680000001085,-15.924089666666754,-2.8005589333333014
-4.361211999999892,-12.703846333333422,-1.3643748666666349
-11.331491999999892,-9.48360300000009,0.07180920000003166
-11.331491999999892,-9.483603000000087,0.07180920000003166
-12.196393999999893,-8.612317666666755,0.0015957600000316569
-13.061295999999894,-7.741032333333422,-0.06861767999996836
-13.926197999999895,-6.869747000000089,-0.13883111999996836
-14.32194633333323,-8.749552333333423,-0.10372439999996837
-14.717694666666565,-10.629357666666754,-0.06861767999996836
-15.113442999999899,-12.509163000000086,-0.033510959999968365
-15.113442999999899,-12.509163000000086,-0.033510959999968365
-8.028268566666565,-14.870887666666752,0.20266152666669826
-0.9430941333332316,-17.232612333333417,0.43883401333336497
6.142080300000102,-19.59433700000008,0.6750065000000317
6.142080300000102,-19.59433700000008,0.6750065000000317
10.626165866666769,-19.56561366666675,0.7675606000000318
15.110251433333437,-19.536890333333417,0.8601147000000319
19.5943370000001,-19.508167000000086,0.952668800000032
19.5943370000001,-19.508167000000086,0.952668800000032
19.323058000000103,-13.603854666666754,-1.7888470333333009
19.051779000000106,-7.699542333333421,-4.530362866666634
18.780500000000107,-1.7952300000000878,-7.271878699999967
18.780500000000107,-1.7952300000000878,-7.271878699999967
16.466648000000106,5.337817333333246,-9.850626799999969
14.152796000000103,12.47086466666658,-12.42937489999997
11.838944000000103,19.603911999999912,-15.00812299999997
11.838944000000103,19.603911999999916,-15.00812299999997
14.028327000000104,17.373039666666582,-14.03790099999997
16.217710000000107,15.14216733333325,-13.06767899999997
18.407093000000106,12.911294999999917,-12.09745699999997
18.407093000000106,12.911294999999917,-12.09745699999997
18.802841000000104,7.827203333333249,-11.736815333333304
19.1985890000001,2.743111666666582,-11.376173666666638
19.5943370000001,-2.3409800000000853,-11.015531999999972
19.581571333333432,-8.092099000000085,-10.27509899999997
19.568805666666766,-13.843218000000084,-9.534665999999971
19.5560400000001,-19.59433700000008,-8.79423299999997
19.5560400000001,-19.59433700000008,-8.79423299999997
19.5560400000001,-19.59433700000008,-8.79423299999997
16.37090266666677,-19.310292333333418,-6.04952591999997
13.185765333333435,-19.02624766666675,-3.3048188399999705
10.000628000000102,-18.74220300000009,-0.5601117599999702
4.080358200000101,-16.769843333333423,0.3526629600000297
-1.8399115999998985,-14.797483666666755,1.2654376800000298
-7.760181399999898,-12.825124000000088,2.17821240000003
-7.760181399999898,-12.825124000000088,2.17821240000003
-9.35594143333323,-11.851710000000088,2.085658333333363
-10.951701466666565,-10.878296000000086,1.9931042666666965
-12.5474614999999,-9.904882000000086,1.9005502000000298
-12.547461499999903,-9.904882000000086,1.9005502000000298
-13.6740679999999,-11.36659833333342,1.2526716256666963
-14.8006744999999,-12.828314666666751,0.6047930513333631
-15.9272809999999,-14.290031000000084,-0.04308552299997026
-15.9272809999999,-14.290031000000084,-0.04308552299997026
-8.631465999999898,-16.058133000000083,-0.994158548666637
-1.3356509999998991,-17.826235000000082,-1.9452315743333035
5.960164000000101,-19.59433700000008,-2.8963045999999704
5.960164000000101,-19.59433700000008,-2.8963045999999704
10.504888333333433,-19.57837966666675,-3.2729038999999704
15.049612666666768,-19.562422333333416,-3.64950319999997
19.594337000000102,-19.546465000000083,-4.02610249999997
19.594337000000106,-19.546465000000083,-4.026102499999969
19.51454966666677,-13.070870670000081,-5.318668166666636
19.43476233333344,-6.59527634000008,-6.611233833333301
19.354975000000106,-0.11968201000007994,-7.903799499999967
19.354975000000106,-0.11968201000007994,-7.903799499999967
17.74964000000011,6.454849326666587,-9.9463723333333
16.144305000000113,13.029380663333255,-11.988945166666634
14.538970000000111,19.60391199999992,-14.031517999999968
15.965579333333444,17.66985099999992,-13.070870333333302
17.392188666666776,15.735789999999922,-12.110222666666635
18.81879800000011,13.801728999999922,-11.149574999999968
18.818798000000115,13.801728999999922,-11.149574999999968
18.818798000000115,13.801728999999922,-11.149574999999968
19.077311000000112,6.180378666666587,-11.21659699999997
19.335824000000112,-1.4409716666667471,-11.283618999999968
19.59433700000011,-9.062322000000082,-11.350640999999968
19.214546666666777,-12.572993666666747,-9.285727666666634
18.834756333333445,-16.08366533333341,-7.220814333333302
18.454966000000113,-19.594337000000078,-5.155900999999969
18.454966000000113,-19.59433700000008,-5.155900999999969
12.885763066666781,-18.739010333333415,-3.4356715733333023
7.316560133333449,-17.88368366666675,-1.7154421466666356
1.7473572000001159,-17.028357000000085,0.004787280000031184
1.7473572000001159,-17.028357000000085,0.004787280000031183
-1.492035666666551,-13.453854000000085,1.319693620000031
-4.731428533333218,-9.879351000000085,2.634599960000031
-7.970821399999885,-6.304848000000085,3.949506300000031
-7.970821399999885,-6.304848000000085,3.949506300000031
-9.841052266666553,-4.271849680000085,2.947368933333364
-11.71128313333322,-2.238851360000084,1.945231566666698
-13.581513999999887,-0.20585304000008353,0.9430942000000312
-13.58151399999989,-0.20585304000008353,0.9430942000000312
-14.538969999999887,-0.28244952666675016,0.6750065066666978
-15.496425999999886,-0.3590460133334168,0.4069188133333645
-16.453881999999883,-0.4356425000000834,0.13883112000003117
-16.453881999999886,-0.4356425000000834,0.13883112000003117
-10.157012799999885,-6.023994000000084,-3.0335399199999693
-3.8601435999998857,-11.612345500000083,-6.205910959999969
2.436725600000114,-17.200697000000087,-9.378281999999968
8.155929400000113,-17.998577000000083,-10.064458666666633
13.875133200000112,-18.79645700000008,-10.750635333333301
19.59433700000011,-19.594337000000078,-11.43681199999997
19.59433700000011,-19.594337000000078,-11.43681199999997
18.202834333333442,-11.845326433333412,-10.003819666666638
16.811331666666774,-4.096315866666745,-8.570827333333304
15.419829000000107,3.6526946999999215,-7.137834999999971
15.419829000000107,3.6526946999999215,-7.13783499999997
13.629386333333441,8.701679799999921,-9.046363999999969
11.838943666666774,13.750664899999924,-10.954892999999968
10.048501000000108,18.799649999999925,-12.863421999999966
10.048501000000108,18.799649999999925,-12.863421999999966
12.384694000000108,16.71877866666659,-11.497451666666635
14.720887000000106,14.637907333333255,-10.131481333333303
17.057080000000106,12.55703599999992,-8.76551099999997
17.057080000000102,12.55703599999992,-8.765510999999972
17.902832333333436,8.289973566666587,-8.194228666666637
18.74858466666677,4.022911133333255,-7.622946333333304
19.5943370000001,-0.24415130000007856,-7.05166399999997
19.5943370000001,-0.24415130000007856,-7.05166399999997
19.581571333333432,-6.694213200000078,-5.526117333333304
19.568805666666766,-13.144275100000078,-4.000570666666639
19.5560400000001,-19.594337000000078,-2.4750239999999724
19.5560400000001,-19.594337000000078,-2.4750239999999724
14.727270000000098,-19.501783000000078,-2.318639433333306
9.8985000000001,-19.40922900000008,-2.1622548666666392
5.0697300000001,-19.316675000000085,-2.0058702999999727
0.11649050000010064,-16.591117000000082,-0.8473485333333062
-4.836748999999899,-13.865559000000081,0.31117323333336055
-9.789988499999899,-11.140001000000078,1.4696950000000273
-9.7899884999999,-11.140001000000078,1.4696950000000273
-10.0580759999999,-8.459124133333413,1.4952271666666939
-10.3261634999999,-5.778247266666746,1.5207593333333609
-10.5942509999999,-3.097370400000079,1.546291500000028
-10.5942509999999,-3.0973704000000795,1.546291500000028
-12.901720333333236,-4.673981366666747,0.2473427666666943
-15.20918966666657,-6.250592333333414,-1.0516059666666393
-17.516658999999905,-7.827203300000082,-2.350554699999973
-17.516658999999905,-7.827203300000082,-2.350554699999973
-10.900637533333239,-11.749581200000081,-2.235659899999973
-4.284616066666572,-15.671959100000082,-2.1207650999999728
2.3314054000000954,-19.594337000000085,-2.0058702999999727
2.3314054000000954,-19.594337000000085,-2.0058702999999727
8.085715933333427,-19.399654666666752,-2.328213866666639
13.840026466666759,-19.20497233333342,-2.650557433333306
19.594337000000092,-19.010290000000087,-2.972900999999973
19.594337000000095,-19.010290000000087,-2.972900999999973
18.560284666666764,-11.369790666666754,-3.8824841999999733
17.52623233333343,-3.729291333333421,-4.792067399999973
16.492180000000094,3.9112079999999128,-5.701650599999973
16.492180000000094,3.9112079999999128,-5.701650599999973
14.350670000000093,8.034651999999912,-6.997407899999973
12.209160000000095,12.15809599999991,-8.293165199999974
10.067650000000095,16.28153999999991,-9.588922499999974
11.599580000000095,15.35599899999991,-8.82934066666664
13.131510000000096,14.43045799999991,-8.069758833333308
14.663440000000096,13.504916999999908,-7.310176999999975
14.663440000000096,13.504916999999908,-7.310176999999975
14.663440000000096,13.504916999999908,-7.310176999999975
16.30707233333343,10.246375066666575,-7.686776333333309
17.950704666666763,6.987833133333242,-8.063375666666643
19.5943370000001,3.7292911999999094,-8.439974999999974
19.5943370000001,-4.045251533333424,-6.69421346666664
19.5943370000001,-11.819794266666756,-4.948451933333306
19.5943370000001,-19.59433700000009,-3.202690399999972
19.5943370000001,-19.594337000000092,-3.202690399999972
15.448552666666766,-19.396463000000093,-2.736728499999972
11.302768333333432,-19.198589000000094,-2.270766599999972
7.1569840000001,-19.000715000000096,-1.8048046999999723
7.156984000000098,-19.000715000000096,-1.8048046999999723
1.4505460000000987,-16.466648000000095,-0.8952214433333054
-4.255891999999901,-13.932581000000097,0.014361813333361248
-9.962329999999902,-11.398514000000096,0.9239450700000279
-9.962329999999902,-11.398514000000096,0.9239450700000278
-10.1697789999999,-9.071895900000095,1.166500613333361
-10.377227999999901,-6.745277800000096,1.4090561566666944
-10.5846769999999,-4.418659700000096,1.6516117000000277
-10.5846769999999,-4.418659700000096,1.6516117000000277
-12.770868333333233,-4.546320466666764,-0.34627986666663885
-14.957059666666566,-4.673981233333431,-2.3441714333333055
-17.1432509999999,-4.801642000000098,-4.342062999999972
-17.1432509999999,-4.801642000000098,-4.342062999999972
-11.057021899999901,-9.065512666666764,-5.1750497999999725
-4.970792799999901,-13.329383333333432,-6.008036599999973
1.115436300000099,-17.593254000000098,-6.841023399999973
1.115436300000099,-17.593254000000098,-6.841023399999973
7.275069866666766,-18.26028166666676,-7.278261933333307
13.434703433333434,-18.927309333333426,-7.71550046666664
19.5943370000001,-19.594337000000092,-8.152738999999974
18.774117000000103,-14.40492550000009,-8.529338166666639
17.953897000000108,-9.21551400000009,-8.905937333333307
17.13367700000011,-4.02610250000009,-9.282536499999974
17.133677000000112,-4.02610250000009,-9.282536499999976
14.781526333333446,2.4271509999999092,-9.375090666666644
12.429375666666779,8.880404499999909,-9.467644833333312
10.077225000000112,15.333657999999907,-9.560198999999981
10.077225000000112,15.333657999999907,-9.560198999999981
9.888925333333447,16.032600999999907,-8.832532233333314
9.700625666666781,16.731543999999904,-8.104865466666647
9.512326000000115,17.430486999999903,-7.37719869999998
9.512326000000115,17.430486999999903,-7.37719869999998
12.872996333333447,13.058104566666572,-7.64847779999998
16.233666666666778,8.685722133333238,-7.919756899999979
19.59433700000011,4.313339699999905,-8.191035999999979
19.59433700000011,4.313339699999905,-8.191035999999979
19.59433700000011,-3.655885866666761,-5.044197299999979
19.59433700000011,-11.625111433333428,-1.8973585999999791
19.59433700000011,-19.594337000000095,1.249480100000021
19.59433700000011,-19.594337000000095,1.249480100000021
16.374093333333445,-18.681562666666764,1.7601233000000212
13.153849666666778,-17.768788333333433,2.270766500000021
9.93360600000011,-16.8560140000001,2.781409700000021
9.933606000000111,-16.8560140000001,2.781409700000021
3.6782266666667778,-13.728324100000101,0.9750093333333547
-2.577152666666555,-10.600634200000101,-0.831391033333312
-8.832531999999889,-7.472944300000101,-2.6377913999999785
-8.832531999999889,-7.472944300000101,-2.6377913999999785
-9.116577333333224,-6.675064200000101,-2.2037446666666454
-9.400622666666557,-5.8771841000001,-1.7696979333333118
-9.68466799999989,-5.079304000000101,-1.3356511999999785
-12.991082666666557,-6.745277666666767,-0.7771351666666453
-16.297497333333222,-8.411251333333434,-0.21861913333331198
-19.60391199999989,-10.0772250000001,0.3398969000000213
-19.603911999999887,-10.0772250000001,0.3398969000000213
-14.736843999999886,-13.24959566666677,2.072892266666688
-9.869775999999886,-16.421966333333433,3.8058876333333544
-5.002707999999885,-19.5943370000001,5.538883000000022
-5.002707999999884,-19.5943370000001,5.538883000000022
3.196307000000116,-19.44433566666677,4.239934400000022
11.395322000000116,-19.29433433333344,2.9409858000000226
19.594337000000113,-19.144333000000106,1.6420372000000227
19.594337000000113,-19.144333000000106,1.6420372000000227
18.93688433333345,-15.030463766666776,-0.9143705333333108
18.27943166666678,-10.916594533333443,-3.470778266666644
17.621979000000113,-6.802725300000109,-6.027185999999978
17.621979000000113,-6.802725300000109,-6.027185999999978
15.327275666666784,-1.0164992000001087,-7.374007333333311
13.032572333333453,4.769726899999891,-8.720828666666643
10.737869000000122,10.55595299999989,-10.067649999999977
10.737869000000122,10.55595299999989,-10.067649999999977
10.543186333333455,11.42085499999989,-10.405951333333311
10.348503666666788,12.285756999999888,-10.744252666666645
10.153821000000123,13.150658999999886,-11.082553999999979
10.153821000000123,13.150658999999886,-11.082553999999979
12.438949666666788,9.652752833333219,-10.447441666666643
14.724078333333454,6.154846666666553,-9.81232933333331
17.00920700000012,2.656940499999887,-9.177216999999976
17.87091700000012,-4.7601520000001125,-5.286753666666642
18.732627000000118,-12.177244500000112,-1.396290333333308
19.594337000000113,-19.594337000000113,2.4941730000000253
19.594337000000113,-19.594337000000113,2.4941730000000253
16.55920166666678,-19.444335666666785,2.9026876000000255
13.524066333333446,-19.294334333333452,3.3112022000000256
10.488931000000113,-19.14433300000012,3.719716800000026
10.488931000000113,-19.14433300000012,3.719716800000026
4.1729123333334455,-15.684725666666788,1.9675722333333592
-2.1431063333332205,-12.225118333333455,0.2154276666666924
-8.459124999999887,-8.765511000000123,-1.5367168999999743
-8.459124999999887,-8.765511000000123,-1.5367168999999743
-9.965521999999886,-7.476136500000123,-2.695238733333308
-11.471918999999886,-6.186762000000123,-3.8537605666666415
-12.978315999999886,-4.897387500000124,-5.012282399999974
-12.978315999999886,-4.897387500000124,-5.012282399999974
-14.711311666666553,-7.53039166666679,-4.766535266666641
-16.44430733333322,-10.163395833333455,-4.520788133333308
-18.17730299999989,-12.796400000000121,-4.275040999999976
-18.177302999999892,-12.796400000000121,-4.275040999999976
-12.521929299999892,-15.062379000000123,-2.752685966666642
-6.866555599999892,-17.328358000000126,-1.2303309333333086
-1.2111818999998931,-19.594337000000127,0.29202410000002504
-1.2111818999998931,-19.594337000000127,0.29202410000002504
5.723991066666773,-19.5177406666668,1.1537345000000252
12.65916403333344,-19.441144333333472,2.015444900000025
19.594337000000106,-19.364548000000145,2.877155300000025
18.39751733333344,-15.16450766666681,1.0069245333333583
17.200697666666773,-10.964467333333474,-0.8633062333333085
16.00387800000011,-6.764427000000137,-2.7335369999999752
16.00387800000011,-6.764427000000137,-2.7335369999999752
16.00387800000011,-6.764427000000137,-2.7335369999999752
13.40278900000011,-1.2782038333334709,-4.610150999999975
10.80170000000011,4.208019333333196,-6.486764999999974
8.20061100000011,9.694242499999863,-8.363378999999975
8.318697333333445,10.865530333333197,-8.969767666666641
8.436783666666777,12.03681816666653,-9.576156333333307
8.55487000000011,13.208105999999864,-10.18254499999997
8.55487000000011,13.208105999999864,-10.18254499999997
12.065541666666777,9.97190466666653,-11.197448333333305
15.576213333333444,6.735703333333196,-12.21235166666664
19.086885000000112,3.4995019999998624,-13.227254999999973
19.086885000000112,3.4995019999998624,-13.227254999999973
19.25603566666678,-3.4069476666668046,-11.679367666666641
19.425186333333446,-10.313397333333471,-10.131480333333307
19.594337000000113,-17.21984700000014,-8.583592999999974
19.594337000000113,-17.21984700000014,-8.583592999999974
17.299634333333447,-18.011343666666804,-7.843160533333308
15.004931666666783,-18.802840333333467,-7.102728066666643
12.710229000000117,-19.594337000000134,-6.362295599999977
12.710229000000117,-19.594337000000134,-6.362295599999977
5.727182666666782,-16.418774666666803,-4.731428733333311
-1.255863666666551,-13.243212333333469,-3.1005618666666437
-8.238909999999885,-10.067650000000137,-1.4696949999999769
-8.238909999999885,-10.067650000000137,-1.4696949999999769
-8.136781099999885,-8.063375433333471,-0.7899012166666436
-8.034652199999885,-6.059100866666806,-0.11010743333331023
-7.9325232999998825,-4.05482630000014,0.5696863500000231
-7.9325232999998825,-4.05482630000014,0.5696863500000231
-11.676176533333214,-5.044197533333472,-0.8090503666666436
-15.419829766666547,-6.033568766666804,-2.18778708333331
-19.163482999999882,-7.022940000000136,-3.566523799999977
-15.991111999999882,-10.907020000000138,-5.4686698666666445
-12.818740999999882,-14.79110000000014,-7.370815933333311
-9.646369999999882,-18.675180000000143,-9.272961999999978
-9.646369999999882,-18.675180000000143,-9.272961999999978
-0.5728779999998815,-18.98156566666681,-9.975096333333312
8.500614000000118,-19.287951333333478,-10.677230666666645
17.574106000000118,-19.59433700000014,-11.379364999999979
17.574106000000114,-19.59433700000014,-11.379364999999979
18.113473000000113,-16.23366666666681,-10.045309566666646
18.65284000000011,-12.87299633333348,-8.711254133333313
19.19220700000011,-9.512326000000147,-7.37719869999998
19.19220700000011,-9.512326000000145,-7.37719869999998
17.184740333333448,-2.203744666666813,-8.347421133333313
15.177273666666784,5.104836666666521,-9.317643566666646
13.169807000000114,12.413417999999853,-10.28786599999998
13.169807000000114,12.413417999999853,-10.28786599999998
12.955975666666781,13.817686999999852,-8.947427199999979
12.74214433333345,15.221955999999851,-7.6069883999999774
12.528313000000118,16.626224999999852,-6.266549599999979
12.52831300000012,16.62622499999985,-6.266549599999979
14.152796666666788,13.492151899999849,-6.802725066666645
15.777280333333456,10.358078799999848,-7.3389005333333115
17.401764000000124,7.224005699999849,-7.875075999999978
18.13262166666679,0.10691579999984817,-9.17721633333331
18.863479333333455,-7.010174100000152,-10.479356666666645
19.59433700000012,-14.127264000000153,-11.781496999999979
19.59433700000012,-14.127264000000153,-11.781496999999979
19.59433700000012,-14.127264000000153,-11.781496999999979
17.653893166666787,-15.949621666666816,-10.051692999999977
15.713449333333452,-17.771979333333483,-8.321888999999976
13.773005500000119,-19.59433700000015,-6.592084999999976
6.783576333333453,-17.363464666666818,-4.817599766666643
-0.20585283333321414,-15.132592333333486,-3.043114533333309
-7.195281999999882,-12.901720000000154,-1.2686292999999758
-7.195281999999882,-12.901720000000154,-1.2686292999999758
-6.742086333333213,-11.063404533333488,0.1675548000000242
-6.288890666666545,-9.22508906666682,1.603738900000024
-5.835694999999877,-7.386773600000154,3.0399230000000244
-5.835694999999877,-7.386773600000154,3.0399230000000244
-8.293165333333212,-6.180378933333489,2.896304566666691
-10.750635666666545,-4.973984266666823,2.752686133333358
-13.208105999999878,-3.767589600000157,2.609067700000025
-13.208105999999878,-3.767589600000157,2.609067700000025
-14.321946333333209,-6.9176200666668235,0.9207535666666913
-15.435786666666539,-10.06765053333349,-0.7675605666666422
-16.54962699999987,-13.217681000000155,-2.455874699999976
-16.54962699999987,-13.217681000000155,-2.455874699999976
-8.880404333333205,-15.343233000000154,-5.475052799999975
-1.2111816666665405,-17.468785000000153,-8.494230899999975
6.458041000000125,-19.594337000000152,-11.513408999999974
6.458041000000125,-19.594337000000152,-11.513408999999976
10.836806333333458,-18.889011333333485,-11.40489733333331
15.215571666666792,-18.183685666666822,-11.296385666666643
19.594337000000127,-17.478360000000162,-11.187873999999974
19.594337000000127,-17.478360000000162,-11.187873999999974
18.10708900000013,-9.563390133333497,-10.18573666666664
16.619841000000132,-1.6484202666668288,-9.183599333333307
15.132593000000133,6.266549599999839,-8.181461999999975
13.1155521666668,9.509134399999839,-8.200611333333308
11.098511333333468,12.751719199999838,-8.219760666666641
9.081470500000135,15.994303999999838,-8.238909999999974
9.081470500000135,15.994303999999838,-8.238909999999974
9.081470500000135,15.994303999999838,-8.238909999999974
11.337875333333466,13.616621333333171,-8.77827666666664
13.594280166666799,11.238938666666504,-9.317643333333306
15.850685000000132,8.861255999999836,-9.857009999999972
17.09856900000013,4.192061999999836,-10.064458999999971
18.34645300000013,-0.4771320000001638,-10.27190799999997
19.594337000000127,-5.146326000000164,-10.47935699999997
19.594337000000127,-5.146326000000164,-10.47935699999997
19.409229000000128,-9.96232966666683,-10.172970999999968
19.224121000000128,-14.778333333333498,-9.86658499999997
19.03901300000013,-19.594337000000163,-9.56019899999997
19.03901300000013,-19.594337000000163,-9.560198999999972
13.300659900000127,-18.90177766666683,-7.172941833333305
7.562306800000126,-18.2092183333335,-4.785684666666639
1.823953700000126,-17.51665900000017,-2.398427499999972
1.823953700000126,-17.51665900000017,-2.398427499999972
-1.35160886666654,-14.577268666666834,-0.4037273666666386
-4.527171433333206,-11.637878333333498,1.5909727666666946
-7.7027339999998725,-8.698488000000165,3.5856729000000285
-7.7027339999998725,-8.698488000000165,3.5856729000000285
-10.195311333333207,-6.924002900000165,3.7963131666666947
-12.68788866666654,-5.149517800000165,4.006953433333361
-15.180465999999875,-3.3750327000001654,4.217593700000028
-15.952813666666543,-5.503776800000164,3.604821866666694
-16.725161333333215,-7.632520900000163,2.9920500333333604
-17.497508999999884,-9.761265000000162,2.379278200000027
-17.497508999999887,-9.76126500000016,2.379278200000027
-17.497508999999887,-9.76126500000016,2.379278200000027
-8.826148999999887,-13.038955666666824,3.525033966666694
-0.15478899999988727,-16.31664633333349,4.67078973333336
8.516571000000113,-19.59433700000016,5.816545500000028
12.209159666666778,-19.380505666666824,3.2856700000000276
15.901748333333444,-19.166674333333493,0.7547945000000276
19.59433700000011,-18.95284300000016,-1.7760809999999723
19.59433700000011,-18.95284300000016,-1.7760809999999723
19.377314000000112,-11.602771866666828,-4.192061666666639
19.160291000000115,-4.252700733333494,-6.608042333333305
18.943268000000117,3.097370399999839,-9.024022999999971
18.943268000000117,3.097370399999839,-9.024022999999971
16.53047866666678,8.599550933333173,-10.00062799999997
14.11768933333345,14.101731466666507,-10.97723299999997
11.704900000000118,19.60391199999984,-11.953837999999969
11.704900000000118,19.60391199999984,-11.953837999999969
14.19747733333345,16.23685833333317,-11.52298299999997
16.690054666666786,12.869804666666504,-11.092127999999972
19.18263200000012,9.502750999999835,-10.661272999999973
19.182632000000122,9.502750999999835,-10.661272999999973
19.31986700000012,3.7739724333331672,-10.616591666666638
19.45710200000012,-1.9548061333334996,-10.571910333333305
19.59433700000012,-7.683584700000167,-10.52722899999997
19.59433700000012,-7.683584700000167,-10.52722899999997
19.109226666666785,-11.653835466666834,-9.911265666666637
18.62411633333345,-15.6240862333335,-9.295302333333304
18.13900600000012,-19.594337000000166,-8.67933899999997
12.00809538000012,-18.413474666666833,-6.317614133333303
5.877184760000119,-17.232612333333503,-3.9558892666666363
-0.253725859999881,-16.05175000000017,-1.5941643999999695
-0.253725859999881,-16.05175000000017,-1.5941643999999695
-3.199498906666548,-13.338958133333504,-0.4452170999999696
-6.145271953333214,-10.626166266666838,0.7037302000000304
-9.091044999999882,-7.913374400000173,1.8526775000000304
-9.09104499999988,-7.913374400000173,1.85267750000003
-12.272990999999879,-8.162312933333505,1.07713809000003
-15.45493699999988,-8.411251466666839,0.30159868000003015
-18.63688299999988,-8.66019000000017,-0.47394072999996983
-18.636882999999884,-8.66019000000017,-0.47394072999996983
-17.46559466666655,-12.174053333333504,-0.7005386866666367
-16.29430633333322,-15.687916666666837,-0.9271366433333034
-15.123017999999888,-19.20178000000017,-1.15373459999997
-15.123017999999888,-19.20178000000017,-1.15373459999997
-6.023994333333221,-19.332632333333503,-1.1792667666666368
3.0750293333334464,-19.463484666666833,-1.2047989333333033
12.174053000000114,-19.594337000000166,-1.23033109999997
12.174053000000114,-19.594337000000166,-1.23033109999997
14.647481000000113,-18.99114000000017,-2.52927979999997
17.12090900000011,-18.387943000000167,-3.8282284999999696
19.59433700000011,-17.78474600000017,-5.12717719999997
19.59433700000011,-17.78474600000017,-5.127177199999969
18.183685333333443,-10.648506933333502,-7.4761357999999705
16.773033666666777,-3.512267866666837,-9.825094399999971
15.36238200000011,3.623971199999829,-12.174052999999972
13.693217000000109,8.08252479999983,-12.850655333333306
12.024052000000106,12.541078399999831,-13.527257666666637
10.354887000000106,16.99963199999983,-14.20385999999997
10.354887000000106,16.99963199999983,-14.20385999999997
10.354887000000106,16.99963199999983,-14.20385999999997
12.340013000000107,14.379393999999829,-13.804919999999969
14.325139000000108,11.759155999999829,-13.40597999999997
16.31026500000011,9.13891799999983,-13.007039999999968
17.404955666666776,3.636737233333163,-12.461289999999968
18.49964633333344,-1.8654435333335035,-11.91553999999997
19.594337000000106,-7.367624300000171,-11.369789999999972
19.594337000000106,-7.367624300000171,-11.369789999999972
19.36454800000011,-11.44319520000017,-9.435728999999972
19.134759000000106,-15.51876610000017,-7.501667999999971
18.904970000000105,-19.594337000000166,-5.567606999999971
18.9049700000001,-19.594337000000166,-5.567606999999971
12.780442700000103,-18.614540333333498,-3.368649566666638
6.655915400000104,-17.634743666666832,-1.1696921333333046
0.5313881000001052,-16.654947000000163,1.0292653000000287
0.5313881000001052,-16.65494700000016,1.0292653000000287
-3.1037532666665615,-13.485767800000161,1.906933333333362
-6.738894633333229,-10.316588600000161,2.784601366666695
-10.374035999999895,-7.147409400000162,3.662269400000028
-10.374035999999895,-7.147409400000162,3.662269400000028
-13.150658333333231,-6.8665556000001615,2.1622549200000285
-15.927280666666562,-6.5857018000001615,0.6622404400000282
-18.703902999999894,-6.3048480000001605,-0.8377740399999718
-18.703902999999894,-6.3048480000001605,-0.8377740399999718
-17.168781999999894,-8.717637333333494,-1.504801759999972
-15.633660999999895,-11.130426666666828,-2.171829479999972
-14.098539999999895,-13.543216000000163,-2.8388571999999725
-14.098539999999895,-13.543216000000163,-2.8388571999999725
-7.3452834666665625,-15.560256333333493,-3.6686524666666394
-0.5920269333332294,-17.577296666666825,-4.498447733333307
6.161229600000104,-19.594337000000156,-5.328242999999973
10.63893206666677,-19.50178300000016,-5.222922799999973
15.116634533333439,-19.409229000000163,-5.117602599999973
19.594337000000106,-19.316675000000163,-5.012282399999973
19.594337000000106,-19.316675000000163,-5.012282399999973
19.594337000000106,-19.316675000000163,-5.012282399999973
18.76773366666677,-11.52617456666683,-5.41122246666664
17.941130333333437,-3.7356741333334953,-5.810162533333306
17.114527000000106,4.054826299999838,-6.209102599999972
16.51771266666677,9.237854866666504,-6.971875733333306
15.92089833333344,14.420883433333172,-7.734648866666639
15.324084000000108,19.603911999999838,-8.497421999999972
15.324084000000108,19.60391199999984,-8.497421999999972
16.623032666666774,16.080473999999843,-8.580401666666639
17.921981333333438,12.55703599999984,-8.663381333333305
19.220930000000106,9.03359799999984,-8.746360999999972
19.220930000000106,9.03359799999984,-8.746360999999972
19.345399000000103,3.537800199999839,-9.049555333333304
19.469868000000105,-1.9579976000001607,-9.352749666666638
19.594337000000106,-7.4537954000001605,-9.65594399999997
19.594337000000106,-7.4537954000001605,-9.65594399999997
19.591145666666772,-11.50064260000016,-4.648448999999969
19.58795433333344,-15.547489800000163,0.3590460000000313
19.584763000000105,-19.594337000000163,5.366541000000031
19.584763000000105,-19.594337000000166,5.366541000000031
16.447499000000107,-19.176248000000168,6.66549000000003
13.31023500000011,-18.758159000000166,7.964439000000031
10.172971000000112,-18.340070000000168,9.263388000000031
10.172971000000112,-18.340070000000168,9.263388000000033
3.9431236666667773,-15.336849666666836,7.6006056666666995
-2.2867236666665565,-12.333629333333505,5.937823333333367
-8.51657099999989,-9.330409000000172,4.2750410000000345
-11.31234299999989,-8.133589000000173,4.1218481333333665
-14.10811499999989,-6.936769000000172,3.9686552666667
-16.903886999999887,-5.7399490000001725,3.8154624000000332
-16.903886999999887,-5.7399490000001725,3.8154624000000332
-16.31664699999989,-9.729349000000173,1.7760810333333665
-15.72940699999989,-13.718749000000171,-0.26330033333330033
-15.142166999999892,-17.70814900000017,-2.302681699999967
-15.142166999999892,-17.70814900000017,-2.302681699999967
-5.941014666666558,-18.336878333333505,-4.0261025666666335
3.260137666666775,-18.965607666666838,-5.749523433333299
12.46129000000011,-19.594337000000174,-7.472944299999966
12.46129000000011,-19.594337000000177,-7.472944299999966
14.838972333333443,-19.28795133333351,-7.8910335333332995
17.216654666666777,-18.981565666666842,-8.309122766666633
19.594337000000113,-18.67518000000018,-8.727211999999966
19.594337000000113,-18.67518000000018,-8.727211999999966
19.19220566666678,-11.743198266666843,-9.496368333333299
18.79007433333345,-4.811216533333508,-10.26552466666663
18.38794300000012,2.1207651999998256,-11.034680999999964
18.387943000000124,2.120765199999826,-11.034680999999964
16.498563333333458,7.894225133333158,-11.580430666666631
14.609183666666793,13.667685066666492,-12.126180333333297
12.719804000000126,19.441144999999825,-12.671929999999962
12.71980400000013,19.441144999999825,-12.67192999999996
14.759185333333463,17.404955333333156,-13.195339666666626
16.798566666666797,15.368765666666489,-13.718749333333292
18.83794800000013,13.33257599999982,-14.242158999999958
19.090077666666797,7.989971066666488,-13.638961666666624
19.342207333333462,2.6473661333331555,-13.03576433333329
19.594337000000127,-2.695238800000178,-12.432566999999956
19.594337000000127,-2.695238800000178,-12.432566999999956
19.584763000000134,-8.328271533333512,-9.448495533333288
19.575189000000137,-13.961304266666843,-6.464424066666621
19.56561500000014,-19.594337000000177,-3.480352599999954
19.565615000000143,-19.594337000000177,-3.480352599999954
15.69430086666681,-19.540081333333507,-1.648420066666621
11.822986733333478,-19.48582566666684,0.18351246666671228
7.951672600000144,-19.431570000000175,2.0154450000000455
7.951672600000144,-19.43157000000017,2.015445000000046
2.6633236000001443,-17.775171333333507,2.2580005333333797
-2.625025399999855,-16.11877266666684,2.500556066666713
-7.913374399999856,-14.462374000000175,2.743111600000047
-7.913374399999856,-14.462374000000176,2.743111600000047
-10.038926599999854,-12.557036333333508,2.1590634133333797
-12.164478799999854,-10.651698666666842,1.5750152266667132
-14.290030999999852,-8.746361000000176,0.9909670400000464
-14.290030999999852,-8.746361000000176,0.9909670400000464
-15.54429866666652,-11.30915133333351,0.9143705400000464
-16.798566333333188,-13.871941666666844,0.8377740400000464
-18.05283399999986,-16.434732000000178,0.7611775400000464
-18.05283399999986,-16.43473200000018,0.7611775400000464
-8.845298333333192,-17.487933666666848,1.8431029266667132
0.36223733333347613,-18.541135333333514,2.92502831333338
9.569773000000142,-19.59433700000018,4.006953700000047
12.911294333333478,-19.28156800000018,0.26330056666671303
16.25281566666681,-18.968799000000185,-3.4803525666666206
19.59433700000014,-18.656030000000186,-7.224005699999954
19.59433700000014,-18.656030000000186,-7.224005699999954
19.59433700000014,-18.656030000000186,-7.224005699999954
18.978374333333477,-11.34106616666685,-10.431483799999954
18.362411666666812,-4.026102333333518,-13.638961899999956
17.746449000000144,3.288861499999816,-16.846439999999955
15.205998333333477,8.727211666666483,-16.11877333333329
12.66554766666681,14.16556183333315,-15.391106666666623
10.125097000000144,19.603911999999816,-14.663439999999957
10.125097000000142,19.603911999999816,-14.663439999999957
10.125097000000142,19.603911999999816,-14.663439999999957
10.125097000000142,19.603911999999816,-14.663439999999957
10.125097000000142,19.603911999999816,-14.663439999999957
10.125097000000142,19.603911999999816,-14.663439999999957
13.281510333333477,11.637877866666484,-14.152796666666623
16.43792366666681,3.6718437333331493,-13.642153333333289
19.59433700000014,-4.294190400000185,-13.131509999999954
19.39007966666681,-9.39423926666685,-11.676176999999955
19.18582233333348,-14.494288133333518,-10.220843999999955
18.98156500000015,-19.59433700000018,-8.765510999999954
18.98156500000015,-19.59433700000018,-8.765510999999952
13.096402200000151,-19.102843333333514,-5.258030033333285
7.211239400000152,-18.61134966666685,-1.750549066666619
1.326076600000152,-18.119856000000183,1.7569319000000476
1.326076600000152,-18.119856000000183,1.7569319000000476
-1.9516145999998482,-16.52090433333352,3.7292913666667142
-5.229305799999849,-14.921952666666852,5.701650833333381
-8.50699699999985,-13.323001000000184,7.674010300000046
-8.50699699999985,-13.323001000000184,7.674010300000046
-11.171916333333181,-11.561282000000185,7.383581966666713
-13.836835666666516,-9.799563000000186,7.09315363333338
-16.50175499999985,-8.037844000000186,6.802725300000046
-16.50175499999985,-8.037844000000186,6.802725300000046
-16.09643199999985,-11.47511133333352,3.735674366666713
-15.69110899999985,-14.912378666666854,0.6686234333333797
-15.28578599999985,-18.349646000000188,-2.3984274999999537
-15.28578599999985,-18.349646000000188,-2.3984274999999537
-6.630383333333184,-18.76454300000019,-2.3186394333332867
2.025019333333482,-19.17944000000019,-2.2388513666666197
10.68042200000015,-19.59433700000019,-2.159063299999953
10.68042200000015,-19.594337000000195,-2.159063299999953
13.651727000000148,-18.493263000000194,-3.1260939999999535
16.623032000000148,-17.39218900000019,-4.0931246999999535
19.59433700000015,-16.29111500000019,-5.060155399999953
17.87729966666682,-9.454878766666857,-6.57612726666662
16.16026233333349,-2.618642533333523,-8.092099133333287
14.443225000000155,4.217593699999809,-9.608070999999955
14.443225000000155,4.217593699999809,-9.608070999999955
14.443225000000155,4.217593699999809,-9.608070999999955
13.259171000000157,8.692105466666476,-11.37298166666662
12.075117000000157,13.166617233333142,-13.137892333333285
10.891063000000159,17.641128999999808,-14.90280299999995
13.785772000000158,15.850685666666477,-14.491097166666618
16.680481000000157,14.060242333333143,-14.079391333333284
19.575190000000152,12.269798999999809,-13.66768549999995
19.575190000000152,12.269798999999809,-13.66768549999995
19.581572333333487,4.306956333333142,-12.113414999999952
19.58795466666682,-3.655886333333525,-10.559144499999952
19.594337000000156,-11.618729000000192,-9.004873999999953
19.594337000000156,-11.618729000000192,-9.004873999999953
18.14538700000016,-14.27726500000019,-6.314422553333287
16.696437000000163,-16.935801000000186,-3.62397110666662
15.247487000000168,-19.594337000000184,-0.9335196599999526
15.247487000000168,-19.594337000000184,-0.9335196599999526
7.074004000000168,-17.74006400000019,1.0803295600000473
-1.0994789999998318,-15.885791000000191,3.0941787800000475
-9.272961999999831,-14.03151800000019,5.108028000000048
-9.272961999999831,-14.03151800000019,5.108028000000047
-10.217651999999832,-11.433620766666857,5.088878833333379
-11.162341999999832,-8.835723533333526,5.069729666666713
-12.107031999999831,-6.237826300000194,5.050580500000045
-12.107031999999828,-6.237826300000194,5.050580500000045
-14.347478999999831,-8.711254533333525,2.739919933333379
-16.587925999999836,-11.184682766666858,0.42925936666671244
-18.82837299999984,-13.65811100000019,-1.881401199999954
-18.828372999999836,-13.65811100000019,-1.881401199999954
-13.233638233333167,-15.636853000000189,-0.8345825666666208
-7.638903466666498,-17.61559500000019,0.2122360666667126
-2.0441686999998296,-19.59433700000019,1.259054700000046
5.168666533333504,-19.56880533333353,2.893113000000046
12.381501766666837,-19.543273666666863,4.527171300000046
19.59433700000017,-19.517742000000197,6.161229600000046
19.59433700000017,-19.517742000000197,6.161229600000046
19.59433700000017,-17.09856933333353,3.3973732000000463
19.59433700000017,-14.679396666666863,0.6335168000000456
19.59433700000017,-12.260224000000198,-2.1303395999999544
19.59433700000017,-12.260224000000198,-2.1303395999999544
18.13262100000017,-3.8186536666668647,-5.746331733333288
16.670905000000175,4.622916666666469,-9.362323866666621
15.20918900000018,13.0644869999998,-12.978315999999955
15.20918900000018,13.0644869999998,-12.978315999999955
15.588980000000179,14.925143333333134,-12.719802999999954
15.96877100000018,16.785799666666467,-12.461289999999954
16.34856200000018,18.6464559999998,-12.202776999999953
16.348562000000182,18.6464559999998,-12.202776999999953
17.43048700000018,14.124071999999801,-11.94107266666662
18.51241200000018,9.601687999999802,-11.679368333333288
19.594337000000177,5.0793039999998015,-11.417663999999958
19.594337000000177,5.0793039999998015,-11.417663999999958
19.594337000000177,-2.9729013333335317,-10.179353999999956
19.594337000000177,-11.025106666666865,-8.941043999999955
19.594337000000177,-19.077312000000198,-7.702733999999954
19.594337000000177,-19.077312000000198,-7.702733999999954
19.594337000000177,-19.077312000000198,-7.702733999999954
19.594337000000177,-19.077312000000198,-7.702733999999954
19.594337000000177,-19.077312000000198,-7.702733999999954
10.083607333333507,-17.39218933333353,-3.2026906666666215
0.5728776666668397,-15.707066666666863,1.2973526666667112
-8.937851999999827,-14.021944000000197,5.797396000000044
-8.937851999999827,-14.021944000000197,5.797396000000044
-10.878296333333159,-12.21554333333353,6.537828666666711
-12.818740666666491,-10.409142666666865,7.278261333333378
-14.759184999999823,-8.602742000000198,8.018694000000044
-14.759184999999823,-8.602742000000198,8.018694000000044
-16.06451666666649,-9.914457000000198,6.225059800000046
-17.369848333333152,-11.226172000000197,4.431425600000046
-18.675179999999816,-12.537887000000197,2.6377914000000455
-12.432566639999814,-14.890037000000197,0.5250050333333788
-6.189953279999814,-17.242187000000197,-1.5877813333332877
0.052660080000186106,-19.594337000000195,-3.7005676999999544
0.052660080000186106,-19.594337000000195,-3.7005676999999544
0.052660080000186106,-19.594337000000195,-3.7005676999999544
6.566552386666853,-19.47305966666686,-2.2452344666666213
13.080444693333519,-19.351782333333528,-0.7899012333332878
19.594337000000184,-19.230505000000193,0.6654320000000457
19.150716000000184,-13.725132666666859,-2.4750239999999546
18.707095000000184,-8.219760333333525,-5.6154799999999545
18.263474000000187,-2.7143880000001914,-8.755935999999954
18.263474000000187,-2.7143880000001914,-8.755935999999956
15.965579333333517,4.725045333333142,-10.49531433333329
13.667684666666853,12.164478666666476,-12.234692666666625
11.369790000000188,19.60391199999981,-13.97407099999996
11.369790000000188,19.603911999999813,-13.97407099999996
13.520874666666854,15.997494333333144,-12.004902999999958
15.67195933333352,12.391076666666477,-10.035734999999958
17.823044000000188,8.784658999999808,-8.066566999999957
17.82304400000019,8.784658999999808,-8.066566999999957
18.41347500000019,5.200581933333142,-8.360186999999959
19.00390600000019,1.6165048666664756,-8.65380699999996
19.59433700000019,-1.967572200000191,-8.947426999999962
19.59433700000019,-1.967572200000191,-8.947426999999962
19.57837966666686,-7.817628800000191,-6.834640566666629
19.562422333333526,-13.66768540000019,-4.721854133333294
19.546465000000193,-19.51774200000019,-2.60906769999996
19.546465000000193,-19.517742000000187,-2.60906769999996
17.17197400000019,-19.476252000000187,0.9813923666667071
14.79748300000019,-19.434762000000187,4.571852433333374
12.422992000000187,-19.393272000000184,8.162312500000041
12.422992000000187,-19.393272000000184,8.162312500000041
5.899524866666854,-16.44749900000019,7.479327333333376
-0.6239422666664799,-13.50172600000019,6.796342166666709
-7.147409399999813,-10.55595300000019,6.113357000000043
-9.269770266666479,-9.550624200000192,4.7378117666667094
-11.392131133333146,-8.54529540000019,3.3622665333333757
-13.514491999999814,-7.539966600000189,1.986721300000042
-13.514491999999814,-7.539966600000189,1.986721300000042
-14.299605999999812,-9.413388900000191,2.2739581333333754
-15.08471999999981,-11.286811200000193,2.561194966666709
-15.869833999999807,-13.160233500000194,2.848431800000043
-15.869833999999807,-13.160233500000194,2.848431800000043
-10.11233163333314,-15.304934666666858,2.0090619766667093
-4.354829266666473,-17.44963583333352,1.1696921533333757
1.4026731000001937,-19.594337000000184,0.33032233000004235
1.4026731000001937,-19.594337000000184,0.33032233000004235
7.46656106666686,-19.594337000000184,-2.1016160133332913
13.530449033333525,-19.594337000000184,-4.533554356666625
19.59433700000019,-19.594337000000184,-6.965492699999959
19.59433700000019,-19.594337000000184,-6.965492699999959
19.59433700000019,-14.937909466666852,-7.099536566666624
19.59433700000019,-10.281481933333518,-7.23358043333329
19.59433700000019,-5.6250544000001845,-7.367624299999956
19.59433700000019,-5.6250544000001845,-7.367624299999956
17.931555333333524,1.6835270666664819,-9.145300866666622
16.26877366666686,8.992108533333148,-10.922977433333287
14.605992000000194,16.300689999999815,-12.700653999999952
14.213435000000194,16.418775666666477,-11.736814999999952
13.820878000000192,16.53686133333314,-10.772975999999952
13.42832100000019,16.654946999999805,-9.809136999999952
13.42832100000019,16.6549469999998,-9.809136999999952
13.42832100000019,16.6549469999998,-9.809136999999952
15.228338333333525,12.094264999999801,-10.539995333333286
17.028355666666865,7.533582999999801,-11.270853666666618
18.8283730000002,2.9729009999998013,-12.00171199999995
19.083694333333533,-2.749494333333532,-11.072979333333285
19.339015666666864,-8.471889666666867,-10.144246666666618
19.5943370000002,-14.1942850000002,-9.215513999999951
19.5943370000002,-14.1942850000002,-9.215513999999951
19.1985890000002,-15.994302333333534,-4.881429799999951
18.802841000000203,-17.79431966666687,-0.5473455999999514
18.407093000000206,-19.594337000000202,3.786738600000049
18.407093000000206,-19.594337000000206,3.786738600000049
11.905966300000207,-18.566668000000202,4.035677266666716
5.404839600000208,-17.5389990000002,4.284615933333382
-1.0962870999997925,-16.511330000000196,4.533554600000049
-1.0962870999997922,-16.511330000000193,4.53355460000005
-1.7473572666664587,-14.187903333333528,5.117602733333383
-2.3984274333331257,-11.864476666666862,5.701650866666715
-3.0494975999997926,-9.541050000000197,6.285699000000048
-3.0494975999997926,-9.541050000000197,6.285699000000048
-5.497393733333126,-9.183599500000199,5.372924233333381
-7.94528986666646,-8.8261490000002,4.460149466666714
-10.393185999999796,-8.468698500000201,3.5473747000000464
-10.393185999999796,-8.468698500000201,3.5473747000000464
-10.294248666666462,-9.534666333333533,2.3665122266667127
-10.195311333333128,-10.600634166666865,1.1856497533333796
-10.096373999999793,-11.666602000000196,0.004787280000046135
-10.096373999999793,-11.666602000000196,0.004787280000046134
-1.8271453333331256,-14.30918033333353,3.521842520000046
6.442083333333541,-16.951758666666862,7.038897760000046
14.711312000000206,-19.594337000000195,10.555953000000047
16.338987000000206,-18.154961666666864,6.075058666666713
17.966662000000206,-16.715586333333533,1.5941643333333797
19.594337000000206,-15.276211000000202,-2.886729999999954
19.59433700000021,-15.276211000000202,-2.886729999999954
18.04645000000021,-7.204856666666868,-6.550594999999954
16.498563000000214,0.8664976666664655,-10.214459999999955
14.950676000000215,8.937851999999799,-13.878324999999956
14.950676000000215,8.937851999999799,-13.878324999999956
13.814494666666882,12.493205333333131,-15.142166999999958
12.678313333333548,16.048558666666466,-16.40600899999996
11.542132000000215,19.603911999999795,-17.669850999999962
11.542132000000215,19.60391199999979,-17.669850999999962
13.78577066666688,16.402817333333125,-17.130483999999964
16.029409333333543,13.201722666666457,-16.591116999999965
18.27304800000021,10.000627999999791,-16.051749999999966
18.273048000000205,10.000627999999791,-16.05174999999997
18.713477666666872,2.5899183333331233,-15.202805666666636
19.153907333333535,-4.820791333333544,-14.353861333333304
19.5943370000002,-12.23150100000021,-13.50491699999997
19.5943370000002,-12.23150100000021,-13.50491699999997
18.975182666666868,-14.685779666666877,-11.009148333333306
18.356028333333537,-17.140058333333545,-8.513379666666639
17.736874000000203,-19.594337000000213,-6.017610999999974
17.736874000000203,-19.594337000000213,-6.017610999999974
11.293194533333539,-17.749638666666883,-3.872909533333307
4.849515066666872,-15.90494033333355,-1.72820806666664
-1.5941643999997943,-14.06024200000022,0.4164934000000269
-2.7207709999997944,-13.326192333333552,2.449491600000027
-3.847377599999794,-12.592142666666883,4.482489800000027
-4.973984199999794,-11.858093000000215,6.515488000000027
-4.973984199999794,-11.858093000000215,6.515488000000027
-4.973984199999794,-11.858093000000215,6.515488000000027
-8.810191133333127,-10.297439666666882,6.38463583333336
-12.646398066666459,-8.73678633333355,6.253783666666693
-16.482604999999793,-7.176133000000218,6.122931500000026
-13.482576333333126,-9.400622666666884,4.539937466666693
-10.482547666666461,-11.625112333333549,2.9569434333333597
-7.482518999999795,-13.849602000000216,1.3739494000000267
-7.482518999999795,-13.849602000000212,1.3739494000000267
0.7675606666668718,-15.764513666666877,-1.220756399999973
9.017640333333539,-17.67942533333354,-3.8154621999999727
17.267720000000207,-19.594337000000206,-6.410167999999973
17.267720000000207,-19.594337000000206,-6.410167999999973
18.043259000000205,-17.85176733333354,-6.691021799999973
18.818798000000204,-16.109197666666876,-6.971875599999973
19.594337000000206,-14.36662800000021,-7.252729399999974
19.594337000000206,-14.36662800000021,-7.252729399999974
18.15177033333354,-6.620808333333545,-8.229334599999973
16.709203666666877,1.125011333333121,-9.205939799999973
15.26663700000021,8.870830999999788,-10.18254499999997
15.26663700000021,8.870830999999788,-10.18254499999997
13.393214666666879,12.448524666666456,-10.214460333333305
11.519792333333546,16.026218333333123,-10.246375666666639
9.646370000000212,19.603911999999795,-10.278290999999975
9.646370000000212,19.60391199999979,-10.278290999999976
12.678314333333548,16.63898999999979,-9.63041233333331
15.710258666666881,13.67406799999979,-8.982533666666644
18.742203000000213,10.709145999999789,-8.334654999999978
19.02624766666688,3.8186539999997877,-7.5910306666666445
19.310292333333546,-3.0718380000002123,-6.847406333333311
19.59433700000021,-9.962330000000213,-6.103781999999977
19.59433700000021,-9.962330000000213,-6.103781999999977
19.112417666666875,-13.17299900000021,-6.71974553333331
18.630498333333545,-16.38366800000021,-7.3357090666666425
18.14857900000021,-19.594337000000213,-7.951672599999976
18.14857900000021,-19.594337000000213,-7.951672599999976
12.170861866666877,-17.570913666666883,-6.649532399999976
6.193144733333543,-15.54749033333355,-5.347392199999977
0.21542760000021013,-13.52406700000022,-4.045251999999977
0.21542760000021013,-13.52406700000022,-4.045251999999978
-2.098424466666456,-13.26555400000022,-4.5080223333333125
-4.412276533333123,-13.00704100000022,-4.970792666666646
-6.7261285999997895,-12.748528000000219,-5.433562999999981
-6.7261285999997895,-12.748528000000219,-5.433562999999981
-10.827231733333122,-11.302769000000218,-5.411222333333314
-14.928334866666455,-9.857010000000217,-5.388881666666649
-19.02943799999979,-8.411251000000219,-5.366540999999983
-19.02943799999979,-8.411251000000219,-5.366540999999983
-17.39857166666646,-12.138946333333552,-4.204827733333315
-15.767705333333131,-15.866641666666887,-3.0431144666666476
-14.136838999999798,-19.59433700000022,-1.8814011999999802
-14.136838999999798,-19.594337000000223,-1.8814011999999802
-5.238880666666464,-19.594337000000223,0.6654318666666871
3.6590776666668696,-19.594337000000223,3.2122649333333544
12.557036000000204,-19.594337000000223,5.759098000000022
14.902803000000205,-18.352836000000224,3.671843850000021
17.248570000000203,-17.111335000000224,1.5845897000000206
19.594337000000206,-15.869834000000225,-0.5026644499999801
19.594337000000206,-15.869834000000225,-0.5026644499999801
19.594337000000206,-15.869834000000225,-0.5026644499999801
17.896448333333538,-7.67081866666689,-1.8590605333333132
16.19855966666687,0.5281966666664429,-3.2154566166666467
14.500671000000205,8.727211999999776,-4.5718526999999805
12.716611666666873,10.144246666666442,-4.951643633333313
10.932552333333541,11.561281333333108,-5.331434566666645
9.14849300000021,12.978315999999774,-5.711225499999977
9.14849300000021,12.978315999999774,-5.711225499999977
10.03892700000021,9.86977556666644,-5.5963306666666455
10.929361000000208,6.761235133333106,-5.481435833333314
11.819795000000207,3.652694699999774,-5.366540999999981
11.819795000000207,3.652694699999774,-5.366540999999981
14.37939400000021,0.06223456666644056,-5.947397766666648
16.93899300000021,-3.5282255666668925,-6.528254533333314
19.49859200000021,-7.118685700000227,-7.10911129999998
19.49859200000021,-7.118685700000227,-7.109111299999978
19.514549666666877,-11.27723613333356,-6.288890533333311
19.530507333333542,-15.435786566666891,-5.468669766666643
19.546465000000207,-19.594337000000223,-4.648448999999976
19.546465000000207,-19.594337000000223,-4.648448999999975
15.164507933333539,-19.54965633333356,-4.776109899999977
10.782550866666872,-19.504975666666894,-4.903770799999978
6.400593800000203,-19.46029500000023,-5.031431699999978
6.400593800000203,-19.46029500000023,-5.031431699999978
2.4303427000002036,-18.892203666666898,-4.179295799999978
-1.5399083999997962,-18.324112333333563,-3.327159899999978
-5.510159499999795,-17.75602100000023,-2.4750239999999777
-5.510159499999795,-17.75602100000023,-2.4750239999999777
-7.303793999999795,-16.444306666666893,-0.9047960666666445
-9.097428499999795,-15.132592333333562,0.665431866666689
-10.891062999999797,-13.82087800000023,2.2356598000000223
-12.394268999999795,-14.29322300000023,2.0665092666666887
-13.897474999999794,-14.76556800000023,1.8973587333333555
-15.400680999999793,-15.237913000000228,1.7282082000000223
-15.400680999999793,-15.237913000000228,1.7282082000000223
-15.400680999999793,-15.237913000000228,1.7282082000000223
-8.57082766666646,-16.69005433333356,1.3324596800000224
-1.7409743333331271,-18.142195666666897,0.9367111600000223
5.088879000000206,-19.59433700000023,0.5409626400000223
9.924031666666872,-19.5911456666669,-0.17074637333331108
14.759184333333538,-19.587954333333567,-0.8824553866666444
19.594337000000206,-19.584763000000233,-1.594164399999978
19.59433700000021,-19.584763000000233,-1.594164399999978
18.515603666666877,-15.617703566666899,-0.011170399999977931
17.436870333333545,-11.650644133333566,1.571823600000022
16.358137000000212,-7.683584700000233,3.154817600000022
16.358137000000212,-7.683584700000233,3.154817600000022
13.090020266666878,-3.5090764666668988,3.1643921666666888
9.821903533333545,0.6654317666664351,3.1739667333333554
6.553786800000211,4.8399399999997685,3.1835413000000226
6.553786800000211,4.8399399999997685,3.1835413000000226
6.419742866666876,5.3984559999997686,2.9441773000000224
6.285698933333543,5.956971999999769,2.7048133000000223
6.15165500000021,6.515487999999768,2.465449300000022
6.151655000000211,6.515487999999768,2.465449300000022
5.229305666666877,4.2239766666664345,3.7133337333333554
4.306956333333544,1.9324653333331012,4.961218166666689
3.3846070000002118,-0.3590460000002323,6.209102600000022
0.9462856666668783,-0.7452199666668987,9.687859066666688
-1.492035666666455,-1.1313939333335652,13.166615533333355
-3.9303569999997876,-1.5175679000002316,16.64537200000002
-3.9303569999997876,-1.5175679000002316,16.64537200000002
-4.868663999999787,-0.8569232100002319,17.009206000000017
-5.806970999999787,-0.19627852000023202,17.373040000000014
-6.745277999999786,0.4643661699997678,17.73687400000001
-6.745277999999786,0.4643661699997678,17.73687400000001
-6.4452749999997865,-0.2345767200002322,16.211327166666678
-6.145271999999788,-0.9335196100002321,14.685780333333346
-5.845268999999789,-1.632462500000232,13.160233500000013
-5.845268999999789,-1.632462500000232,13.160233500000013
-5.028239899999789,-0.6909640666668987,8.810191481333346
-4.2112107999997885,0.25053436666643475,4.46014946266668
-3.394181699999788,1.1920327999997682,0.11010744400001353
-3.394181699999788,1.1920327999997682,0.11010744400001353
-3.0080077333331214,0.36862059999976804,-0.4579831706666531
-2.621833766666455,-0.45479160000023205,-1.0260737853333197
-2.235659799999788,-1.278203800000232,-1.5941643999999864
-2.235659799999788,-1.278203800000232,-1.5941643999999862
-3.5250338666664547,-0.3462799000002323,-1.0675635469999862
-4.814407933333121,0.5856439999997676,-0.5409626939999863
-6.103781999999787,1.5175678999997675,-0.014361840999986311
-6.103781999999787,1.5175678999997675,-0.014361840999986311
-7.67720133333312,2.2835327333331006,2.9346027726666803
-9.250620666666453,3.049497566666434,5.883567386333347
-10.824039999999785,3.815462399999767,8.832532000000013
-10.824039999999789,3.815462399999767,8.832532000000015
-11.219788666666455,2.8388571999997674,10.559144333333348
-11.615537333333123,1.8622519999997678,12.28575666666668
-12.01128599999979,0.8856467999997677,14.012369000000014
-9.892116666666459,1.3611832999997677,12.652781333333346
-7.772947333333126,1.8367197999997675,11.29319366666668
-5.653777999999792,2.3122562999997673,9.933606000000012
-5.653777999999792,2.3122562999997673,9.933606000000012
-4.163338066666459,1.5111847566664338,8.736786100000012
-2.6728981333331254,0.7101132133331004,7.539966200000014
-1.1824581999997916,-0.09095833000023286,6.343146300000015
-1.1824581999997916,-0.09095833000023286,6.343146300000015
-0.1324480666664584,0.19308695999976713,5.631437300000015
0.9175620666668749,0.47713224999976717,4.919728300000014
1.9675722000002083,0.7611775399997671,4.208019300000014
1.9675722000002083,0.761177539999767,4.208019300000014
1.868635066666875,0.8345825066664337,4.906962200000016
1.7696979333335416,0.9079874733331005,5.605905100000016
1.670760800000208,0.9813924399997672,6.3048480000000175
1.670760800000208,0.9813924399997672,6.304848000000018
-0.1420226666664585,1.9739551933331,9.35913300000002
-1.9548061333331253,2.9665179466664333,12.41341800000002
-3.7675895999997917,3.9590806999997663,15.46770300000002
-3.7675895999997913,3.9590806999997663,15.46770300000002
-5.500585066666457,3.3814155333330995,16.074092000000018
-7.233580533333124,2.803750366666433,16.680481000000018
-8.96657599999979,2.226085199999767,17.28687000000002
-8.966575999999792,2.226085199999767,17.286870000000018
-8.309122799999793,2.143105699999767,13.457045333333353
-7.651669599999792,2.060126199999767,9.627220666666686
-6.994216399999792,1.977146699999767,5.797396000000018
-6.177187266666459,1.0962871333331006,3.9878041900000185
-5.360158133333126,0.2154275666664338,2.1782123800000184
-4.5431289999997935,-0.6654320000002328,0.3686205700000184
-4.5431289999997935,-0.6654320000002328,0.3686205700000184
-4.5431289999997935,-0.6654320000002328,0.3686205700000184
-4.128231399999794,-0.46755773333356626,0.27287496833335173
-3.7133337999997935,-0.2696834666668995,0.17712936666668502
-3.2984361999997938,-0.07180920000023287,0.08138376500001837
-4.58142726666646,-0.12925656666689953,1.0133076100000185
-5.864418333333127,-0.18670393333356616,1.9452314550000185
-7.147409399999794,-0.2441513000002328,2.8771553000000183
-7.147409399999794,-0.2441513000002328,2.8771553000000183
-8.98891626666646,-1.2335225333335662,6.930385866666685
-10.830423133333127,-2.2228937666668993,10.983616433333353
-12.671929999999795,-3.2122650000002326,15.036847000000021
-12.671929999999795,-3.2122650000002326,15.036847000000021
-11.695324999999793,-2.985667066666899,15.892174333333353
-10.718719999999792,-2.7590691333335653,16.747501666666686
-9.74211499999979,-2.532471200000232,17.60282900000002
-9.742114999999792,-2.532471200000232,17.602829000000018
-6.818682633333125,-1.5111847666668983,12.841081066666684
-3.895250266666459,-0.4898983333335649,8.07933313333335
-0.9718178999997923,0.5313880999997685,3.3175852000000163
-0.9718178999997923,0.5313880999997685,3.3175852000000163
0.8313910666668742,0.5664948199997685,0.7803266666666827
2.6346000333335406,0.6016015399997684,-1.7569318666666511
4.437809000000207,0.6367082599997683,-4.294190399999985
4.437809000000207,0.6367082599997682,-4.294190399999985
6.58251033333354,1.2207564399997681,-4.7410032666666515
8.727211666666873,1.804804619999768,-5.1878161333333175
10.871913000000205,2.388852799999768,-5.6346289999999835
10.871913000000205,2.3888527999997677,-5.6346289999999835
12.617674666666874,2.005870399999768,-5.487818999999984
14.363436333333544,1.6228879999997676,-5.341008999999985
16.109198000000212,1.2399055999997677,-5.194198999999984
17.27091100000021,-4.8495152666668995,-3.0686465999999846
18.432624000000207,-10.938936133333565,-0.9430941999999846
19.594337000000206,-17.02835700000023,1.1824582000000154
19.594337000000206,-17.02835700000023,1.1824582000000154
19.27518566666687,-17.883683666666897,3.1165194666666824
18.956034333333537,-18.739010333333564,5.050580733333349
18.636883000000207,-19.594337000000227,6.984642000000016
18.636883000000207,-19.594337000000227,6.984642000000016
13.377257400000204,-18.346453000000228,5.031431600000016
8.117631800000202,-17.09856900000023,3.0782212000000158
2.858006200000203,-15.850685000000231,1.1250108000000159
2.858006200000203,-15.850685000000231,1.1250108000000159
-0.5505372999997968,-13.81449500000023,2.487790000000016
-3.959080799999797,-11.77830500000023,3.8505692000000162
-7.367624299999797,-9.742115000000231,5.213348400000016
-7.367624299999797,-9.742115000000231,5.213348400000015
-8.098482533333131,-9.432537666666898,5.347392100000015
-8.829340766666464,-9.122960333333566,5.481435800000014
-9.560198999999796,-8.813383000000234,5.6154795000000135
-9.560198999999796,-8.813383000000234,5.6154795000000135
-9.17721633333313,-8.810191333333568,5.685693000000014
-8.794233666666461,-8.806999666666902,5.755906500000013
-8.411250999999792,-8.803808000000236,5.826120000000014
-8.411250999999792,-8.803808000000236,5.826120000000014
-2.950560199999791,-12.400651000000238,6.783576000000014
2.5101306000002093,-15.997494000000236,7.741032000000015
7.970821400000209,-19.594337000000234,8.698488000000015
11.845326600000208,-18.598583000000232,5.076112666666681
15.71983180000021,-17.60282900000023,1.4537373333333476
19.594337000000213,-16.607075000000233,-2.168637999999986
19.594337000000213,-16.607075000000233,-2.168637999999986
18.863479333333547,-8.130397666666898,-5.25483783333332
18.132621666666882,0.34627966666643495,-8.341037666666653
17.401764000000217,8.822956999999768,-11.427237499999984
17.401764000000217,8.822956999999768,-11.427237499999984
13.342150333333551,9.512325666666435,-10.552760999999986
9.282536666666886,10.201694333333101,-9.678284499999986
5.222923000000219,10.891062999999768,-8.803807999999986
5.222923000000219,10.891062999999768,-8.803807999999986
4.750577900000219,9.276153566666435,-7.19528193333332
4.278232800000218,7.661244133333102,-5.586755866666653
3.8058877000002176,6.046334699999768,-3.978229799999987
3.8058877000002176,6.046334699999768,-3.978229799999987
4.073975466666885,4.750577566666435,-2.6920472033333205
4.342063233333552,3.454820433333102,-1.405864606666654
4.6101510000002195,2.1590632999997683,-0.11968200999998742
4.61015100000022,2.1590632999997688,-0.11968200999998742
8.701679666666886,-2.7271541333335647,0.001595760000012575
12.793208333333553,-7.613371566666898,0.12287353000001257
16.884737000000218,-12.499589000000233,0.2441513000000126
14.720886666666885,-14.86450500000023,-1.3675662999999876
12.557036333333551,-17.22942100000023,-2.9792838999999876
10.393186000000219,-19.594337000000227,-4.5910014999999875
10.393186000000219,-19.594337000000227,-4.591001499999987
10.393186000000219,-19.594337000000227,-4.591001499999987
8.184653866666885,-17.159207333333566,-3.93354843333332
5.976121733333552,-14.724077666666895,-3.2760953666666537
3.767589600000219,-12.288948000000227,-2.6186422999999865
3.1643922666668858,-9.37509023333356,-2.1654464333333205
2.5611949333335526,-6.461232466666895,-1.712250566666654
1.9579976000002193,-3.547374700000228,-1.2590546999999874
1.9579976000002193,-3.547374700000228,-1.2590546999999876
1.5111847766668858,-3.2058820666668946,-1.0611804666666542
1.0643719533335523,-2.8643894333335607,-0.8633062333333209
0.6175591300002189,-2.522896800000227,-0.6654319999999876
0.6175591300002189,-2.522896800000227,-0.6654319999999876
5.768672753333553,-3.3175853333335605,-2.5739609999999873
10.91978637666689,-4.112273866666894,-4.482489999999988
16.070900000000226,-4.906962400000227,-6.3910189999999885
16.070900000000226,-4.906962400000226,-6.3910189999999885
14.181520000000225,-3.4995019666668923,-5.261220866666655
12.292140000000224,-2.0920415333335582,-4.131422733333321
10.402760000000223,-0.684581100000225,-3.0016245999999875
10.402760000000223,-0.684581100000225,-3.0016245999999875
10.37722766666689,-1.2558632333335582,-2.254808913333321
10.351695333333558,-1.8271453666668913,-1.507993226666655
10.326163000000223,-2.3984275000002246,-0.7611775399999883
10.326163000000223,-2.398427500000224,-0.7611775399999882
9.020831333333556,-2.4431087333335575,-0.9750093933333215
7.715499666666889,-2.4877899666668903,-1.1888412466666545
6.410168000000222,-2.5324712000002236,-1.4026730999999877
6.410168000000222,-2.5324712000002236,-1.4026730999999877
7.217622666666888,-2.609067700000224,-1.485652633333321
8.025077333333556,-2.685664200000224,-1.5686321666666547
8.832532000000223,-2.7622607000002244,-1.6516116999999884
9.643178000000225,-3.0016246666668907,-1.6611862666666548
10.453824000000225,-3.2409886333335574,-1.6707608333333213
11.264470000000225,-3.4803526000002236,-1.680335399999988
11.264470000000225,-3.4803526000002236,-1.680335399999988
11.264470000000225,-3.4803526000002236,-1.680335399999988
10.511271333333559,-3.1771582333335573,-1.054797439999988
9.758072666666894,-2.873963866666891,-0.42925947999998787
9.00487400000023,-2.5707695000002246,0.19627848000001205
9.148492333333563,-2.7494946000002245,0.01436183666667872
9.292110666666895,-2.928219700000225,-0.16755480666665465
9.435729000000228,-3.1069448000002247,-0.34947144999998797
9.435729000000226,-3.1069448000002247,-0.34947144999998797
9.636795000000225,-3.135668533333558,-0.47713226666665465
9.837861000000226,-3.164392266666892,-0.6047930833333213
10.038927000000225,-3.1931160000002254,-0.7324538999999879
10.038927000000223,-3.1931160000002254,-0.7324538999999879
9.633603666666891,-3.3016276666668922,-0.46755771866665446
