accx,accy,accz
0.014361841,1.0867126,8.688913000000001
0.014361841,1.0867126,8.688913000000001
0.014361841,1.0867126,8.688913000000001
0.2505343273333333,0.8505401133333331,8.995299000000003
0.4867068136666666,0.6143676266666664,9.301685000000004
0.7228792999999999,0.3781951399999998,9.608071000000004
0.7228793000000001,0.3781951399999999,9.608071000000004
1.1760751333333337,0.4037273066666665,9.83147766666667
1.629270966666667,0.4292594733333332,10.054884333333336
2.0824668,0.45479163999999983,10.278291000000003
2.0824668,0.45479163999999983,10.278291000000005
2.2324682666666664,0.4484085933333331,10.252758833333337
2.3824697333333327,0.44202554666666644,10.22722666666667
2.5324711999999994,0.4356424999999997,10.201694500000004
2.5324711999999994,0.4356424999999997,10.201694500000002
2.6537489999999995,0.19308696666666644,10.083608000000003
2.7750267999999996,-0.0494685666666669,9.965521500000003
2.8963046,-0.29202410000000023,9.847435000000004
2.8963046,-0.29202410000000023,9.847435000000006
2.7143879666666666,-0.09734136666666689,9.668710000000006
2.532471333333333,0.09734136666666644,9.489985000000006
2.3505546999999996,0.2920240999999998,9.311260000000006
2.4431087,0.36223754999999985,9.154875666666673
2.5356626999999996,0.4324509999999999,8.99849133333334
2.6282166999999994,0.50266445,8.842107000000007
2.628216699999999,0.50266445,8.842107000000007
2.628216699999999,0.50266445,8.842107000000007
2.784601266666666,0.18989546666666668,8.564444666666674
2.9409858333333325,-0.12287351666666667,8.28678233333334
3.097370399999999,-0.4356425,8.009120000000005
3.225031133333333,-0.18989544333333339,7.977204800000006
3.352691866666666,0.05585161333333329,7.945289600000006
3.4803526,0.30159866999999996,7.913374400000006
3.4803526,0.30159866999999996,7.913374400000005
3.3431173,0.30159866999999996,7.58783926666667
3.2058820000000003,0.30159866999999996,7.262304133333335
3.0686467000000004,0.30159866999999996,6.936769000000001
3.0686467000000004,0.30159866999999996,6.936769000000001
3.052689133333334,0.5856439800000001,6.560169666666667
3.0367315666666674,0.8696892900000001,6.183570333333333
3.020774000000001,1.1537346000000002,5.806971
3.0207740000000016,1.1537346000000002,5.806971
3.6750355666666685,0.7324539186666668,5.4654783333333326
4.329297133333335,0.31117323733333335,5.123985666666665
4.983558700000002,-0.11010744400000005,4.782492999999998
4.983558700000002,-0.11010744400000005,4.782492999999998
5.637820266666669,-0.7420283960000001,4.8622809999999985
6.292081833333335,-1.3739493480000002,4.942068999999999
6.946343400000003,-2.0058703000000007,5.021857
6.946343400000003,-2.005870300000001,5.021857
7.811245600000003,-2.6505574000000007,5.251646499999999
8.676147800000004,-3.295244500000001,5.481435999999998
9.541050000000004,-3.939931600000001,5.711225499999997
9.541050000000006,-3.939931600000001,5.711225499999997
10.000628666666673,-4.772918400000001,5.296327666666664
10.460207333333342,-5.605905200000001,4.881429833333332
10.919786000000009,-6.438892,4.466532
10.919786000000009,-6.438892,4.466532
11.104894333333341,-6.604851,4.511213466666667
11.290002666666673,-6.770810000000001,4.555894933333334
11.475111000000005,-6.936769000000002,4.6005764000000005
11.475111000000005,-6.936769000000003,4.6005764000000005
11.194257000000006,-6.742086233333336,4.472915499999999
10.913403000000004,-6.54740346666667,4.3452546
10.632549000000004,-6.352720700000003,4.217593699999999
10.632549000000004,-6.352720700000003,4.2175937
10.268716000000005,-5.858035133333337,3.8186538000000003
9.904883000000005,-5.36334956666667,3.419713900000001
9.541050000000006,-4.868664000000003,3.020774000000001
9.541050000000006,-4.868664000000003,3.0207740000000016
9.703817333333339,-4.488873066666671,2.778218433333335
9.866584666666673,-4.109082133333339,2.535662866666668
10.029352000000008,-3.729291200000007,2.2931073000000013
10.029352000000008,-3.729291200000007,2.2931073000000013
9.79637100000001,-3.6080134666666734,2.0697008666666683
9.563390000000009,-3.48673573333334,1.846294433333335
9.330409000000008,-3.365458000000007,1.622888000000002
9.330409000000008,-3.365458000000007,1.622888000000002
9.327217333333342,-3.2537547666666735,1.7186336000000022
9.324025666666676,-3.14205153333334,1.8143792000000023
9.32083400000001,-3.0303483000000067,1.9101248000000026
9.320834000000012,-3.0303483000000067,1.9101248000000026
9.410196833333346,-3.0782212000000064,1.7505488000000025
9.499559666666682,-3.1260941000000066,1.5909728000000023
9.588922500000017,-3.173967000000007,1.4313968000000024
9.588922500000017,-3.173967000000007,1.4313968000000024
9.566581666666684,-3.1612008333333406,1.4856526666666692
9.54424083333335,-3.148434666666674,1.539908533333336
9.521900000000016,-3.135668500000007,1.5941644000000028
9.521900000000016,-3.135668500000007,1.5941644000000028
9.563390000000014,-3.046306000000007,1.3994816333333364
9.604880000000014,-2.956943500000007,1.2047988666666698
9.646370000000012,-2.867581000000007,1.0101161000000032
9.646370000000012,-2.867581000000007,1.010116100000003
9.588922666666678,-2.8292826666666744,1.057988933333336
9.531475333333345,-2.7909843333333413,1.1058617666666695
9.474028000000011,-2.752686000000008,1.1537346000000026
9.47402800000001,-2.752686000000008,1.1537346000000026
9.521900666666678,-2.685664066666675,1.048414413333336
9.569773333333346,-2.6186421333333416,0.9430942266666694
9.617646000000013,-2.551620200000008,0.8377740400000029
9.617646000000015,-2.551620200000008,0.8377740400000029
9.671902000000015,-2.554811800000008,1.064371993333336
9.726158000000014,-2.5580034000000076,1.290969946666669
9.780414000000015,-2.561195000000007,1.5175679000000022
9.780414000000015,-2.561195000000007,1.5175679000000022
9.675093666666681,-2.4814070000000075,1.4601205000000024
9.569773333333346,-2.4016190000000073,1.4026731000000028
9.464453000000013,-2.321831000000007,1.345225700000003
9.464453000000013,-2.321831000000007,1.345225700000003
9.49317666666668,-2.3282140000000076,1.357991800000003
9.521900333333347,-2.3345970000000076,1.3707579000000027
9.550624000000013,-2.3409800000000076,1.3835240000000024
9.550624000000013,-2.3409800000000076,1.3835240000000024
9.544241000000014,-2.366512200000008,1.3899070333333359
9.537858000000014,-2.392044400000008,1.396290066666669
9.531475000000015,-2.417576600000008,1.4026731000000023
9.57615633333335,-2.4845985000000077,1.3196936000000024
9.620837666666683,-2.5516204000000076,1.2367141000000026
9.665519000000018,-2.618642300000007,1.1537346000000028
9.66551900000002,-2.618642300000007,1.1537346000000028
9.66551900000002,-2.618642300000007,1.1537346000000028
9.655944333333354,-2.5931101333333406,1.192032833333336
9.646369666666688,-2.5675779666666743,1.2303310666666694
9.636795000000022,-2.542045800000008,1.2686293000000026
9.608071333333355,-2.5260882000000078,1.2239480000000027
9.579347666666687,-2.5101306000000077,1.1792667000000028
9.55062400000002,-2.4941730000000075,1.1345854000000026
9.55062400000002,-2.4941730000000075,1.1345854000000026
9.54424100000002,-2.5069390666666744,1.1601175666666694
9.537858000000021,-2.519705133333341,1.185649733333336
9.531475000000022,-2.5324712000000074,1.2111819000000026
9.531475000000022,-2.5324712000000074,1.2111819000000026
9.525092000000022,-2.5165136000000072,1.2367140666666696
9.518709000000023,-2.500556000000007,1.2622462333333366
9.512326000000023,-2.484598400000007,1.2877784000000034
9.512326000000023,-2.484598400000007,1.2877784000000037
9.531475000000022,-2.465449266666674,1.29735296666667
9.55062400000002,-2.446300133333341,1.3069275333333368
9.56977300000002,-2.427151000000008,1.3165021000000032
9.56977300000002,-2.427151000000008,1.316502100000003
9.617645666666688,-2.443108666666675,1.3420342666666698
9.665518333333354,-2.4590663333333413,1.3675664333333364
9.713391000000023,-2.475024000000008,1.393098600000003
9.671901500000024,-2.459066333333341,1.3643748666666697
9.630412000000023,-2.443108666666674,1.3356511333333365
9.588922500000024,-2.427151000000007,1.306927400000003
9.588922500000024,-2.427151000000007,1.306927400000003
9.569773333333357,-2.411193400000007,1.3196935000000032
9.550624166666688,-2.3952358000000067,1.3324596000000033
9.531475000000022,-2.3792782000000066,1.3452257000000032
9.531475000000022,-2.3792782000000066,1.3452257000000032
9.537858000000021,-2.3792782000000066,1.3643748333333363
9.54424100000002,-2.3792782000000066,1.3835239666666694
9.55062400000002,-2.3792782000000066,1.4026731000000023
9.55062400000002,-2.3792782000000066,1.4026731000000023
9.572964666666687,-2.388852800000006,1.3994816000000025
9.595305333333355,-2.3984274000000063,1.3962901000000028
9.617646000000022,-2.4080020000000064,1.393098600000003
9.617646000000022,-2.4080020000000064,1.393098600000003
9.643178166666688,-2.4143850000000064,1.3771409666666699
9.668710333333356,-2.4207680000000065,1.3611833333333365
9.694242500000023,-2.427151000000007,1.3452257000000032
9.694242500000023,-2.427151000000007,1.3452257000000032
9.67190166666669,-2.41438493333334,1.3452257000000032
9.649560833333355,-2.4016188666666736,1.3452257000000032
9.627220000000023,-2.388852800000007,1.3452257000000032
9.627220000000023,-2.388852800000007,1.3452257000000032
9.611262666666688,-2.3760867666666736,1.329268100000003
9.595305333333355,-2.36332073333334,1.313310500000003
9.579348000000023,-2.3505547000000067,1.2973529000000028
9.579348000000023,-2.3505547000000067,1.2973529000000028
9.563390333333357,-2.3601292000000065,1.3260766000000028
9.547432666666692,-2.3697037000000063,1.3548003000000026
9.531475000000027,-2.3792782000000066,1.3835240000000024
9.525092000000027,-2.3952358000000067,1.3835240000000024
9.518709000000028,-2.411193400000007,1.3835240000000024
9.512326000000028,-2.427151000000007,1.3835240000000024
9.512326000000028,-2.427151000000007,1.3835240000000024
9.509134333333359,-2.4494916666666735,1.3643748666666695
9.505942666666693,-2.47183233333334,1.3452257333333364
9.502751000000027,-2.4941730000000066,1.3260766000000033
9.502751000000028,-2.4941730000000066,1.326076600000003
9.515517333333362,-2.5101306000000068,1.2909698666666696
9.528283666666697,-2.526088200000007,1.2558631333333359
9.54105000000003,-2.542045800000007,1.220756400000002
9.541050000000032,-2.542045800000007,1.220756400000002
9.604880333333364,-2.5707694333333406,1.1952242666666686
9.668710666666698,-2.5994930666666733,1.1696921333333354
9.732541000000031,-2.6282167000000065,1.1441600000000023
9.732541000000031,-2.628216700000006,1.144160000000002
9.735732333333365,-2.589918466666673,1.1473515333333353
9.738923666666699,-2.551620233333339,1.1505430666666685
9.742115000000032,-2.5133220000000054,1.1537346000000017
9.742115000000032,-2.5133220000000054,1.1537346000000017
9.735732000000032,-2.5037474666666717,1.1537346000000017
9.729349000000033,-2.494172933333338,1.1537346000000017
9.722966000000033,-2.4845984000000043,1.1537346000000017
9.722966000000033,-2.4845984000000043,1.1537346000000017
9.697434000000031,-2.449491666666671,1.1728837000000016
9.671902000000031,-2.414384933333338,1.1920328000000016
9.646370000000031,-2.379278200000005,1.2111819000000015
9.649561333333365,-2.3697037000000045,1.2111819000000015
9.652752666666698,-2.3601292000000047,1.2111819000000015
9.655944000000032,-2.350554700000005,1.2111819000000015
9.655944000000032,-2.350554700000005,1.2111819000000015
9.655944000000032,-2.350554700000005,1.2111819000000015
9.662327333333366,-2.3537461333333383,1.2271395000000016
9.6687106666667,-2.3569375666666716,1.2430971000000017
9.675094000000035,-2.3601290000000055,1.2590547000000019
9.627221000000034,-2.3441714333333383,1.2462886000000015
9.579348000000033,-2.328213866666671,1.2335225000000012
9.531475000000034,-2.3122563000000045,1.2207564000000009
9.531475000000034,-2.3122563000000045,1.2207564000000006
9.557007000000034,-2.3473630666666714,1.2207564000000006
9.582539000000034,-2.3824698333333383,1.2207564000000006
9.608071000000036,-2.417576600000005,1.2207564000000006
9.608071000000036,-2.417576600000005,1.2207564000000006
9.624028666666701,-2.446300233333338,1.204798800000001
9.639986333333367,-2.475023866666671,1.188841200000001
9.655944000000032,-2.5037475000000042,1.1728836000000011
9.655944000000032,-2.5037475000000042,1.1728836000000011
9.6367946666667,-2.5037475000000042,1.1696921000000011
9.61764533333337,-2.5037475000000042,1.166500600000001
9.598496000000038,-2.5037475000000042,1.1633091000000009
9.598496000000038,-2.5037475000000042,1.1633091000000009
9.60487933333337,-2.4686408333333376,1.1888412666666675
9.611262666666702,-2.4335341666666714,1.214373433333334
9.617646000000034,-2.3984275000000053,1.2399056000000008
9.617646000000034,-2.3984275000000053,1.2399056000000008
9.614454333333368,-2.392044400000005,1.2494801666666673
9.611262666666702,-2.3856613000000046,1.2590547333333337
9.608071000000036,-2.379278200000005,1.2686293000000004
9.608071000000036,-2.379278200000005,1.2686293000000004
9.627220333333367,-2.392044333333338,1.249480166666667
9.646369666666699,-2.4048104666666714,1.2303310333333337
9.66551900000003,-2.417576600000005,1.2111819000000004
9.665519000000028,-2.408002000000005,1.204798866666667
9.665519000000028,-2.398427400000005,1.1984158333333337
9.665519000000028,-2.3888528000000053,1.1920328000000004
9.665519000000028,-2.3888528000000053,1.1920328000000002
9.649561333333363,-2.347363066666672,1.2111819000000001
9.633603666666698,-2.3058733333333383,1.230331
9.617646000000033,-2.2643836000000053,1.2494801
9.617646000000034,-2.2643836000000053,1.2494800999999998
9.617646000000034,-2.2803411666666715,1.252671633333333
9.617646000000034,-2.296298733333338,1.2558631666666662
9.617646000000034,-2.3122563000000045,1.2590546999999994
9.617646000000034,-2.3122563000000045,1.2590546999999994
9.620837333333368,-2.296298733333338,1.2175649333333327
9.624028666666701,-2.2803411666666715,1.176075166666666
9.627220000000035,-2.2643836000000053,1.134585399999999
9.627220000000035,-2.2643836000000053,1.134585399999999
9.652752333333368,-2.293107300000005,1.1505429999999992
9.6782846666667,-2.321831000000005,1.1665005999999993
9.703817000000035,-2.350554700000005,1.1824581999999995
9.703817000000035,-2.350554700000005,1.1824581999999995
9.697434000000035,-2.350554700000005,1.179266666666666
9.691051000000035,-2.350554700000005,1.1760751333333326
9.684668000000036,-2.350554700000005,1.172883599999999
9.700625666666701,-2.356937733333338,1.1824581666666656
9.716583333333366,-2.3633207666666713,1.1920327333333325
9.732541000000031,-2.369703800000005,1.2016072999999994
9.732541000000031,-2.369703800000005,1.2016072999999994
9.732541000000031,-2.369703800000005,1.2016072999999994
9.732541000000031,-2.3537462000000047,1.1952242666666661
9.732541000000031,-2.3377886000000045,1.188841233333333
9.732541000000031,-2.3218310000000044,1.1824581999999995
9.662327333333366,-2.3058734000000043,1.1824581999999995
9.5921136666667,-2.289915800000004,1.1824581999999995
9.521900000000036,-2.273958200000004,1.1824581999999995
9.521900000000036,-2.2739582000000036,1.1824581999999995
9.547432000000034,-2.2835327000000034,1.160117566666666
9.572964000000033,-2.2931072000000037,1.1377769333333327
9.598496000000031,-2.3026817000000035,1.1154362999999992
9.59849600000003,-2.302681700000003,1.1154362999999992
9.633603000000031,-2.315447800000003,1.0962871666666658
9.668710000000031,-2.328213900000003,1.0771380333333325
9.703817000000033,-2.3409800000000023,1.0579888999999991
9.703817000000035,-2.3409800000000023,1.0579888999999991
9.6527526666667,-2.328213900000003,1.067563466666666
9.601688333333366,-2.315447800000003,1.077138033333333
9.550624000000033,-2.302681700000003,1.0867125999999996
9.550624000000033,-2.302681700000003,1.0867125999999996
9.566581333333366,-2.321830800000003,1.1218193333333328
9.582538666666698,-2.340979900000003,1.156926066666666
9.598496000000031,-2.360129000000003,1.1920327999999991
9.588921666666696,-2.363320600000003,1.1760751999999992
9.579347333333363,-2.3665122000000025,1.160117599999999
9.56977300000003,-2.369703800000002,1.144159999999999
9.569773000000032,-2.369703800000002,1.1441599999999987
9.569773000000032,-2.369703800000002,1.1441599999999987
9.6399866666667,-2.3952359666666694,1.1888412666666655
9.710200333333367,-2.420768133333336,1.233522533333332
9.780414000000034,-2.446300300000003,1.2782037999999984
9.802754333333366,-2.4111935333333365,1.2175648999999986
9.825094666666699,-2.3760867666666696,1.1569259999999986
9.847435000000031,-2.340980000000003,1.0962870999999985
9.84743500000003,-2.3409800000000036,1.0962870999999983
9.745306666666696,-2.3250224333333365,1.099478666666665
9.643178333333363,-2.3090648666666698,1.1026702333333316
9.54105000000003,-2.2931073000000026,1.1058617999999982
9.541050000000032,-2.2931073000000026,1.1058617999999982
9.550624333333365,-2.2899157333333364,1.0452228899999982
9.560198666666698,-2.2867241666666707,0.9845839799999981
9.569773000000032,-2.2835326000000045,0.923945069999998
9.569773000000032,-2.283532600000005,0.9239450699999979
9.63041200000003,-2.305873300000005,0.939902679999998
9.69105100000003,-2.3282140000000053,0.9558602899999981
9.75169000000003,-2.3505547000000058,0.9718178999999981
9.751690000000028,-2.3505547000000058,0.9718178999999981
9.713391666666693,-2.3186394666666725,0.9973500333333315
9.67509333333336,-2.2867242333333393,1.0228821666666648
9.636795000000024,-2.2548090000000056,1.048414299999998
9.636795000000022,-2.2548090000000056,1.0484142999999977
9.639986666666688,-2.242042933333339,1.0164991333333309
9.643178333333355,-2.2292768666666727,0.9845839666666641
9.64637000000002,-2.2165108000000058,0.9526687999999975
9.64637000000002,-2.2165108000000058,0.9526687999999975
9.684668333333356,-2.2548090000000056,0.9430942233333309
9.722966666666691,-2.2931072000000055,0.9335196466666642
9.761265000000025,-2.3314054000000053,0.9239450699999975
9.761265000000025,-2.3314054000000053,0.9239450699999973
9.643178333333358,-2.2931072000000055,0.9335196466666641
9.52509166666669,-2.2548090000000056,0.9430942233333308
9.407005000000021,-2.2165108000000058,0.9526687999999975
9.407005000000021,-2.2165108000000058,0.9526687999999975
9.330409000000023,-2.2516175333333392,0.9494772666666642
9.253813000000022,-2.2867242666666723,0.9462857333333309
9.177217000000022,-2.3218310000000053,0.9430941999999974
9.177217000000022,-2.3218310000000053,0.9430941999999974
9.148493000000023,-2.4207681000000054,0.9941584999999975
9.119769000000025,-2.5197052000000055,1.0452227999999975
9.091045000000024,-2.618642300000005,1.0962870999999976
8.972959000000024,-2.593110133333339,1.067563433333331
8.854873000000024,-2.5675779666666725,1.0388397666666642
8.736787000000023,-2.542045800000006,1.0101160999999974
8.736787000000023,-2.542045800000006,1.0101160999999974
8.736787000000023,-2.542045800000006,1.0101160999999974
8.701680000000023,-2.6314083666666725,0.7930927333333306
8.666573000000021,-2.720770933333339,0.576069366666664
8.63146600000002,-2.810133500000005,0.3590459999999973
9.592113666666688,-2.940985800000005,0.43245096666666405
10.552761333333354,-3.0718381000000043,0.5058559333333308
11.513409000000019,-3.202690400000004,0.5792608999999975
11.513409000000019,-3.202690400000004,0.5792608999999976
10.926169333333354,-3.1197108666666704,0.42925945333333093
10.338929666666685,-3.0367313333333374,0.2792580066666642
9.75169000000002,-2.9537518000000045,0.12925655999999752
9.75169000000002,-2.953751800000005,0.12925655999999752
9.75169000000002,-2.953751800000005,0.12925655999999752
9.700625333333353,-2.9058790333333384,0.1675548066666642
9.649560666666686,-2.858006266666672,0.20585305333333084
9.59849600000002,-2.810133500000005,0.24415129999999752
9.975095666666686,-2.7080048333333386,0.3207477766666642
10.351695333333351,-2.6058761666666714,0.3973442533333309
10.728295000000017,-2.503747500000005,0.4739407299999976
10.728295000000017,-2.503747500000005,0.4739407299999976
10.645315666666685,-2.4016189000000057,0.42925945333333093
10.56233633333335,-2.2994903000000058,0.3845781766666643
10.479357000000018,-2.197361700000006,0.3398968999999976
10.47935700000002,-2.197361700000006,0.3398968999999976
10.50488900000002,-2.2580005333333393,0.2760664966666642
10.53042100000002,-2.3186393666666727,0.21223609333333093
10.555953000000022,-2.3792782000000057,0.14840568999999762
10.555953000000022,-2.3792782000000057,0.1484056899999976
11.11766050000002,-2.423959466666673,-0.06542615666666908
11.67936800000002,-2.4686407333333396,-0.2792580033333358
12.24107550000002,-2.5133220000000063,-0.49308985000000244
12.24107550000002,-2.5133220000000063,-0.49308985000000244
13.06129600000002,-2.2611919666666727,-0.7643690333333356
13.88151650000002,-2.009061933333339,-1.035648216666669
14.701737000000021,-1.7569319000000057,-1.3069274000000022
14.701737000000021,-1.7569319000000057,-1.306927400000002
14.417692000000018,-1.5813983000000054,-1.192032700000002
14.133647000000018,-1.405864700000005,-1.0771380000000017
13.849602000000017,-1.230331100000005,-0.9622433000000017
13.849602000000013,-1.2303311000000052,-0.9622433000000017
11.676176666666683,-0.29521566666667187,-0.965434833333335
9.502751333333348,0.6398997666666614,-0.9686263666666685
7.329326000000015,1.5750151999999946,-0.9718179000000018
8.165504333333349,0.9430942133333279,-0.8313910000000018
9.001682666666683,0.3111732266666612,-0.6909641000000017
9.837861000000016,-0.32074776000000543,-0.5505372000000017
9.837861000000016,-0.32074776000000543,-0.5505372000000017
9.837861000000016,-0.32074776000000543,-0.5505372000000017
9.07827913333335,-0.18989544000000538,-0.4260679233333351
8.318697266666684,-0.05904312000000539,-0.30159864666666847
7.5591154000000165,0.07180919999999462,-0.17712937000000184
7.2208142666666815,-0.2792580133333387,-0.1037244056666685
6.882513133333347,-0.630325226666672,-0.030319441333335157
6.544212000000013,-0.9813924400000054,0.04308552299999818
6.544212000000013,-0.9813924400000054,0.04308552299999818
6.387827500000014,-0.7899012333333387,0.24415129866666482
6.231443000000016,-0.598410026666672,0.44521707433333146
6.075058500000016,-0.40691882000000534,0.6462828499999981
6.075058500000016,-0.40691882000000534,0.6462828499999982
6.075058500000016,-0.40691882000000534,0.6462828499999982
6.617617000000016,-0.5664948133333386,0.6781980333333316
7.160175500000015,-0.726070806666672,0.7101132166666649
7.702734000000015,-0.8856468000000053,0.7420283999999984
8.746361000000014,-1.227139466666672,0.9335196333333315
9.789988000000015,-1.5686321333333388,1.1250108666666647
10.833615000000016,-1.9101248000000055,1.316502099999998
10.833615000000016,-1.9101248000000055,1.3165020999999977
11.567664666666682,-1.843102866666672,1.1824582466666644
12.301714333333349,-1.7760809333333387,1.0484143933333312
13.035764000000015,-1.7090590000000052,0.9143705399999978
13.035764000000015,-1.7090590000000052,0.9143705399999978
14.13364666666668,-2.2803411333333385,0.9271366266666646
15.231529333333347,-2.8516232666666714,0.9399027133333314
16.329412000000012,-3.4229054000000048,0.9526687999999982
16.329412000000012,-3.4229054000000048,0.9526687999999982
14.187902000000014,-3.0750296666666714,1.0324567999999983
12.046392000000013,-2.7271539333333386,1.1122447999999985
9.904882000000015,-2.3792782000000052,1.1920327999999984
9.904882000000015,-2.3792782000000052,1.1920327999999984
10.121905666666683,-2.3760867333333384,1.0069246199999984
10.338929333333349,-2.372895266666672,0.8218164399999984
10.555953000000017,-2.3697038000000052,0.6367082599999985
10.163396000000015,-2.1558719333333385,0.6686234733333318
9.770839000000015,-1.942040066666672,0.7005386866666653
9.378282000000013,-1.7282082000000056,0.7324538999999989
9.378282000000013,-1.7282082000000056,0.7324538999999989
9.378282000000013,-1.7282082000000056,0.7324538999999989
8.634657800000014,-1.7409742666666723,0.5218135599999988
7.891033600000014,-1.753740333333339,0.31117321999999875
7.147409400000015,-1.7665064000000055,0.10053287999999871
7.125068800000014,-1.753740333333339,0.0047872733333320415
7.102728200000013,-1.7409742666666723,-0.09095833333333463
7.080387600000012,-1.7282082000000056,-0.18670394000000132
7.080387600000012,-1.7282082000000056,-0.18670394000000132
7.326134533333346,-1.7537403666666724,-0.17393785666666797
7.571881466666681,-1.779272533333339,-0.16117177333333466
7.8176284000000145,-1.8048047000000056,-0.14840569000000134
7.8176284000000145,-1.8048047000000056,-0.14840569000000134
8.75593526666668,-1.9643806666666723,-0.20585304666666795
9.694242133333349,-2.123956633333339,-0.26330040333333465
10.632549000000015,-2.283532600000005,-0.3207477600000013
10.632549000000017,-2.283532600000005,-0.3207477600000013
11.803837000000017,-2.372895133333338,-0.39096120666666806
12.97512500000002,-2.462257666666671,-0.4611746533333347
14.146413000000022,-2.5516202000000043,-0.5313881000000013
14.146413000000022,-2.551620200000004,-0.5313881000000013
14.449607333333354,-2.4750238000000038,-0.5664948200000012
14.752801666666686,-2.398427400000003,-0.6016015400000011
15.05599600000002,-2.321831000000003,-0.636708260000001
15.05599600000002,-2.321831000000003,-0.6367082600000009
13.680450666666687,-2.1750210666666696,-0.1388311200000009
12.304905333333354,-2.028211133333336,0.35904601999999913
10.929360000000022,-1.8814012000000027,0.8569231599999991
10.929360000000022,-1.8814012000000027,0.8569231599999991
10.54637800000002,-1.463312033333336,0.7133047566666658
10.16339600000002,-1.0452228666666692,0.5696863533333326
9.78041400000002,-0.6271337000000026,0.4260679499999993
9.78041400000002,-0.6271337000000026,0.4260679499999993
9.196365666666686,-1.0069246000000025,0.8058588666666658
8.612317333333353,-1.3867155000000027,1.1856497833333324
8.028269000000021,-1.7665064000000026,1.565440699999999
8.028269000000021,-1.7665064000000026,1.565440699999999
7.24953800000002,-1.5750152000000026,1.492035699999999
6.470807000000019,-1.3835240000000029,1.4186306999999994
5.692076000000019,-1.1920328000000031,1.3452256999999994
5.692076000000019,-1.1920328000000031,1.3452256999999994
6.001653533333351,-1.2271395000000032,1.4250136999999992
6.311231066666683,-1.2622462000000032,1.5048016999999991
6.620808600000015,-1.2973529000000033,1.5845896999999993
7.086770400000016,-1.3452257333333366,1.5430999333333328
7.552732200000015,-1.39309856666667,1.5016101666666664
8.018694000000016,-1.4409714000000033,1.4601203999999999
8.018694000000014,-1.4409714000000033,1.4601203999999999
8.018694000000014,-1.4409714000000033,1.4601203999999999
8.720828333333348,-1.5303339333333366,1.4409712999999995
9.422962666666681,-1.6196964666666698,1.4218221999999996
10.125097000000014,-1.7090590000000028,1.4026730999999997
10.827231666666682,-1.8973587333333362,1.2526716666666664
11.529366333333348,-2.0856584666666698,1.1026702333333331
12.231501000000014,-2.2739582000000027,0.9526687999999998
12.231501000000014,-2.2739582000000023,0.9526687999999998
13.03257266666668,-2.4558748000000024,0.8888383799999997
13.833644333333345,-2.637791400000002,0.8250079599999997
14.63471600000001,-2.819708000000002,0.7611775399999995
14.63471600000001,-2.819708000000002,0.7611775399999994
14.63471600000001,-2.819708000000002,0.7611775399999994
13.884708666666677,-2.819708000000002,0.8058588266666661
13.134701333333345,-2.819708000000002,0.8505401133333329
12.38469400000001,-2.819708000000002,0.8952213999999996
11.554898833333345,-2.5005560000000018,0.7771351466666663
10.725103666666678,-2.181404000000002,0.6590488933333329
9.895308500000011,-1.8622520000000016,0.5409626399999996
9.895308500000013,-1.8622520000000016,0.5409626399999996
9.895308500000013,-1.8622520000000016,0.5409626399999996
10.259141666666679,-1.9579976666666683,0.6143676066666662
10.622974833333345,-2.053743333333335,0.687772573333333
10.98680800000001,-2.149489000000002,0.7611775399999997
10.98680800000001,-2.149489000000002,0.7611775399999997
10.192119333333343,-1.8941673333333358,0.614367613333333
9.397430666666677,-1.6388456666666693,0.46755768666666636
8.60274200000001,-1.3835240000000029,0.32074775999999966
8.17188700000001,-1.319693600000003,0.22500215999999962
7.74103200000001,-1.2558632000000032,0.1292565599999996
7.31017700000001,-1.1920328000000031,0.03351095999999961
7.31017700000001,-1.1920328000000031,0.03351095999999961
7.31017700000001,-1.1920328000000031,0.03351095999999961
7.070813000000011,-1.1633091333333365,0.004787279999999609
6.831449000000011,-1.1345854666666697,-0.02393640000000039
6.5920850000000115,-1.105861800000003,-0.05266008000000039
6.5920850000000115,-1.105861800000003,-0.05266008000000039
7.137835000000011,-1.3356512000000034,-0.020744879000000386
7.683585000000011,-1.5654406000000034,0.011170321999999613
8.229335000000011,-1.7952300000000037,0.043085522999999605
8.229335000000013,-1.7952300000000037,0.043085522999999605
9.684668000000014,-1.9069332000000037,0.017553361999999604
11.140001000000014,-2.0186364000000037,-0.007978799000000395
12.595334000000015,-2.130339600000004,-0.033510960000000395
13.33895833333335,-2.0697007333333373,-0.11649048666666706
14.082582666666683,-2.009061866666671,-0.19947001333333372
14.826207000000018,-1.9484230000000042,-0.2824495400000004
14.82620700000002,-1.9484230000000042,-0.28244954000000044
14.82620700000002,-1.9484230000000042,-0.28244954000000044
14.99216600000002,-2.235659833333337,-0.11329897000000044
15.158125000000021,-2.522896666666671,0.05585159999999956
15.324084000000022,-2.8101335000000045,0.22500216999999956
12.844272900000023,-2.2197022666666713,0.4547916266666662
10.364461800000024,-1.6292710333333378,0.6845810833333328
7.884650700000026,-1.0388398000000043,0.9143705399999996
7.884650700000026,-1.0388398000000043,0.9143705399999996
8.481465133333359,-1.2399056000000044,1.0324567933333328
9.078279566666692,-1.4409714000000042,1.150543046666666
9.675094000000025,-1.6420372000000043,1.268629299999999
9.675094000000025,-1.6420372000000043,1.268629299999999
9.675094000000025,-1.6420372000000043,1.268629299999999
8.810191866666692,-1.5590576666666711,1.3707579333333326
7.945289733333358,-1.4760781333333377,1.4728865666666662
7.080387600000026,-1.3930986000000045,1.5750151999999995
6.8920877333333594,-1.4952272333333376,1.6484201333333328
6.703787866666694,-1.5973558666666712,1.7218250666666661
6.515488000000029,-1.6994845000000047,1.7952299999999994
6.515488000000029,-1.6994845000000047,1.7952299999999994
6.678255666666694,-1.7441657666666714,1.827145233333333
6.841023333333361,-1.7888470333333384,1.8590604666666664
7.003791000000027,-1.8335283000000053,1.8909756999999996
7.003791000000027,-1.8335283000000053,1.8909756999999996
7.616563000000028,-1.8909756333333385,1.9994873999999996
8.229335000000027,-1.948422966666672,2.1079990999999993
8.842107000000027,-2.0058703000000055,2.2165107999999996
8.842107000000027,-2.0058703000000055,2.2165107999999996
9.735732666666694,-2.060126200000006,2.1718294666666664
10.629358333333363,-2.1143821000000056,2.1271481333333333
11.52298400000003,-2.1686380000000054,2.0824668
11.52298400000003,-2.1686380000000054,2.0824668
12.582568333333363,-2.3409800666666722,1.8399113
13.642152666666696,-2.513322133333339,1.5973558
14.70173700000003,-2.6856642000000055,1.3548003000000002
14.70173700000003,-2.6856642000000055,1.3548003000000002
14.695354333333363,-3.0111992666666723,1.4633120000000002
14.688971666666696,-3.336734333333339,1.5718237000000002
14.682589000000029,-3.6622694000000053,1.6803354
14.682589000000029,-3.6622694000000053,1.6803354
14.682589000000029,-3.6622694000000053,1.6803354
12.962359333333362,-3.0111992666666723,1.3548003233333334
11.242129666666697,-2.360129133333339,1.029265246666667
9.52190000000003,-1.7090590000000059,0.7037301700000004
10.11552300000003,-1.9165078000000058,0.773943626666667
10.709146000000027,-2.1239566000000054,0.8441570833333337
11.302769000000026,-2.3314054000000053,0.9143705400000005
11.302769000000026,-2.3314054000000053,0.9143705400000005
10.179353766666694,-1.9739551666666724,0.7707521266666673
9.05593853333336,-1.6165049333333392,0.627133713333334
7.932523300000028,-1.2590547000000059,0.4835153000000006
7.932523300000028,-1.259054700000006,0.48351530000000054
7.412305533333362,-1.3835239666666725,0.31436473266666726
6.8920877666666955,-1.5079932333333392,0.1452141653333339
6.37187000000003,-1.632462500000006,-0.02393640199999943
6.37187000000003,-1.632462500000006,-0.02393640199999943
6.812299666666696,-1.6867183333333393,0.004787280000000573
7.252729333333363,-1.7409741666666727,0.033510962000000574
7.69315900000003,-1.795230000000006,0.06223464400000058
7.69315900000003,-1.795230000000006,0.06223464400000058
8.567635666666696,-1.8462943333333393,0.03989400266666724
9.442112333333363,-1.8973586666666726,0.017553361333333902
10.316589000000029,-1.948423000000006,-0.004787279999999433
10.316589000000029,-1.948423000000006,-0.004787279999999433
10.935743666666696,-2.0186364333333393,-0.07180919999999942
11.554898333333362,-2.0888498666666724,-0.13883111999999942
12.174053000000029,-2.1590633000000055,-0.20585303999999946
12.174053000000029,-2.1590633000000055,-0.20585303999999946
12.84108100000003,-2.1207651000000056,-0.5281965599999995
13.508109000000028,-2.082466900000006,-0.8505400799999995
14.175137000000028,-2.044168700000006,-1.1728835999999994
14.175137000000028,-2.044168700000006,-1.1728835999999994
13.715558000000028,-2.2548090666666725,-0.42287636666666595
13.255979000000027,-2.465449433333339,0.32713086666666746
12.796400000000027,-2.6760898000000055,1.0771381000000009
12.796400000000027,-2.6760898000000055,1.0771381000000009
11.590005666666693,-2.050551800000006,0.601601583333334
10.383611333333361,-1.4250138000000057,0.1260650666666673
9.177217000000027,-0.7994758000000055,-0.3494714499999994
9.177217000000027,-0.7994758000000055,-0.3494714499999994
9.158067666666694,-1.2207564666666724,0.46117463333333397
9.13891833333336,-1.6420371333333392,1.2718207166666673
9.119769000000026,-2.063317800000006,2.082466800000001
8.028269000000028,-1.7633149000000061,1.9675721000000006
6.936769000000029,-1.4633120000000062,1.8526774000000004
5.84526900000003,-1.1633091000000062,1.7377827000000003
5.84526900000003,-1.1633091000000062,1.7377827000000003
5.84526900000003,-1.1633091000000062,1.7377827000000003
6.199527766666698,-1.3675664000000063,1.7569318000000003
6.553786533333366,-1.5718237000000064,1.7760809000000002
6.908045300000033,-1.7760810000000065,1.79523
7.613371200000032,-1.728208166666673,2.002678866666667
8.318697100000032,-1.6803353333333397,2.2101277333333336
9.024023000000032,-1.6324625000000061,2.4175766000000003
9.024023000000033,-1.6324625000000061,2.4175766000000003
9.9719046666667,-1.7696979000000062,2.5165137333333334
10.919786333333368,-1.9069333000000064,2.6154508666666665
11.867668000000036,-2.0441687000000064,2.7143879999999996
11.867668000000036,-2.044168700000006,2.7143879999999996
12.659165000000035,-2.123956666666673,2.3984274666666665
13.450662000000035,-2.20374463333334,2.082466933333334
14.242159000000035,-2.2835326000000067,1.7665064000000008
14.242159000000035,-2.283532600000007,1.7665064000000008
14.682588666666701,-2.739919966666674,1.9101248333333343
15.123018333333368,-3.1963073333333405,2.0537432666666677
15.563448000000035,-3.652694700000007,2.197361700000001
15.563448000000035,-3.652694700000007,2.1973617000000014
13.651727333333367,-3.1101363333333407,1.677143886666668
11.7400066666667,-2.5675779666666743,1.1569260733333344
9.828286000000032,-2.025019600000008,0.636708260000001
9.828286000000032,-2.025019600000008,0.6367082600000009
10.638932000000032,-1.9994874000000078,0.5856439400000009
11.449578000000033,-1.9739552000000078,0.5345796200000008
12.260224000000035,-1.9484230000000078,0.48351530000000076
11.197448000000035,-1.7537403000000076,0.4579831400000008
10.134672000000036,-1.5590576000000074,0.43245098000000076
9.071896000000036,-1.3643749000000074,0.40691882000000074
9.071896000000036,-1.3643749000000074,0.40691882000000074
8.388910666666701,-1.4026731333333409,0.18032088666666743
7.705925333333366,-1.4409713666666744,-0.04627704666666591
7.022940000000031,-1.479269600000008,-0.27287497999999927
7.022940000000031,-1.479269600000008,-0.27287497999999927
7.019748566666699,-1.575015200000008,-0.3654290533333325
7.016557133333367,-1.6707608000000078,-0.4579831266666658
7.013365700000034,-1.7665064000000077,-0.5505371999999991
7.013365700000034,-1.7665064000000077,-0.5505371999999991
7.514434133333367,-1.7569318333333408,-0.48670679999999916
8.015502566666699,-1.747357266666674,-0.42287639999999915
8.516571000000033,-1.7377827000000072,-0.35904599999999914
8.516571000000033,-1.7377827000000068,-0.35904599999999914
9.218705333333366,-1.9707636666666737,-0.2505343199999992
9.9208396666667,-2.20374463333334,-0.1420226399999992
10.622974000000033,-2.436725600000006,-0.0335109599999992
10.622974000000033,-2.4367256000000057,-0.0335109599999992
11.644260666666698,-2.2803411333333394,-0.11968200666666588
12.665547333333365,-2.1239566666666727,-0.20585305333333256
13.686834000000031,-1.9675722000000062,-0.29202409999999923
13.686834000000031,-1.9675722000000062,-0.2920240999999993
14.041092666666698,-2.1239566666666727,0.13244808000000075
14.395351333333364,-2.2803411333333394,0.5569202600000008
14.74961000000003,-2.4367256000000057,0.9813924400000008
12.68150500000003,-2.1782124666666727,1.0675634933333342
10.613400000000029,-1.9196993333333394,1.1537345466666673
8.545295000000028,-1.6611862000000064,1.2399056000000006
8.545295000000028,-1.6611862000000064,1.2399056000000004
8.545295000000028,-1.6611862000000064,1.2399056000000004
9.151684000000028,-1.7569318000000063,1.3420342333333337
9.758073000000028,-1.8526774000000061,1.444162866666667
10.364462000000028,-1.948423000000006,1.5462915000000006
9.381473766666696,-1.8622519666666726,1.8143792333333337
8.398485533333362,-1.7760809333333392,2.082466966666667
7.41549730000003,-1.689909900000006,2.3505547
7.415497300000031,-1.689909900000006,2.3505547
7.291027866666698,-1.5782067000000062,2.267575133333333
7.166558433333364,-1.4665035000000064,2.1845955666666668
7.04208900000003,-1.3548003000000068,2.101616
7.04208900000003,-1.3548003000000068,2.101616
7.42188000000003,-1.5048017666666735,2.1782124666666665
7.80167100000003,-1.6548032333333402,2.254808933333333
8.18146200000003,-1.804804700000007,2.3314053999999995
8.181462000000028,-1.804804700000007,2.3314053999999995
8.717637500000027,-1.922890900000007,2.3760866999999997
9.253813000000026,-2.0409771000000068,2.4207679999999994
9.789988500000025,-2.159063300000007,2.4654492999999995
9.789988500000023,-2.159063300000007,2.4654492999999995
10.36765366666669,-2.1622548666666734,2.2675750333333333
10.945318833333358,-2.16544643333334,2.069700766666667
11.522984000000024,-2.1686380000000067,1.871826500000001
11.522984000000024,-2.1686380000000067,1.871826500000001
12.732570000000024,-2.4175765666666735,1.8239537333333342
13.942156000000024,-2.666515133333341,1.7760809666666677
15.151742000000022,-2.9154537000000076,1.728208200000001
15.151742000000022,-2.9154537000000076,1.728208200000001
14.921952666666689,-3.0686467000000075,1.807996200000001
14.692163333333355,-3.2218397000000074,1.8877842000000011
14.46237400000002,-3.3750327000000073,1.967572200000001
14.46237400000002,-3.3750327000000073,1.967572200000001
12.713420666666687,-2.8484318000000073,1.380332480000001
10.964467333333355,-2.3218309000000072,0.793092760000001
9.215514000000022,-1.7952300000000072,0.20585304000000101
9.215514000000022,-1.7952300000000072,0.20585304000000101
10.000628000000022,-1.8814010333333406,0.30159864333333436
10.785742000000022,-1.9675720666666738,0.3973442466666677
11.570856000000022,-2.0537431000000073,0.493089850000001
11.570856000000022,-2.0537431000000073,0.493089850000001
10.472973000000023,-1.7824639333333405,0.5281965666666677
9.375090000000021,-1.511184766666674,0.5633032833333343
8.27720700000002,-1.2399056000000073,0.5984100000000009
8.27720700000002,-1.2399056000000073,0.5984100000000009
7.57188120000002,-1.3962900666666738,0.3143647133333342
6.866555400000021,-1.5526745333333405,0.030319426666667575
6.161229600000021,-1.709059000000007,-0.25372585999999914
6.161229600000023,-1.709059000000007,-0.25372585999999914
6.486764733333357,-2.002678866666674,-0.3813866599999991
6.812299866666692,-2.296298733333341,-0.5090474599999991
7.137835000000027,-2.589918600000008,-0.636708259999999
7.137835000000027,-2.589918600000008,-0.636708259999999
7.728266000000024,-2.4941729666666745,-0.5250050633333323
8.318697000000022,-2.3984273333333412,-0.41330186666666563
8.909128000000019,-2.302681700000008,-0.3015986699999989
9.76126400000002,-2.3569375666666743,-0.33351386666666555
10.613400000000022,-2.4111934333333402,-0.3654290633333322
11.465536000000023,-2.4654493000000066,-0.39734425999999884
11.465536000000023,-2.4654493000000066,-0.3973442599999988
12.043201000000025,-2.4335341333333402,-0.17393784666666545
12.620866000000026,-2.4016189666666734,0.04946856666666788
13.198531000000026,-2.369703800000007,0.2728749800000012
13.198531000000026,-2.369703800000007,0.27287498000000115
13.447469666666692,-2.2420429666666735,0.8345825200000013
13.696408333333357,-2.11438213333334,1.3962900600000012
13.945347000000021,-1.9867213000000064,1.9579976000000014
13.945347000000021,-1.9867213000000064,1.9579976000000014
12.19958566666669,-2.0633178000000063,2.092041400000001
10.453824333333358,-2.1399143000000067,2.2260852000000013
8.708063000000026,-2.216510800000006,2.360129000000001
8.708063000000026,-2.2165108000000058,2.360129000000001
9.119769000000026,-1.8111877333333393,2.085658300000001
9.531475000000027,-1.4058646666666725,1.811187600000001
9.943181000000026,-1.000541600000006,1.5367169000000007
9.943181000000028,-1.000541600000006,1.5367169000000007
9.247429666666694,-1.0579889333333394,1.6707607666666673
8.55167833333336,-1.1154362666666728,1.8048046333333339
7.855927000000026,-1.1728836000000065,1.9388485000000004
7.855927000000026,-1.1728836000000065,1.9388485000000004
7.3963480000000255,-1.4920356000000066,1.9962958666666673
6.936769000000026,-1.8111876000000067,2.0537432333333343
6.477190000000025,-2.1303396000000068,2.1111906000000014
6.7516608000000256,-1.9707636333333403,1.964380666666668
7.026131600000027,-1.8111876666666735,1.8175707333333346
7.300602400000027,-1.651611700000007,1.6707608000000012
7.300602400000027,-1.651611700000007,1.6707608000000012
7.300602400000027,-1.651611700000007,1.6707608000000012
7.58464793333336,-1.7154421000000069,1.7090590333333344
7.868693466666692,-1.7792725000000067,1.7473572666666677
8.152739000000025,-1.8431029000000068,1.785655500000001
8.20061133333336,-1.9899128000000068,1.849485900000001
8.248483666666692,-2.1367227000000066,1.9133163000000009
8.296356000000026,-2.2835326000000062,1.9771467000000007
8.296356000000026,-2.283532600000006,1.9771467000000005
8.331463000000026,-2.2324682666666726,1.9707636666666672
8.366570000000028,-2.1814039333333395,1.9643806333333338
8.40167700000003,-2.130339600000006,1.9579976000000006
8.40167700000003,-2.130339600000006,1.9579976000000006
9.557007333333365,-2.3792781666666722,1.587781266666667
10.712337666666699,-2.6282167333333386,1.2175649333333336
11.867668000000032,-2.8771553000000054,0.8473486000000001
11.867668000000032,-2.8771553000000054,0.8473486000000001
12.490014333333365,-3.3399257666666724,1.0707550333333333
13.112360666666698,-3.802696233333339,1.2941614666666663
13.73470700000003,-4.2654667000000055,1.5175678999999995
13.73470700000003,-4.265466700000005,1.5175678999999995
13.884708333333364,-3.9431232000000045,0.6909641666666664
14.034709666666698,-3.620779700000005,-0.13563956666666677
14.18471100000003,-3.2984362000000047,-0.9622432999999999
14.18471100000003,-3.2984362000000047,-0.9622432999999999
13.176190666666697,-3.001624800000004,-0.4930898433333333
12.167670333333364,-2.704813400000004,-0.023936386666666604
11.159150000000032,-2.4080020000000038,0.44521707000000005
11.159150000000034,-2.4080020000000038,0.44521707000000005
10.514463000000033,-2.299490266666671,0.17074633333333342
9.869776000000034,-2.190978533333338,-0.10372440333333326
9.225089000000034,-2.0824668000000046,-0.3781951399999999
9.221897333333368,-2.3441715333333377,-0.39734425999999984
9.218705666666702,-2.605876266666671,-0.41649337999999975
9.215514000000036,-2.8675810000000035,-0.4356424999999997
9.215514000000036,-2.8675810000000035,-0.4356424999999997
9.272961500000036,-2.7877929000000035,-0.4994728999999997
9.330409000000037,-2.7080048000000043,-0.5633032999999997
9.387856500000035,-2.6282167000000047,-0.6271336999999997
9.387856500000035,-2.628216700000005,-0.6271336999999996
9.470836000000036,-2.6984302000000056,-0.729262353333333
9.553815500000036,-2.7686437000000055,-0.8313910066666663
9.636795000000037,-2.8388572000000054,-0.9335196599999996
9.636795000000037,-2.8388572000000054,-0.9335196599999996
9.825094833333372,-2.7973674666666724,-0.8537316499999997
10.013394666666706,-2.755877733333339,-0.7739436399999997
10.20169450000004,-2.7143880000000054,-0.6941556299999997
10.20169450000004,-2.7143880000000054,-0.6941556299999997
10.667656333333374,-2.3824699000000056,-0.40372729666666635
11.133618166666707,-2.050551800000006,-0.113298963333333
11.59958000000004,-1.7186337000000058,0.17712937000000037
11.59958000000004,-1.7186337000000058,0.17712937000000037
11.854901666666706,-1.4409714000000058,0.40691881333333363
12.110223333333371,-1.1633091000000058,0.6367082566666669
12.365545000000035,-0.8856468000000058,0.8664977000000001
12.365545000000035,-0.8856468000000058,0.8664977000000001
10.999574166666703,-0.7420284133333391,1.4409713333333336
9.633603333333369,-0.5984100266666724,2.015444966666667
8.267632500000035,-0.45479164000000577,2.5899186000000007
9.560198000000035,-0.18670394333333906,2.2611920333333337
10.852763500000036,0.0813837533333276,1.9324654666666667
12.145329000000034,0.3494714499999943,1.6037388999999997
12.145329000000034,0.3494714499999943,1.6037388999999997
11.15914933333337,0.9271365666666611,2.3633206666666666
10.172969666666704,1.504801683333328,3.1229024333333335
9.18679000000004,2.0824667999999944,3.8824842000000004
9.18679000000004,2.082466799999994,3.8824842000000004
8.733594433333373,1.7058674666666604,3.6399286666666666
8.280398866666706,1.329268133333327,3.3973731333333332
7.827203300000039,0.9526687999999935,3.1548175999999994
7.827203300000039,0.9526687999999935,3.1548175999999994
8.191036533333373,0.9367111799999935,2.9920500666666663
8.554869766666705,0.9207535599999935,2.8292825333333336
8.918703000000038,0.9047959399999935,2.6665150000000004
8.918703000000038,0.9047959399999935,2.6665150000000004
9.193173666666704,0.461174643333327,2.5707694
9.46764433333337,0.017553346666660308,2.4750238
9.742115000000036,-0.42606795000000636,2.3792782
9.742115000000036,-0.42606795000000636,2.3792782
10.125097666666704,-0.8441571000000062,2.3090648
10.508080333333373,-1.262246250000006,2.2388513999999997
10.89106300000004,-1.680335400000006,2.1686379999999996
11.171916500000039,-1.8016131666666728,1.9388485333333332
11.452770000000038,-1.9228909333333395,1.7090590666666667
11.733623500000038,-2.0441687000000064,1.4792696000000003
11.733623500000038,-2.044168700000006,1.4792696000000003
11.733623500000038,-2.044168700000006,1.4792696000000003
12.981508000000039,-2.436725700000006,1.1824582333333336
14.229392500000039,-2.829282700000006,0.8856468666666668
15.477277000000038,-3.221839700000006,0.5888355000000002
14.45918200000004,-3.2505633333333392,0.24095978666666681
13.441087000000039,-3.2792869666666724,-0.10691592666666651
12.422992000000038,-3.308010600000005,-0.45479163999999983
12.422992000000038,-3.308010600000005,-0.45479163999999983
12.86980500000004,-3.1452430666666724,-0.24734282333333316
13.316618000000041,-2.9824755333333393,-0.039894006666666516
13.763431000000041,-2.819708000000006,0.16755481000000017
13.763431000000045,-2.819708000000006,0.16755481000000017
13.022998000000044,-2.2994902333333394,0.0367024833333335
12.282565000000043,-1.7792724666666728,-0.09414984333333316
11.542132000000043,-1.259054700000006,-0.22500216999999986
11.542132000000043,-1.259054700000006,-0.22500216999999986
10.900636666666708,-1.115436300000006,-0.16755480666666653
10.259141333333375,-0.9718179000000061,-0.11010744333333318
9.617646000000041,-0.8281995000000061,-0.05266007999999985
9.617646000000041,-0.8281995000000061,-0.05266007999999985
9.014448666666707,-1.0643719666666727,-0.15478871999999985
8.411251333333373,-1.3005444333333394,-0.2569173599999998
7.8080540000000385,-1.536716900000006,-0.3590459999999999
7.8080540000000385,-1.536716900000006,-0.3590459999999999
7.715499900000039,-1.5335254000000058,-0.4643661666666665
7.622945800000039,-1.5303339000000058,-0.5696863333333332
7.530391700000039,-1.5271424000000058,-0.6750065
7.530391700000039,-1.5271424000000058,-0.6750065
8.197419466666705,-1.6643777666666724,-0.5537287333333333
8.864447233333374,-1.801613133333339,-0.43245096666666666
9.531475000000041,-1.9388485000000057,-0.3111732
10.211268666666706,-1.8111877000000058,-0.13244807666666666
10.891062333333373,-1.683526900000006,0.046277046666666655
11.57085600000004,-1.5558661000000062,0.22500217
11.57085600000004,-1.5558661000000062,0.22500217
12.464481666666707,-1.4569289666666727,0.09734136333333332
13.358107333333372,-1.3579918333333394,-0.030319443333333345
14.251733000000037,-1.259054700000006,-0.15798025000000002
14.251733000000035,-1.259054700000006,-0.15798025
12.614483333333368,-1.070755010000006,0.036702483333333334
10.9772336666667,-0.8824553200000059,0.23138521666666664
9.339984000000035,-0.6941556300000059,0.42606795
9.339984000000035,-0.6941556300000059,0.42606795
9.7325406666667,-0.9111789866666727,0.39096121999999994
10.125097333333366,-1.1282023433333395,0.35585448999999997
10.517654000000034,-1.3452257000000063,0.32074775999999994
10.517654000000034,-1.3452257000000063,0.32074775999999994
10.565527000000033,-1.4250137000000063,0.9526687733333333
10.613400000000034,-1.5048017000000062,1.5845897866666665
10.661273000000035,-1.5845897000000064,2.2165108
10.661273000000035,-1.5845897000000064,2.2165108
10.163396000000034,-1.3930985000000067,2.1782125333333333
9.665519000000034,-1.2016073000000067,2.1399142666666666
9.167642000000034,-1.0101161000000067,2.101616
9.167642000000034,-1.0101161000000065,2.101616
9.5538156666667,-1.300544466666673,2.2228937666666666
9.939989333333367,-1.5909728333333397,2.344171533333333
10.326163000000035,-1.8814012000000062,2.4654492999999995
10.326163000000035,-1.8814012000000062,2.4654492999999995
10.5687186666667,-1.9069333333333398,2.8388571666666667
10.811274333333365,-1.9324654666666732,3.2122650333333334
11.053830000000032,-1.9579976000000068,3.5856729000000005
11.053830000000032,-1.9579976000000068,3.5856729000000005
10.954893000000032,-2.18459553333334,3.394181666666667
10.855956000000033,-2.411193466666673,3.2026904333333337
10.757019000000033,-2.637791400000006,3.0111992
10.757019000000033,-2.637791400000006,3.0111992
11.532558333333364,-2.7654522666666725,2.9569434
12.308097666666697,-2.89311313333334,2.9026876
13.08363700000003,-3.020774000000007,2.8484318
13.08363700000003,-3.020774000000008,2.8484318
13.361299333333363,-2.9441774666666745,2.6728982
13.638961666666697,-2.867580933333341,2.4973645999999996
13.916624000000033,-2.7909844000000077,2.3218309999999995
13.916624000000033,-2.7909844000000077,2.3218309999999995
12.461290666666699,-2.4909815000000077,1.8494859799999996
11.005957333333365,-2.1909786000000073,1.3771409599999995
9.550624000000033,-1.8909757000000071,0.9047959399999995
10.418717333333367,-2.037785600000007,0.7579860166666661
11.286810666666701,-2.184595500000007,0.6111760933333327
12.154904000000036,-2.3314054000000066,0.4643661699999993
12.154904000000036,-2.3314054000000066,0.4643661699999993
11.8453266666667,-2.136722666666673,0.48032377999999937
11.535749333333365,-1.94203993333334,0.49628138999999943
11.226172000000032,-1.7473572000000068,0.5122389999999996
11.226172000000032,-1.7473572000000068,0.5122389999999996
10.297439666666698,-1.6196964333333401,0.2569173799999995
9.368707333333363,-1.4920356666666734,0.001595759999999502
8.43997500000003,-1.3643749000000067,-0.2537258600000005
8.439975000000029,-1.3643749000000067,-0.2537258600000005
8.101673900000028,-1.5111848333333402,-0.40053578333333384
7.763372800000028,-1.6579947666666737,-0.5473457066666672
7.425071700000029,-1.8048047000000071,-0.6941556300000005
7.425071700000029,-1.8048047000000071,-0.6941556300000005
8.270824466666694,-1.7601234000000072,-0.5920269866666672
9.116577233333361,-1.715442100000007,-0.48989834333333376
9.962330000000026,-1.6707608000000072,-0.38776970000000044
9.962330000000025,-1.6707608000000072,-0.38776970000000044
10.827232000000025,-1.2654377466666737,-0.3143647366666671
11.692134000000026,-0.8601146933333403,-0.24095977333333374
12.557036000000027,-0.45479164000000694,-0.1675548100000004
12.55703600000003,-0.45479164000000694,-0.1675548100000004
12.984699666666694,-0.36223755000000696,-0.5409626733333338
13.41236333333336,-0.2696834600000069,-0.9143705366666671
13.840027000000026,-0.17712937000000695,-1.2877784000000008
13.840027000000026,-0.17712937000000695,-1.2877784000000008
12.971933333333359,-0.3494714566666736,-0.630325233333334
12.103839666666692,-0.5218135433333403,0.02712793333333267
11.235746000000026,-0.694155630000007,0.6845810999999994
11.235746000000026,-0.694155630000007,0.6845810999999994
10.45701533333336,-0.46436618000000696,0.4324509999999994
9.678284666666693,-0.23457673000000692,0.18032089999999945
8.899554000000029,-0.0047872800000069065,-0.07180920000000053
8.899554000000029,-0.0047872800000069065,-0.07180920000000053
9.30806833333336,-0.24734282000000696,0.42925946666666603
9.716582666666694,-0.489898360000007,0.9303281333333326
10.125097000000027,-0.732453900000007,1.431396799999999
9.52509133333336,-0.6239422066666737,1.5271424333333323
8.925085666666693,-0.5154305133333403,1.6228880666666656
8.325080000000026,-0.40691882000000695,1.718633699999999
8.325080000000028,-0.40691882000000695,1.718633699999999
8.325080000000028,-0.40691882000000695,1.718633699999999
8.436783333333361,-0.3686205800000069,1.7920386333333322
8.548486666666696,-0.3303223400000069,1.8654435666666656
8.660190000000028,-0.29202410000000684,1.9388484999999989
8.787850666666694,-0.5090474666666736,1.999487399999999
8.915511333333361,-0.7260708333333402,2.060126299999999
9.043172000000027,-0.943094200000007,2.120765199999999
9.043172000000027,-0.943094200000007,2.120765199999999
9.617645666666695,-1.389907000000007,2.1941701333333326
10.19211933333336,-1.8367198000000071,2.2675750666666663
10.766593000000029,-2.283532600000007,2.3409799999999996
10.766593000000029,-2.283532600000007,2.34098
11.551707000000029,-2.3505545333333404,2.4175764999999996
12.336821000000029,-2.417576466666674,2.4941729999999995
13.121935000000029,-2.4845984000000074,2.570769499999999
13.121935000000029,-2.484598400000008,2.5707694999999986
13.884708333333363,-3.0558806000000076,2.6984302666666657
14.647481666666694,-3.627162800000008,2.826091033333332
15.410255000000028,-4.1984450000000075,2.953751799999998
15.410255000000028,-4.1984450000000075,2.953751799999998
13.284702666666695,-3.9207826666666747,2.7526860999999982
11.15915033333336,-3.6431203333333415,2.5516203999999982
9.033598000000026,-3.3654580000000087,2.3505546999999987
9.033598000000026,-3.3654580000000087,2.3505546999999987
9.54424133333336,-2.851623233333342,2.0856584999999987
10.054884666666695,-2.3377884666666753,1.8207622999999984
10.565528000000029,-1.8239537000000088,1.5558660999999983
10.377228000000029,-1.820762200000009,1.383523999999998
10.188928000000027,-1.8175707000000092,1.211181899999998
10.000628000000027,-1.8143792000000094,1.0388397999999979
10.000628000000027,-1.8143792000000094,1.0388397999999979
9.58892233333336,-1.699484466666676,0.7962842666666644
9.177216666666693,-1.5845897333333425,0.5537287333333311
8.765511000000025,-1.4696950000000089,0.31117319999999765
8.765511000000023,-1.4696950000000089,0.31117319999999765
8.641041333333359,-1.6356540666666757,0.20744879999999766
8.516571666666694,-1.8016131333333425,0.10372439999999766
8.392102000000028,-1.9675722000000093,0.0
8.39210200000003,-1.9675722000000093,0.0
8.867638333333362,-1.9452315333333425,-0.097341366666669
9.343174666666696,-1.922890866666676,-0.19468273333333566
9.818711000000029,-1.9005502000000094,-0.29202410000000234
9.818711000000029,-1.9005502000000096,-0.2920241000000024
10.329354333333363,-1.59416428000001,-0.10053288666666904
10.839997666666697,-1.2877783600000101,0.0909583266666643
11.350641000000032,-0.9813924400000101,0.2824495399999976
11.350641000000033,-0.9813924400000101,0.2824495399999976
11.985753666666701,-0.5984100233333435,-0.41330187333333573
12.620866333333367,-0.2154276066666768,-1.1090532866666691
13.255979000000034,0.16755480999998987,-1.8048047000000025
13.255979000000034,0.16755480999998987,-1.8048047000000025
13.540024333333369,-0.24415129333334348,-1.3165021000000026
13.824069666666702,-0.6558573966666769,-0.8281995000000025
14.108115000000035,-1.0675635000000103,-0.3398969000000025
12.292140000000037,-0.3271308000000101,-0.5664948000000025
10.476165000000037,0.41330189999999,-0.7930927000000025
8.660190000000037,1.1537345999999902,-1.0196906000000026
8.660190000000037,1.1537345999999902,-1.0196906000000026
8.660190000000037,1.1537345999999902,-1.0196906000000026
9.365516000000037,0.46117470999999005,-0.44521701000000263
10.070842000000036,-0.23138518000001004,0.12925657999999732
10.776168000000036,-0.92394507000001,0.7037301699999974
9.595305533333368,-0.7196877800000099,0.9175620133333308
8.414443066666701,-0.5154304900000098,1.1313938566666641
7.233580600000034,-0.3111732000000098,1.3452256999999976
7.233580600000034,-0.3111732000000098,1.3452256999999976
7.964438733333368,-0.6462828333333431,1.2973528999999975
8.6952968666667,-0.9813924666666765,1.2494800999999975
9.426155000000033,-1.31650210000001,1.2016072999999974
9.426155000000032,-1.31650210000001,1.2016072999999974
9.272962000000033,-1.4792696333333433,1.3930985333333306
9.119769000000032,-1.6420371666666764,1.584589766666664
8.96657600000003,-1.8048047000000098,1.7760809999999976
8.966576000000028,-1.8048047000000098,1.7760809999999978
9.346366666666695,-1.8143792333333433,2.2101276666666645
9.726157333333363,-1.8239537666666765,2.6441743333333316
10.10594800000003,-1.83352830000001,3.0782209999999988
10.105948000000032,-1.83352830000001,3.078220999999999
10.808082666666698,-1.9803382666666767,2.9058789999999988
11.510217333333363,-2.127148233333343,2.7335369999999983
12.21235200000003,-2.2739582000000094,2.5611949999999983
12.21235200000003,-2.2739582000000094,2.5611949999999983
13.351724666666698,-2.7941759333333436,2.7111963999999986
14.491097333333366,-3.314393666666677,2.861197799999999
15.630470000000036,-3.8346114000000107,3.0111991999999987
15.630470000000036,-3.8346114000000107,3.0111991999999987
13.721940666666702,-3.247371733333344,2.570769433333332
11.813411333333368,-2.660132066666678,2.1303396666666656
9.904882000000034,-2.0728924000000113,1.6899098999999989
10.1889276666667,-1.7665064666666777,1.5877812666666653
10.472973333333366,-1.4601205333333442,1.4856526333333318
10.757019000000033,-1.1537346000000108,1.3835239999999984
10.757019000000033,-1.1537346000000108,1.3835239999999984
10.6389326666667,-1.140968500000011,1.4186307333333315
10.520846333333367,-1.1282024000000108,1.4537374666666647
10.402760000000034,-1.1154363000000107,1.488844199999998
10.402760000000034,-1.1154363000000107,1.488844199999998
9.825094833333367,-1.0899041333333441,0.8186249333333313
9.247429666666699,-1.0643719666666775,0.14840566666666466
8.669764500000033,-1.0388398000000107,-0.521813600000002
8.669764500000033,-1.0388398000000107,-0.5218136000000021
8.599551333333366,-1.1505430000000108,-0.7260708666666688
8.5293381666667,-1.2622462000000108,-0.9303281333333354
8.459125000000034,-1.3739494000000108,-1.1345854000000022
8.459125000000034,-1.3739494000000108,-1.1345854000000022
8.615509333333366,-1.2335225333333442,-1.3101190000000023
8.7718936666667,-1.0930956666666773,-1.4856526000000025
8.928278000000033,-0.9526688000000106,-1.6611862000000028
8.928278000000033,-0.9526688000000106,-1.6611862000000028
10.04531000000003,-0.6909641366666772,-1.3356511666666693
11.16234200000003,-0.42925947333334386,-1.0101161333333357
12.27937400000003,-0.1675548100000105,-0.6845811000000023
13.02299800000003,0.22181065999998953,-1.661186266666669
13.766622000000032,0.6111761299999895,-2.637791433333336
14.510246000000032,1.0005415999999896,-3.6143966000000027
14.510246000000032,1.0005415999999894,-3.6143966000000027
14.312372000000032,0.534579646666656,-2.7941759333333365
14.114498000000031,0.06861769333332261,-1.9739552666666695
13.916624000000029,-0.3973442600000108,-1.1537346000000028
13.916624000000029,-0.3973442600000108,-1.1537346000000028
12.707038000000031,-0.10372440666667744,-0.9558603200000029
11.497452000000031,0.1898954466666559,-0.7579860400000028
10.287866000000031,0.48351529999998927,-0.5601117600000027
10.287866000000031,0.48351529999998927,-0.5601117600000028
10.032544000000032,0.177129366666656,-0.27606647333333617
9.777222000000032,-0.12925656666667734,0.007978813333330467
9.521900000000032,-0.43564250000001065,0.2920240999999971
9.521900000000032,-0.43564250000001065,0.2920240999999971
8.874021566666698,-0.6079846000000108,0.7133047666666639
8.226143133333364,-0.7803267000000106,1.1345854333333305
7.578264700000029,-0.9526688000000106,1.5558660999999974
7.578264700000029,-0.9526688000000106,1.5558660999999974
7.795288133333362,-1.0324568000000107,1.7345912333333304
8.012311566666696,-1.112244800000011,1.9133163666666635
8.22933500000003,-1.1920328000000109,2.0920414999999966
8.22933500000003,-1.1920328000000109,2.0920414999999966
8.70168000000003,-1.102670223333344,2.149488866666663
9.174025000000029,-1.0133076466666773,2.2069362333333298
9.646370000000028,-0.9239450700000105,2.2643835999999964
10.21765200000003,-1.1154362800000104,2.462257799999996
10.788934000000031,-1.3069274900000103,2.660131999999996
11.360216000000031,-1.4984187000000102,2.858006199999996
11.360216000000031,-1.4984187000000102,2.858006199999996
11.360216000000031,-1.4984187000000102,2.858006199999996
11.5676646666667,-1.7186335666666768,2.567577899999996
11.775113333333366,-1.9388484333333433,2.2771495999999956
11.982562000000032,-2.15906330000001,1.986721299999995
13.405980333333366,-2.67289810000001,2.155871866666662
14.829398666666698,-3.18673290000001,2.325022433333328
16.252817000000032,-3.700567700000011,2.494172999999995
16.25281700000003,-3.700567700000011,2.494172999999995
14.245350666666695,-3.0718382000000104,2.4654493333333285
12.237884333333362,-2.44310870000001,2.436725666666662
10.230418000000029,-1.8143792000000094,2.408001999999995
10.230418000000029,-1.8143792000000094,2.408001999999995
10.01977733333336,-2.4303426000000092,1.7920385866666617
9.809136666666694,-3.0463060000000097,1.1760751733333283
9.598496000000026,-3.66226940000001,0.560111759999995
9.598496000000024,-3.66226940000001,0.560111759999995
9.83466866666669,-3.37822410000001,0.748411439999995
10.070841333333357,-3.09417880000001,0.9367111199999951
10.307014000000022,-2.81013350000001,1.1250107999999952
10.307014000000022,-2.81013350000001,1.1250107999999954
9.422963000000022,-2.5165136666666763,0.837774006666662
8.538912000000023,-2.2228938333333432,0.5505372133333287
7.654861000000023,-1.92927400000001,0.26330041999999537
7.654861000000023,-1.9292740000000101,0.26330041999999537
7.852735333333356,-2.0665093333333435,0.07819224666666207
8.05060966666669,-2.2037446666666773,-0.10691592666667127
8.248484000000023,-2.3409800000000107,-0.2920241000000046
8.248484000000024,-2.3409800000000107,-0.2920241000000046
8.941043666666692,-2.0824669000000107,-0.5026644233333379
9.63360333333336,-1.8239538000000106,-0.7133047466666712
10.326163000000028,-1.5654407000000106,-0.9239450700000047
10.852764000000027,-1.4154392333333439,-0.9271366000000046
11.379365000000027,-1.2654377666666772,-0.9303281300000045
11.905966000000026,-1.1154363000000105,-0.9335196600000044
11.905966000000026,-1.1154363000000105,-0.9335196600000044
12.151713000000028,-0.5505372333333438,-1.479269606666671
12.397460000000025,0.014361833333322934,-2.0250195533333377
12.643207000000025,0.5792608999999896,-2.5707695000000044
12.643207000000023,0.5792608999999896,-2.570769500000005
13.16980766666669,0.004787266666656224,-2.0824669333333383
13.696408333333357,-0.569686366666677,-1.5941643666666716
14.223009000000024,-1.1441600000000105,-1.1058618000000051
14.223009000000024,-1.1441600000000103,-1.1058618000000053
12.774059000000024,-0.2026615333333437,-0.8473486433333387
11.325109000000026,0.738836933333323,-0.588835486666672
9.876159000000028,1.6803353999999897,-0.3303223300000053
9.876159000000028,1.6803353999999897,-0.3303223300000053
10.527229333333361,0.8984129333333231,-0.24415128666667196
11.178299666666694,0.11649046666665641,-0.15798024333333863
11.829370000000026,-0.6654320000000102,-0.0718092000000053
11.829370000000026,-0.6654320000000102,-0.0718092000000053
10.642124166666692,-0.5856439833333434,0.4547915999999946
9.454878333333358,-0.5058559666666769,0.9813923999999946
8.267632500000024,-0.4260679500000102,1.5079931999999945
8.178270000000026,-0.8856468666666769,1.7409741666666614
8.088907500000026,-1.3452257833333434,1.9739551333333283
7.999545000000026,-1.80480470000001,2.2069360999999947
7.999545000000026,-1.80480470000001,2.2069360999999947
7.999545000000026,-1.80480470000001,2.2069360999999947
8.465507000000025,-1.4665035533333433,2.577152466666661
8.931469000000027,-1.1282024066666765,2.947368833333328
9.397431000000026,-0.7899012600000098,3.3175851999999946
9.786796666666694,-0.8409655733333431,3.3654579999999945
10.17616233333336,-0.8920298866666764,3.413330799999995
10.565528000000029,-0.9430942000000097,3.4612035999999953
10.565528000000029,-0.9430942000000097,3.4612035999999953
10.734678333333363,-1.5207594000000098,3.413330799999995
10.903828666666698,-2.0984246000000097,3.3654579999999945
11.072979000000032,-2.6760898000000104,3.317585199999994
11.072979000000032,-2.6760898000000104,3.317585199999994
11.829369333333366,-2.8292827000000105,3.167583799999994
12.585759666666698,-2.98247560000001,3.0175823999999936
13.342150000000032,-3.13566850000001,2.8675809999999937
13.342150000000032,-3.13566850000001,2.8675809999999937
13.313426333333362,-3.0686465666666773,2.7367286666666604
13.284702666666695,-3.0016246333333445,2.605876333333327
13.255979000000025,-2.9346027000000117,2.4750239999999937
13.255979000000025,-2.934602700000012,2.4750239999999932
11.925115333333357,-2.577152466666679,1.8239538666666597
10.59425166666669,-2.219702233333346,1.1728837333333262
9.263388000000024,-1.8622520000000125,0.5218135999999927
9.263388000000026,-1.8622520000000125,0.5218135999999926
10.099566000000026,-2.066509333333346,0.2984071699999926
10.935744000000026,-2.2707666666666793,0.07500073999999261
11.771922000000025,-2.4750240000000123,-0.1484056900000074
11.771922000000023,-2.4750240000000123,-0.1484056900000074
11.12085166666669,-2.4239596666666787,-0.4803237933333408
10.469781333333357,-2.3728953333333456,-0.812241896666674
9.818711000000024,-2.3218310000000124,-1.1441600000000072
9.381473000000023,-2.436725666666679,-1.2782038333333405
8.944235000000022,-2.551620333333346,-1.4122476666666737
8.506997000000021,-2.666515000000013,-1.5462915000000068
8.506997000000021,-2.666515000000013,-1.5462915000000066
8.264441433333355,-2.6250252666666793,-1.4824611000000065
8.021885866666688,-2.5835355333333463,-1.4186307000000067
7.779330300000022,-2.542045800000013,-1.3548003000000068
7.779330300000022,-2.542045800000013,-1.3548003000000068
8.270824533333355,-2.5133221000000128,-1.32607663333334
8.76231876666669,-2.484598400000013,-1.2973529666666732
9.253813000000024,-2.455874700000013,-1.2686293000000066
9.253813000000024,-2.455874700000013,-1.2686293000000066
9.87615916666669,-2.4973644666666797,-1.2335225666666734
10.498505333333357,-2.538854233333346,-1.1984158333333401
11.120851500000024,-2.5803440000000126,-1.163309100000007
11.120851500000024,-2.5803440000000126,-1.163309100000007
11.079362000000025,-1.9739551800000126,-1.147351500000007
11.037872500000026,-1.3675663600000127,-1.1313939000000068
10.996383000000025,-0.7611775400000127,-1.1154363000000067
10.996383000000025,-0.7611775400000127,-1.1154363000000067
10.951701666666692,-0.4196848866666793,-0.6335167566666733
10.907020333333357,-0.07819223333334595,-0.15159721333333995
10.862339000000022,0.2633004199999874,0.3303223299999934
10.862339000000022,0.2633004199999874,0.3303223299999934
10.211268666666689,0.7835181799999873,0.6781980199999934
9.560198333333354,1.303735939999987,1.0260737099999935
8.909128000000019,1.823953699999987,1.3739493999999937
9.831477333333353,1.3867154666666537,1.3739493999999937
10.753826666666688,0.9494772333333206,1.3739493999999937
11.676176000000021,0.5122389999999873,1.3739493999999937
11.676176000000021,0.5122389999999872,1.3739493999999937
10.81446566666669,0.7516030333333205,1.8016130999999938
9.952755333333357,0.9909670666666538,2.2292767999999943
9.091045000000024,1.2303310999999868,2.6569404999999944
9.091045000000024,1.2303310999999868,2.6569404999999944
8.89955366666669,1.1952243333333203,2.7335369999999934
8.708062333333357,1.1601175666666537,2.8101334999999934
8.516571000000022,1.125010799999987,2.886729999999993
8.516571000000022,1.125010799999987,2.886729999999993
8.574018333333356,0.5728778333333203,3.0175822999999924
8.63146566666669,0.02074486666665365,3.1484345999999923
8.688913000000023,-0.531388100000013,3.279286899999992
8.688913000000023,-0.531388100000013,3.279286899999992
8.688913000000023,-0.531388100000013,3.279286899999992
8.995299000000024,-0.8122418666666796,3.3526919333333254
9.301685000000026,-1.0930956333333464,3.426096966666659
9.608071000000026,-1.373949400000013,3.4995019999999926
9.774030000000025,-1.3037359666666797,3.3463089999999927
9.939989000000024,-1.2335225333333464,3.1931159999999927
10.105948000000021,-1.1633091000000133,3.039922999999993
10.105948000000021,-1.1633091000000133,3.039922999999993
10.105948000000021,-1.1633091000000133,3.039922999999993
10.105948000000021,-1.1633091000000133,3.039922999999993
10.105948000000021,-1.1633091000000133,3.039922999999993
10.105948000000021,-1.1633091000000133,3.039922999999993
11.130426000000023,-2.098424500000013,2.337788553333326
12.154904000000025,-3.0335399000000134,1.6356541066666594
13.179382000000027,-3.9686553000000138,0.9335196599999929
13.064487666666693,-3.7899301666666805,0.4611746733333262
12.94959333333336,-3.611205033333347,-0.011170313333340473
12.834699000000024,-3.4324799000000144,-0.48351530000000714
12.834699000000024,-3.4324799000000144,-0.48351530000000703
12.691080333333359,-3.2633293666666803,-0.33989689333334033
12.547461666666692,-3.094178833333347,-0.1962784866666736
12.403843000000025,-2.925028300000014,-0.05266008000000696
12.403843000000025,-2.925028300000014,-0.05266008000000696
11.685751000000025,-2.4526832666666807,-0.16436328666667363
10.967659000000024,-1.9803382333333472,-0.27606649333334027
10.249567000000022,-1.5079932000000138,-0.38776970000000704
10.249567000000022,-1.5079932000000138,-0.38776970000000704
10.249567000000022,-1.5079932000000138,-0.38776970000000704
9.783605000000023,-1.5367169333333475,-0.3750036166666737
9.317643000000023,-1.565440666666681,-0.36223753333334036
8.851681000000022,-1.5941644000000146,-0.34947145000000707
8.854872666666688,-1.760123433333348,-0.48989834333334037
8.858064333333354,-1.9260824666666814,-0.6303252366666736
8.86125600000002,-2.0920415000000148,-0.7707521300000068
8.86125600000002,-2.0920415000000148,-0.7707521300000068
8.979342000000022,-2.0282110666666813,-0.6430913200000067
9.097428000000022,-1.9643806333333476,-0.5154305100000066
9.215514000000022,-1.9005502000000138,-0.38776970000000666
9.215514000000022,-1.9005502000000138,-0.38776970000000666
9.215514000000022,-1.9005502000000138,-0.38776970000000666
9.352749333333357,-1.5782066866666806,-0.2792580146666734
9.489984666666691,-1.2558631733333472,-0.17074632933334002
9.627220000000024,-0.9335196600000141,-0.0622346440000067
10.326163333333357,-0.8760722866666807,0.039894003999993294
11.025106666666689,-0.8186249133333474,0.14202265199999328
11.724050000000021,-0.7611775400000141,0.2441512999999933
11.724050000000021,-0.7611775400000141,0.2441512999999933
11.724050000000021,-0.7611775400000141,0.2441512999999933
11.51340966666669,-0.5920269800000141,0.7611775333333267
11.302769333333357,-0.42287642000001413,1.27820376666666
11.092129000000023,-0.2537258600000141,1.795229999999993
11.092129000000023,-0.2537258600000141,1.795229999999993
10.878297000000023,-0.13563961333334745,1.5750151333333262
10.664465000000021,-0.01755336666668078,1.3548002666666594
10.45063300000002,0.10053287999998589,1.1345853999999926
10.942127000000019,-0.05585160333334743,1.913316333333326
11.433621000000016,-0.21223608666668078,2.692047266666659
11.925115000000014,-0.3686205700000141,3.4707781999999923
11.925115000000014,-0.3686205700000141,3.4707781999999923
11.925115000000014,-0.3686205700000141,3.4707781999999923
11.149575333333347,-0.33032233333334743,3.4580120999999924
10.374035666666684,-0.2920240966666808,3.4452459999999925
9.598496000000019,-0.2537258600000141,3.432479899999993
9.59849600000002,-0.2537258600000141,3.432479899999993
9.572964000000018,-0.42606795000001413,3.317585166666659
9.547432000000018,-0.5984100400000141,3.2026904333333257
9.521900000000018,-0.7707521300000141,3.0877956999999925
9.521900000000016,-0.7707521300000141,3.0877956999999925
9.595305000000016,-0.8920298866666808,3.049497466666659
9.668710000000013,-1.0133076433333474,3.0111992333333255
9.742115000000013,-1.134585400000014,2.972900999999992
9.742115000000013,-1.134585400000014,2.972900999999992
9.997436833333346,-1.4665034666666807,3.1197109333333253
10.25275866666668,-1.7984215333333475,3.2665208666666588
10.508080500000013,-2.1303396000000143,3.4133307999999922
10.508080500000013,-2.1303396000000143,3.4133307999999922
11.168725000000014,-2.564386366666681,2.864389333333326
11.829369500000015,-2.998433133333348,2.315447866666659
12.490014000000016,-3.432479900000015,1.7665063999999926
12.490014000000016,-3.432479900000015,1.7665063999999926
13.504917333333347,-3.703759066666682,1.673952333333326
14.51982066666668,-3.975038233333349,1.5813982666666593
15.534724000000011,-4.246317400000017,1.4888441999999926
15.534724000000011,-4.246317400000017,1.4888441999999926
13.945347000000012,-3.5026932666666823,1.2239480099999926
12.355970000000013,-2.759069133333348,0.9590518199999926
10.766593000000015,-2.0154450000000144,0.6941556299999926
10.766593000000015,-2.0154450000000144,0.6941556299999926
11.886816666666682,-2.2037446666666813,0.518622023333326
13.00704033333335,-2.3920443333333483,0.34308841666665923
14.127264000000018,-2.580344000000015,0.16755480999999253
14.127264000000018,-2.580344000000015,0.16755480999999253
13.323001000000017,-1.980338220000015,-0.03670248333334079
12.518738000000015,-1.380332440000015,-0.2409597766666741
11.714475000000014,-0.7803266600000148,-0.4452170700000074
11.714475000000014,-0.7803266600000148,-0.4452170700000074
10.910211666666681,-0.6367082566666816,-0.43883403000000737
10.105948333333346,-0.4930898533333483,-0.43245099000000736
9.301685000000013,-0.34947145000001506,-0.42606795000000736
9.301685000000013,-0.34947145000001506,-0.42606795000000736
8.877213000000014,-0.8186249333333485,-0.35904602333334074
8.452741000000016,-1.287778416666682,-0.29202409666667406
8.028269000000016,-1.7569319000000154,-0.2250021700000074
8.028269000000016,-1.7569319000000156,-0.2250021700000074
8.108056833333348,-1.7218251666666824,-0.29840713666667407
8.18784466666668,-1.6867184333333494,-0.37181210333334075
8.267632500000012,-1.6516117000000161,-0.4452170700000074
8.267632500000012,-1.6516117000000161,-0.4452170700000074
8.842106333333346,-1.415439200000016,-0.43564251333334075
9.416580166666678,-1.179266700000016,-0.4260679566666741
9.991054000000013,-0.943094200000016,-0.4164934000000074
9.991054000000013,-0.943094200000016,-0.4164934000000074
10.728295000000012,-0.8218164333333493,-0.6558574000000074
11.465536000000013,-0.7005386666666826,-0.8952214000000073
12.202777000000012,-0.579260900000016,-1.134585400000007
12.202777000000012,-0.579260900000016,-1.134585400000007
12.809166000000012,-0.9845839333333494,-0.7803266666666738
13.415555000000012,-1.3899069666666826,-0.42606793333334053
14.021944000000012,-1.7952300000000159,-0.07180920000000716
14.021944000000012,-1.7952300000000159,-0.07180920000000716
12.78682566666668,-1.1601175186666826,-0.08138376000000715
11.551707333333347,-0.5250050373333491,-0.09095832000000714
10.316589000000015,0.11010744399998422,-0.10053288000000714
10.316589000000015,0.11010744399998422,-0.10053288000000714
11.229363833333347,-0.3622375040000158,0.0877668033333262
12.14213866666668,-0.8345824520000158,0.27606648666665956
13.054913500000012,-1.3069274000000157,0.46436616999999286
13.054913500000012,-1.3069274000000155,0.464366169999993
12.23469266666668,-1.5558659666666823,0.8984129133333263
11.414471833333346,-1.804804533333349,1.3324596566666596
10.594251000000014,-2.0537431000000157,1.7665063999999928
10.594251000000014,-2.0537431000000157,1.7665063999999928
10.664464666666682,-2.1431057333333485,1.9611891666666599
10.734678333333349,-2.232468366666682,2.155871933333327
10.804892000000017,-2.321831000000015,2.350554699999994
10.804892000000017,-2.321831000000015,2.3505546999999942
10.804892000000017,-2.321831000000015,2.3505546999999942
10.709146000000016,-2.3728953333333487,2.5899186999999944
10.613400000000015,-2.4239596666666827,2.8292826999999945
10.517654000000014,-2.4750240000000168,3.0686466999999946
10.476164666666682,-2.8292826666666833,3.3143936999999943
10.434675333333347,-3.1835413333333498,3.560140699999994
10.393186000000014,-3.5378000000000163,3.8058876999999938
10.393186000000014,-3.5378000000000163,3.8058876999999938
10.76659366666668,-3.6686523333333496,3.8409944666666607
11.140001333333345,-3.799504666666683,3.8761012333333276
11.51340900000001,-3.9303570000000163,3.9112079999999945
11.51340900000001,-3.9303570000000163,3.9112079999999945
12.410226000000009,-4.102699133333349,3.5760983333333276
13.307043000000007,-4.275041266666682,3.240988666666661
14.203860000000006,-4.447383400000015,2.9058789999999948
14.203860000000006,-4.447383400000015,2.9058789999999948
14.152796000000007,-4.121848333333349,2.6856641666666614
14.101732000000007,-3.7963132666666817,2.465449333333328
14.050668000000009,-3.4707782000000145,2.2452344999999947
14.050668000000009,-3.4707782000000145,2.2452344999999947
13.134701666666674,-3.1771583333333484,1.5462915633333278
12.21873533333334,-2.883538466666682,0.8473486266666611
11.302769000000005,-2.5899186000000154,0.1484056899999945
11.302769000000005,-2.5899186000000154,0.1484056899999945
12.065542000000006,-2.5803440666666817,0.1547887299999945
12.828315000000005,-2.570769533333348,0.1611717699999945
13.591088000000006,-2.5611950000000143,0.1675548099999945
13.591088000000006,-2.5611950000000143,0.16755480999999453
13.591088000000006,-2.5611950000000143,0.16755480999999453
12.317671666666675,-1.8686351000000148,-0.43564252666667214
11.044255333333341,-1.1760752000000145,-1.0388398633333389
9.77083900000001,-0.4835153000000146,-1.6420372000000059
9.13891800000001,-0.4005357766666813,-1.5877813333333393
8.506997000000007,-0.31755625333334797,-1.5335254666666727
7.875076000000007,-0.23457673000001467,-1.4792696000000063
7.875076000000007,-0.23457673000001467,-1.4792696000000063
8.095291000000008,-0.41649337333334796,-1.5239508666666728
8.315506000000008,-0.5984100166666813,-1.5686321333333393
8.53572100000001,-0.7803266600000146,-1.613313400000006
8.53572100000001,-0.7803266600000146,-1.613313400000006
8.77189333333334,-0.5696863366666812,-1.2750122666666728
9.008065666666674,-0.35904601333334796,-0.9367111333333394
9.244238000000008,-0.1484056900000146,-0.5984100000000062
9.244238000000008,-0.1484056900000146,-0.5984100000000062
10.322971666666676,-0.48351532666668134,-0.37500360000000627
11.401705333333345,-0.818624963333348,-0.1515972000000063
12.480439000000013,-1.1537346000000146,0.07180919999999373
12.480439000000013,-1.1537346000000148,0.07180919999999373
12.729377666666679,-1.0739465800000147,0.5313880999999937
12.978316333333344,-0.9941585600000149,0.9909669999999937
13.227255000000008,-0.9143705400000149,1.4505458999999936
13.227255000000008,-0.9143705400000149,1.4505458999999936
12.56980200000001,-1.268629260000015,1.8782095999999937
11.912349000000011,-1.622887980000015,2.3058732999999942
11.254896000000011,-1.9771467000000154,2.7335369999999943
11.254896000000011,-1.9771467000000154,2.7335369999999943
10.418717666666678,-1.8175707000000152,2.1877870333333274
9.582539333333344,-1.657994700000015,1.6420370666666606
8.74636100000001,-1.498418700000015,1.0962870999999936
8.74636100000001,-1.498418700000015,1.0962870999999936
9.033597666666678,-1.6835268333333484,1.737782733333327
9.320834333333345,-1.8686349666666817,2.3792783666666604
9.608071000000011,-2.053743100000015,3.020773999999994
9.608071000000011,-2.053743100000015,3.0207739999999945
8.516571333333344,-1.8335282666666817,2.915453733333328
7.425071666666677,-1.6133134333333483,2.8101334666666618
6.333572000000011,-1.393098600000015,2.7048131999999954
6.333572000000011,-1.393098600000015,2.7048131999999954
6.943152166666677,-1.4122477000000149,2.886729933333329
7.552732333333345,-1.4313968000000148,3.0686466666666625
8.162312500000011,-1.4505459000000147,3.250563399999996
8.162312500000013,-1.4505459000000147,3.250563399999996
8.743169000000014,-1.8590605333333479,2.972901133333329
9.324025500000014,-2.2675751666666812,2.6952388666666622
9.904882000000015,-2.6760898000000144,2.417576599999996
9.904882000000015,-2.6760898000000144,2.4175765999999954
10.67403866666668,-3.1548177666666817,2.5452373999999955
11.443195333333344,-3.633545733333348,2.6728981999999952
12.21235200000001,-4.1122737000000145,2.800558999999995
12.21235200000001,-4.1122737000000145,2.800558999999995
12.91767800000001,-3.927165500000015,2.647365999999995
13.623004000000009,-3.7420573000000155,2.494172999999995
14.328330000000008,-3.556949100000016,2.340979999999995
14.328330000000008,-3.556949100000016,2.340979999999995
13.150659000000006,-3.3143935666666824,2.4399171333333283
11.972988000000008,-3.0718380333333486,2.5388542666666614
10.79531700000001,-2.8292825000000152,2.6377913999999945
10.795317000000011,-2.8292825000000152,2.6377913999999945
10.795317000000011,-2.8292825000000152,2.6377913999999945
10.09956566666668,-2.7048132333333488,2.149488799999995
9.403814333333345,-2.5803439666666823,1.6611861999999953
8.708063000000012,-2.4558747000000163,1.1728835999999956
8.969767333333344,-2.395235866666683,1.3101189666666622
9.231471666666677,-2.3345970333333494,1.447354333333329
9.493176000000007,-2.2739582000000165,1.5845896999999958
9.493176000000007,-2.2739582000000165,1.5845896999999958
8.82295700000001,-2.0505517666666835,1.243097053333329
8.152738000000012,-1.82714533333335,0.9016044066666624
7.482519000000011,-1.6037389000000166,0.5601117599999957
7.482519000000011,-1.6037389000000166,0.5601117599999957
7.626137466666678,-1.6420371666666833,0.4196848799999957
7.769755933333344,-1.68033543333335,0.27925799999999573
7.91337440000001,-1.7186337000000167,0.13883111999999576
7.913374400000009,-1.7186337000000167,0.13883111999999576
8.669764600000008,-1.6165050333333502,0.07819223899999575
9.426154800000006,-1.5143763666666834,0.017553357999995755
10.182545000000005,-1.4122477000000169,-0.043085523000004254
10.182545000000005,-1.4122477000000169,-0.043085523000004254
10.619783333333338,-1.5654406333333502,0.08457528466666242
11.057021666666673,-1.7186335666666837,0.21223609233332907
11.49426000000001,-1.871826500000017,0.3398968999999958
11.494260000000011,-1.871826500000017,0.3398968999999958
11.771922333333345,-1.9548060666666836,0.2728749733333291
12.04958466666668,-2.03778563333335,0.20585304666666246
12.327247000000014,-2.1207652000000166,0.13883111999999578
12.327247000000014,-2.1207652000000166,0.13883111999999578
12.477248333333348,-2.0314026333333497,0.12606503999999583
12.62724966666668,-1.942040066666683,0.1132989599999958
12.777251000000014,-1.8526775000000162,0.10053287999999579
12.777251000000014,-1.8526775000000157,0.10053287999999579
11.41447166666668,-1.425013783333349,0.36862056666666243
10.051692333333348,-0.997350066666682,0.6367082533333291
8.688913000000014,-0.5696863500000154,0.9047959399999957
8.688913000000014,-0.5696863500000154,0.9047959399999957
9.45168666666668,-0.7675606000000154,0.7643690599999958
10.214460333333344,-0.9654348500000153,0.6239421799999958
10.97723400000001,-1.163309100000015,0.4835152999999958
10.97723400000001,-1.163309100000015,0.4835152999999958
9.927223766666676,-1.0739465333333482,0.7867097333333292
8.877213533333343,-0.9845839666666812,1.0899041666666625
7.827203300000009,-0.8952214000000147,1.3930985999999959
7.827203300000009,-0.8952214000000147,1.3930985999999959
7.6612442000000085,-0.821816433333348,1.597355833333329
7.495285100000007,-0.7484114666666812,1.8016130666666623
7.329326000000006,-0.6750065000000145,2.0058702999999958
7.329326000000006,-0.6750065000000145,2.0058702999999958
7.6867763333333405,-0.8186249333333478,1.8526773666666625
8.044226666666676,-0.9622433666666813,1.6994844333333294
8.40167700000001,-1.1058618000000147,1.5462914999999964
8.401677000000012,-1.1058618000000149,1.5462914999999964
9.292111000000013,-1.4377798666666817,1.910124799999996
10.182545000000012,-1.7696979333333485,2.2739580999999958
11.07297900000001,-2.1016160000000155,2.6377913999999953
11.072979000000009,-2.1016160000000155,2.6377913999999953
11.74319833333334,-2.532471233333349,2.842048733333329
12.41341766666667,-2.9633264666666825,3.0463060666666624
13.083637000000001,-3.3941817000000163,3.2505633999999954
13.083637000000001,-3.3941817000000163,3.250563399999995
13.881517000000002,-3.569715333333349,3.1133279999999943
14.679397000000003,-3.7452489666666815,2.976092599999994
15.477277000000006,-3.9207826000000146,2.838857199999994
15.477277000000006,-3.9207826000000146,2.838857199999994
13.195340000000007,-3.4899273000000144,2.5228966999999938
10.913403000000008,-3.0590720000000147,2.206936199999994
8.631466000000009,-2.6282167000000145,1.8909756999999943
8.631466000000009,-2.6282167000000145,1.8909756999999943
9.186790666666676,-2.806941866666681,1.680335366666661
9.742115333333341,-2.9856670333333475,1.4696950333333276
10.297440000000007,-3.1643922000000138,1.259054699999994
10.297440000000007,-3.1643922000000138,1.259054699999994
10.172970666666673,-2.7111963666666803,1.4345882999999942
10.048501333333341,-2.258000533333347,1.610121899999994
9.92403200000001,-1.8048047000000136,1.7856554999999938
9.92403200000001,-1.8048047000000136,1.7856554999999938
9.234663666666675,-1.4313968333333469,1.5973557999999939
8.54529533333334,-1.0579889666666802,1.409056099999994
7.855927000000007,-0.6845811000000136,1.220756399999994
7.855927000000007,-0.6845811000000136,1.2207563999999942
7.967630000000007,-0.9079875000000136,1.006924566666661
8.079333000000007,-1.1313939000000135,0.7930927333333279
8.19103600000001,-1.3548003000000135,0.5792608999999946
8.19103600000001,-1.3548003000000135,0.5792608999999946
8.666572666666676,-1.1473515000000136,0.5058559333333279
9.142109333333341,-0.9399027000000139,0.43245096666666116
9.617646000000006,-0.732453900000014,0.3590459999999944
9.617646000000006,-0.732453900000014,0.3590459999999944
10.36446166666667,-0.678198050000014,0.21542759999999447
11.111277333333335,-0.623942200000014,0.07180919999999447
11.858093000000002,-0.5696863500000139,-0.07180920000000553
11.858093000000002,-0.5696863500000139,-0.07180920000000553
12.355970333333337,-0.42606794000001397,-0.40053576666667223
12.853847666666672,-0.282449530000014,-0.7292623333333389
13.351725000000007,-0.13883112000001396,-1.0579889000000056
13.351725000000007,-0.13883112000001396,-1.0579889000000058
13.310235000000006,-0.4037273000000139,-1.0707549666666722
13.268745000000004,-0.6686234800000138,-1.083521033333339
13.227255000000005,-0.9335196600000139,-1.0962871000000056
13.227255000000005,-0.9335196600000139,-1.0962871000000054
11.61234566666667,-0.4611746733333472,-0.6781979833333387
9.997436333333335,0.011170313333319451,-0.260108866666672
8.382527000000001,0.4835152999999861,0.15798024999999472
8.382527,0.48351529999998605,0.15798024999999474
9.241046,0.23138520666665266,0.3015986666666614
10.099565000000002,-0.020744886666680656,0.44521708333332805
10.958084000000005,-0.272874980000014,0.5888354999999947
10.958084000000005,-0.272874980000014,0.5888354999999947
10.016585666666671,-0.129256570000014,0.9718178999999947
9.075087333333338,0.01436183999998599,1.3548002999999946
8.133589000000006,0.15798024999998597,1.7377826999999944
8.133589000000006,0.157980249999986,1.7377826999999944
8.341038000000005,-0.16436330000001398,1.8462943999999943
8.548487000000003,-0.48670685000001396,1.9548060999999943
8.755936000000004,-0.8090504000000139,2.0633177999999943
8.755936000000004,-0.8090504000000139,2.0633177999999943
8.96338466666667,-0.8888383666666807,2.347363099999994
9.170833333333336,-0.9686263333333472,2.6314083999999944
9.378282000000004,-1.048414300000014,2.9154536999999947
9.378282000000004,-1.0484143000000137,2.9154536999999947
9.978287666666672,-1.7920385000000136,3.3909901333333274
10.57829333333334,-2.5356627000000134,3.8665265666666606
11.178299000000008,-3.2792869000000135,4.342062999999993
11.178299000000008,-3.2792869000000144,4.342062999999993
12.084690666666674,-3.5409915000000147,4.281424233333326
12.99108233333334,-3.802696100000015,4.220785466666661
13.897474000000008,-4.064400700000015,4.160146699999995
13.897474000000008,-4.064400700000015,4.160146699999996
14.535778166666674,-4.1665293666666825,3.895250466666662
15.17408233333334,-4.268658033333349,3.6303542333333287
15.812386500000008,-4.370786700000015,3.3654579999999954
15.812386500000008,-4.370786700000015,3.3654579999999954
13.58470533333334,-3.6686523333333487,2.7143878999999953
11.35702416666667,-2.9665179666666823,2.063317799999995
9.129343000000004,-2.264383600000016,1.4122476999999953
9.129343000000004,-2.264383600000016,1.4122476999999953
9.94318066666667,-2.334597066666682,1.3196935999999952
10.757018333333336,-2.4048105333333485,1.2271394999999952
11.570856000000004,-2.475024000000015,1.134585399999995
11.570856000000004,-2.4750240000000145,1.134585399999995
10.926169000000003,-2.296298833333348,0.9462857166666616
10.281482000000004,-2.1175736666666807,0.7579860333333283
9.636795000000005,-1.938848500000014,0.5696863499999949
8.953809666666672,-1.734591200000014,0.27287497999999494
8.270824333333339,-1.5303339000000145,-0.02393639000000508
7.587839000000007,-1.3260766000000146,-0.3207477600000051
7.587839000000007,-1.3260766000000146,-0.3207477600000051
7.587839000000007,-1.3260766000000146,-0.3207477600000051
7.824011333333341,-1.5909728000000145,-0.3207477600000051
8.060183666666674,-1.8558690000000144,-0.3207477600000051
8.296356000000008,-2.1207652000000143,-0.3207477600000051
8.296356000000008,-2.1207652000000143,-0.3207477600000051
8.778275666666676,-2.076083900000014,-0.3462799266666718
9.260195333333344,-2.0314026000000145,-0.3718120933333384
9.74211500000001,-1.9867213000000143,-0.39734426000000506
9.742115000000013,-1.9867213000000143,-0.397344260000005
10.839998000000014,-1.8175707333333477,-0.22819369200000497
11.937881000000013,-1.6484201666666811,-0.059043124000005
13.035764000000015,-1.4792696000000145,0.110107443999995
13.035764000000015,-1.4792696000000145,0.110107443999995
13.054913000000013,-1.0994787000000146,-0.16436329066667166
13.074062000000012,-0.7196878000000145,-0.4388340253333383
13.09321100000001,-0.33989690000001443,-0.713304760000005
13.09321100000001,-0.33989690000001443,-0.7133047600000051
12.129372166666679,-0.553728746666681,-0.0015957733333384165
11.165533333333348,-0.7675605933333478,0.7101132133333282
10.201694500000015,-0.9813924400000146,1.421822199999995
10.000628333333347,-0.7579860266666811,0.9654348266666615
9.79956216666668,-0.5345796133333477,0.5090474533333281
9.598496000000011,-0.3111732000000144,0.05266007999999478
9.59849600000001,-0.3111732000000144,0.05266007999999478
9.691050333333342,-0.560111766666681,0.6877725866666616
9.783604666666674,-0.8090503333333477,1.3228850933333283
9.876159000000007,-1.0579889000000147,1.9579975999999952
9.876159000000007,-1.0579889000000147,1.9579975999999952
9.196365233333339,-1.0196906666666814,1.8814011333333285
8.51657146666667,-0.981392433333348,1.8048046666666615
7.836777700000003,-0.9430942000000148,1.7282081999999948
7.836777700000003,-0.9430942000000148,1.7282081999999948
8.098482466666672,-1.0484143666666814,1.894167199999995
8.36018723333334,-1.1537345333333482,2.060126199999995
8.621892000000008,-1.259054700000015,2.2260851999999955
8.621892000000008,-1.259054700000015,2.226085199999996
9.039981000000008,-1.2845868666666815,2.2675750333333293
9.458070000000008,-1.3101190333333481,2.3090648666666627
9.876159000000007,-1.335651200000015,2.350554699999996
9.876159000000007,-1.335651200000015,2.350554699999996
10.441058000000005,-1.5207593666666817,2.6409830333333293
11.005957000000004,-1.7058675333333484,2.9314113666666626
11.570856000000004,-1.8909757000000151,3.2218396999999963
11.953838666666671,-2.146297300000015,3.4452460666666624
12.33682133333334,-2.401618900000015,3.6686524333333295
12.719804000000009,-2.656940500000015,3.892058799999996
12.71980400000001,-2.6569405000000144,3.892058799999996
12.71980400000001,-2.6569405000000144,3.892058799999996
13.648536166666679,-2.752686133333347,3.815462333333329
14.577268333333345,-2.8484317666666805,3.738865866666662
15.506000500000013,-2.944177400000014,3.6622693999999947
13.887899666666678,-2.3250224666666806,3.151626133333328
12.269798833333345,-1.705867533333347,2.6409828666666613
10.65169800000001,-1.0867126000000138,2.1303395999999943
10.651698000000009,-1.0867126000000138,2.1303395999999943
10.811274000000012,-1.345225733333347,1.5941642666666607
10.970850000000013,-1.6037388666666803,1.0579889333333272
11.130426000000014,-1.8622520000000133,0.5218135999999939
11.130426000000014,-1.8622520000000133,0.5218135999999938
11.60277116666668,-2.0952330000000132,0.5537287766666604
12.075116333333346,-2.3282140000000133,0.585643953333327
12.547461500000011,-2.5611950000000134,0.6175591299999936
12.547461500000011,-2.5611950000000134,0.6175591299999935
11.612346000000011,-2.1750210333333464,0.34947143999999347
10.677230500000013,-1.7888470666666798,0.0813837499999935
9.74211500000001,-1.402673100000013,-0.18670394000000648
9.742115000000013,-1.402673100000013,-0.18670394000000648
8.979341800000013,-1.6101219333333467,-0.25691738000000647
8.216568600000011,-1.8175707666666803,-0.32713082000000654
7.453795400000011,-2.025019600000014,-0.3973442600000065
7.453795400000011,-2.025019600000014,-0.3973442600000065
7.105919600000011,-2.0920414666666804,-0.5792609066666731
6.75804380000001,-2.159063333333347,-0.7611775533333397
6.410168000000009,-2.2260852000000138,-0.9430942000000063
6.410168000000009,-2.2260852000000138,-0.9430942000000063
6.614425333333343,-1.9994873000000137,-0.7516029900000064
6.8186826666666756,-1.772889400000014,-0.5601117800000064
7.022940000000009,-1.5462915000000141,-0.3686205700000064
7.591030666666676,-1.6962929333333474,-0.31117320666667303
8.159121333333344,-1.8462943666666807,-0.25372584333333964
8.72721200000001,-1.996295800000014,-0.19627848000000636
8.72721200000001,-1.996295800000014,-0.19627848000000636
8.72721200000001,-1.996295800000014,-0.19627848000000636
8.759127000000012,-2.1462973000000143,0.16436327999999367
8.791042000000012,-2.2962988000000135,0.5250050399999936
8.822957000000011,-2.446300300000013,0.8856467999999937
10.444249333333344,-2.3441716333333464,1.1090532333333272
12.065541666666675,-2.2420429666666797,1.3324596666666606
13.686834000000006,-2.139914300000013,1.555866099999994
13.686834000000006,-2.139914300000013,1.555866099999994
11.972987666666675,-1.667569300000013,2.0314025666666606
10.259141333333345,-1.195224300000013,2.5069390333333272
8.545295000000012,-0.7228793000000128,2.9824754999999943
8.545295000000014,-0.7228793000000128,2.9824754999999943
9.515517000000013,-1.118627800000013,2.8037504333333274
10.485739000000013,-1.514376300000013,2.625025366666661
11.455961000000011,-1.9101248000000133,2.446300299999995
11.455961000000011,-1.9101248000000133,2.446300299999995
11.002765333333343,-1.779272500000013,2.615450799999995
10.549569666666676,-1.6484202000000128,2.784601299999995
10.096374000000006,-1.5175679000000126,2.9537517999999943
10.096374000000006,-1.5175679000000126,2.9537517999999943
9.821903333333337,-1.498418733333346,2.9760925333333277
9.54743266666667,-1.4792695666666795,2.998433266666661
9.272962000000001,-1.4601204000000132,3.0207739999999945
9.272962,-1.4601204000000132,3.0207739999999945
9.298494,-1.4633119333333464,2.921836833333328
9.324026000000002,-1.4665034666666796,2.822899666666661
9.349558000000002,-1.4696950000000129,2.723962499999994
9.253812666666668,-1.546291500000013,2.8356656666666615
9.158067333333335,-1.6228880000000132,2.9473688333333286
9.062322000000002,-1.6994845000000136,3.0590719999999956
9.062322000000002,-1.6994845000000136,3.0590719999999956
8.934661,-1.677143833333347,2.9441773333333288
8.807,-1.6548031666666805,2.829282666666662
8.679338999999999,-1.632462500000014,2.7143879999999947
8.679338999999999,-1.632462500000014,2.7143879999999947
8.599551,-1.7154420666666805,2.4431087333333283
8.519763000000003,-1.7984216333333471,2.1718294666666615
8.439975000000004,-1.881401200000014,1.900550199999995
8.439975000000006,-1.881401200000014,1.900550199999995
10.696379666666672,-2.7239625666666805,2.0792753333333285
12.95278433333334,-3.5665239333333467,2.258000466666662
15.20918900000001,-4.4090853000000125,2.436725599999996
15.20918900000001,-4.409085300000013,2.4367255999999964
14.944293000000009,-4.571852700000013,1.287778366666663
14.679397000000009,-4.734620100000013,0.13883113333332955
14.414501000000008,-4.897387500000013,-1.0101161000000038
14.440033000000009,-4.383552800000014,-0.8664977000000039
14.465565000000007,-3.869718100000013,-0.7228793000000039
14.491097000000005,-3.3558834000000126,-0.5792609000000039
14.491097000000005,-3.3558834000000126,-0.579260900000004
14.491097000000005,-3.3558834000000126,-0.579260900000004
13.415554666666674,-2.8548147666666797,-0.6271337000000039
12.340012333333343,-2.3537461333333467,-0.675006500000004
11.264470000000012,-1.8526775000000135,-0.7228793000000041
10.648506666666679,-1.8750181000000132,-0.5250050533333374
10.032543333333345,-1.897358700000013,-0.3271308066666707
9.416580000000012,-1.9196993000000127,-0.12925656000000404
9.416580000000012,-1.9196993000000127,-0.12925656000000404
9.218705666666677,-3.0080077666666796,-0.7324538733333373
9.020831333333344,-4.096316233333346,-1.3356511866666707
8.822957000000011,-5.184624700000014,-1.938848500000004
8.82295700000001,-5.184624700000015,-1.938848500000004
8.998490666666676,-4.651640766666681,-1.9452315333333374
9.174024333333342,-4.118656833333347,-1.951614566666671
9.349558000000009,-3.5856729000000134,-1.9579976000000048
9.349558000000009,-3.5856729000000134,-1.9579976000000048
8.79742500000001,-2.7718352666666797,-1.4984187000000047
8.245292000000008,-1.9579976333333462,-1.0388398000000045
7.6931590000000085,-1.144160000000013,-0.5792609000000045
7.6931590000000085,-1.1441600000000127,-0.5792609000000045
7.862309666666675,-1.2877784000000128,-0.19627848333333786
8.031460333333342,-1.4313968000000126,0.18670393333332883
8.20061100000001,-1.5750152000000126,0.5696863499999956
8.20061100000001,-1.5750152000000126,0.5696863499999956
9.113385666666675,-0.8345825166666794,0.6750064999999955
10.026160333333342,-0.09414983333334608,0.7803266499999956
10.938935000000008,0.6462828499999872,0.8856467999999955
10.938935000000008,0.6462828499999872,0.8856467999999955
11.440004000000007,0.8026673333333206,1.6452285999999958
11.941073000000008,0.9590518166666541,2.4048103999999957
12.44214200000001,1.1154362999999876,3.164392199999996
12.44214200000001,1.1154362999999876,3.164392199999996
12.987891833333341,0.8154333999999878,2.7143878666666623
13.533641666666673,0.5154304999999877,2.2643835333333286
14.079391500000005,0.21542759999998765,1.8143791999999952
14.079391500000005,0.21542759999998765,1.8143791999999952
13.303852000000004,0.39096119999998774,2.4239595666666616
12.528312500000004,0.5664947999999878,3.0335399333333286
11.752773000000003,0.7420283999999878,3.6431202999999956
11.752773000000003,0.7420283999999878,3.6431202999999956
10.970850333333336,0.1803208666666545,3.4643951333333285
10.18892766666667,-0.3813866666666788,3.285669966666662
9.407005000000003,-0.9430942000000123,3.106944799999995
9.407005000000003,-0.9430942000000123,3.106944799999995
9.553815000000005,-1.0994787000000121,3.0558804666666615
9.700625000000008,-1.255863200000012,3.0048161333333288
9.84743500000001,-1.4122477000000122,2.953751799999996
9.84743500000001,-1.4122477000000122,2.953751799999997
9.64317800000001,-1.1218193466666788,3.193115866666664
9.43892100000001,-0.8313909933333455,3.432479933333331
9.234664000000008,-0.5409626400000122,3.671843999999998
9.234664000000008,-0.5409626400000122,3.671843999999998
9.25700433333334,-0.7164962600000123,3.745248933333331
9.279344666666672,-0.8920298800000124,3.818653866666665
9.301685000000004,-1.0675635000000125,3.8920587999999987
9.301685000000004,-1.0675635000000125,3.8920587999999987
9.419771333333337,-1.1760752000000123,3.643120266666665
9.53785766666667,-1.2845869000000123,3.394181733333331
9.655944000000003,-1.3930986000000123,3.1452431999999972
9.655944000000003,-1.3930986000000123,3.1452431999999972
11.290002333333335,-1.9133163333333456,2.7750267999999974
12.92406066666667,-2.433534066666679,2.4048103999999975
14.558119000000003,-2.953751800000013,2.034593999999998
14.937910000000004,-3.0909872000000127,1.7250165999999976
15.317701000000007,-3.228222600000013,1.4154391999999973
15.69749200000001,-3.365458000000013,1.1058617999999973
15.697492000000011,-3.365458000000013,1.1058617999999973
14.768759666666677,-2.6888557333333463,0.5696863833333307
13.840027333333344,-2.0122534666666794,0.0335109666666639
12.91129500000001,-1.3356512000000125,-0.5026644500000028
12.91129500000001,-1.3356512000000125,-0.5026644500000028
13.160233666666675,-1.3962901000000123,-0.3207477923333361
13.40917233333334,-1.4569290000000121,-0.13883113466666944
13.658111000000005,-1.517567900000012,0.04308552299999724
13.658111000000005,-1.517567900000012,0.04308552299999724
12.655973333333337,-1.2686293100000121,-0.2090445713333361
11.653835666666673,-1.0196907200000123,-0.4611746656666695
10.651698000000009,-0.7707521300000124,-0.7133047600000028
10.651698000000009,-0.7707521300000124,-0.7133047600000028
10.144246333333344,-1.0005415533333457,-0.7164962733333361
9.636794666666678,-1.2303309766666792,-0.7196877866666694
9.129343000000011,-1.4601204000000125,-0.7228793000000028
9.129343000000013,-1.4601204000000125,-0.7228793000000028
8.921894333333347,-1.6452286000000127,-0.5122389766666694
8.714445666666679,-1.8303368000000129,-0.3015986533333361
8.506997000000013,-2.015445000000013,-0.09095833000000271
8.506997000000013,-2.0154450000000135,-0.09095833000000271
7.977204566666681,-1.92927396666668,0.09734135666666395
7.447412133333347,-1.8431029333333466,0.2856410433333306
6.917619700000013,-1.7569319000000132,0.4739407299999973
6.633574466666679,-1.6228880333333464,0.5409626533333306
6.349529233333346,-1.4888441666666796,0.607984576666664
6.065484000000013,-1.3548003000000126,0.6750064999999973
6.065484000000015,-1.3548003000000126,0.6750064999999973
6.065484000000015,-1.3548003000000126,0.6750064999999973
6.920811333333347,-1.4920356666666794,0.6143676166666641
7.77613866666668,-1.629271033333346,0.5537287333333308
8.631466000000012,-1.7665064000000126,0.49308984999999755
10.638932333333345,-1.8111876666666793,0.8154333666666642
12.646398666666679,-1.855868933333346,1.1377768833333308
14.65386500000001,-1.900550200000013,1.4601203999999977
14.65386500000001,-1.9005502000000132,1.4601203999999977
14.165562333333346,-2.053743133333347,1.9101247666666643
13.67725966666668,-2.2069360666666804,2.360129133333331
13.188957000000016,-2.3601290000000144,2.810133499999998
13.188957000000016,-2.3601290000000144,2.810133499999998
12.557036000000016,-2.1367226333333473,2.1175736333333313
11.925115000000014,-1.9133162666666805,1.4250137666666645
11.293194000000014,-1.6899099000000135,0.732453899999998
11.293194000000014,-1.6899099000000135,0.732453899999998
11.995328333333347,-1.9675722000000135,1.5016102666666644
12.69746266666668,-2.2452345000000133,2.270766633333331
13.399597000000014,-2.5228968000000136,3.039922999999998
13.399597000000014,-2.5228968000000136,3.039922999999998
12.19320266666668,-1.8622520800000135,2.918645266666665
10.986808333333348,-1.2016073600000137,2.797367533333331
9.780414000000015,-0.5409626400000137,2.676089799999998
9.780414000000015,-0.5409626400000137,2.676089799999998
9.569773666666679,-0.831390993333347,2.7750268666666646
9.359133333333345,-1.1218193466666804,2.8739639333333318
9.148493000000009,-1.4122477000000135,2.9729009999999985
9.148493000000007,-1.4122477000000135,2.9729009999999985
9.400622666666674,-1.7154421333333467,3.272903933333332
9.652752333333341,-2.01863656666668,3.5729068666666652
9.904882000000006,-2.3218310000000133,3.8729097999999986
9.799562166666673,-2.34736316666668,3.8920588666666656
9.69424233333334,-2.372895333333347,3.9112079333333316
9.588922500000008,-2.398427500000014,3.9303569999999977
9.588922500000008,-2.398427500000014,3.930356999999997
10.383611000000007,-2.420768100000014,3.5441830999999966
11.178299500000007,-2.4431087000000136,3.1580091999999964
11.972988000000006,-2.4654493000000133,2.771835299999996
11.972988000000006,-2.4654493000000133,2.771835299999996
13.587897000000005,-2.87396386666668,2.3090648666666627
15.202806000000004,-3.282478433333347,1.8462944333333293
16.817715000000003,-3.6909930000000144,1.383523999999996
16.817715000000003,-3.6909930000000144,1.383523999999996
15.729407000000007,-3.371841000000014,1.1186278333333293
14.641099000000006,-3.0526890000000138,0.8537316666666627
13.552791000000006,-2.733537000000014,0.5888354999999961
13.552791000000006,-2.733537000000014,0.5888354999999961
12.799592000000006,-2.4782154000000136,0.10691594666666275
12.046393000000007,-2.2228938000000134,-0.3750036066666706
11.293194000000007,-1.9675722000000129,-0.8569231600000039
11.293194000000007,-1.9675722000000129,-0.8569231600000039
11.941072666666672,-2.1622548666666797,-0.5473457066666705
12.58895133333334,-2.356937533333346,-0.23776825333333718
13.236830000000005,-2.5516202000000123,0.07180919999999617
12.31767233333334,-1.8973586333333454,0.0015957599999961668
11.398514666666673,-1.2430970666666787,-0.06861768000000384
10.479357000000007,-0.5888355000000121,-0.13883112000000386
10.479357000000007,-0.5888355000000121,-0.13883112000000386
9.649561566666675,-0.8281994666666787,-0.15159720333333723
8.81976613333334,-1.0675634333333452,-0.16436328666667055
7.989970700000008,-1.306927400000012,-0.17712937000000387
7.989970700000008,-1.306927400000012,-0.17712937000000384
7.725074466666675,-1.5303338333333452,-0.12606504733333718
7.460178233333342,-1.7537402666666784,-0.07500072466667052
7.1952820000000095,-1.9771467000000114,-0.023936402000003843
7.1952820000000095,-1.9771467000000111,-0.023936402000003843
7.1952820000000095,-1.9771467000000111,-0.023936402000003843
7.444220566666676,-1.5558660533333442,0.12287353199999618
7.693159133333342,-1.1345854066666774,0.2696834659999962
7.942097700000009,-0.7133047600000109,0.4164933999999962
8.561252466666675,-0.9111789733333442,0.3718121133333295
9.180407233333343,-1.1090531866666777,0.3271308266666628
9.79956200000001,-1.306927400000011,0.28244953999999617
9.79956200000001,-1.306927400000011,0.28244953999999617
9.79956200000001,-1.306927400000011,0.28244953999999617
10.680422000000009,-1.2399055333333442,0.06223464666666282
11.561282000000007,-1.1728836666666778,-0.15798024666667052
12.442142000000006,-1.105861800000011,-0.37819514000000387
12.633633000000009,-1.3037360333333443,0.004787283333329451
12.825124000000008,-1.5016102666666775,0.3877697066666628
13.016615000000007,-1.6994845000000112,0.7707521299999961
13.016615000000007,-1.6994845000000112,0.7707521299999961
11.72404933333334,-1.8367198666666777,0.6016015599999962
10.431483666666674,-1.9739552333333445,0.43245098999999626
9.13891800000001,-2.111190600000011,0.26330041999999626
9.13891800000001,-2.111190600000011,0.26330041999999626
9.754881333333342,-2.178212500000011,0.7005386799999963
10.370844666666676,-2.2452344000000104,1.1377769399999964
10.98680800000001,-2.3122563000000103,1.5750151999999964
10.98680800000001,-2.3122563000000103,1.5750151999999964
10.428292000000011,-2.4271510333333435,1.932465466666663
9.869776000000012,-2.5420457666666767,2.2899157333333293
9.311260000000013,-2.65694050000001,2.6473659999999954
9.48679366666668,-2.6984302333333425,2.475023866666662
9.662327333333346,-2.739919966666676,2.3026817333333294
9.837861000000013,-2.7814097000000095,2.130339599999996
9.837861000000013,-2.7814097000000095,2.1303395999999966
9.837861000000013,-2.7814097000000095,2.1303395999999966
10.172970333333344,-3.1260939333333426,2.2388512999999963
10.508079666666678,-3.470778166666676,2.3473629999999965
10.84318900000001,-3.8154624000000097,2.4558746999999963
11.149575000000008,-3.6431203333333433,2.468640799999996
11.455961000000007,-3.470778266666677,2.481406899999996
11.762347000000005,-3.29843620000001,2.494172999999996
11.762347000000005,-3.2984362000000096,2.494172999999996
11.762347000000005,-3.2984362000000096,2.494172999999996
11.762347000000005,-3.2186481333333425,2.6058761666666626
11.762347000000005,-3.1388600666666755,2.717579333333329
11.762347000000005,-3.059072000000009,2.8292824999999957
11.762347000000005,-3.059072000000009,2.8292824999999957
12.783633666666672,-3.5250340000000087,2.723962333333329
13.80492033333334,-3.9909960000000084,2.6186421666666626
14.826207000000009,-4.456958000000008,2.5133219999999965
13.78258000000001,-4.000570566666675,2.159063299999996
12.73895300000001,-3.5441831333333425,1.804804599999996
11.695326000000009,-3.0877957000000094,1.4505458999999956
11.695326000000009,-3.0877957000000094,1.4505458999999956
11.261279333333341,-2.6920472000000095,1.1537345199999958
10.827232666666674,-2.2962987000000092,0.8569231399999957
10.393186000000007,-1.9005502000000094,0.5601117599999957
10.393186000000007,-1.9005502000000096,0.5601117599999957
11.005957666666674,-2.056934733333343,0.6686234399999957
11.618729333333341,-2.2133192666666766,0.7771351199999957
12.231501000000009,-2.36970380000001,0.8856467999999958
12.231501000000009,-2.36970380000001,0.8856467999999958
11.711283333333341,-1.9037418333333431,0.6367082399999958
11.191065666666674,-1.4377798666666763,0.38776967999999573
10.670848000000007,-0.9718179000000098,0.13883111999999576
10.670848000000007,-0.9718179000000098,0.13883111999999576
10.032544000000007,-1.118627833333343,0.17393784666666243
9.394240000000005,-1.2654377666666765,0.20904457333332907
8.755936000000005,-1.41224770000001,0.24415129999999574
8.755936000000005,-1.41224770000001,0.24415129999999574
8.755936000000005,-1.41224770000001,0.24415129999999574
8.382528000000006,-1.1601176000000102,-0.26968343333333755
8.009120000000005,-0.9079875000000103,-0.7835181666666707
7.635712000000005,-0.6558574000000102,-1.2973529000000041
8.060184000000005,-0.7228793200000103,-1.342034200000004
8.484656000000003,-0.7899012400000104,-1.386715500000004
8.909128000000003,-0.8569231600000103,-1.4313968000000041
8.909128000000003,-0.8569231600000103,-1.4313968000000041
9.767647000000004,-0.9494772400000103,-1.3037359666666708
10.626166000000005,-1.0420313200000102,-1.1760751333333375
11.484685000000006,-1.1345854000000102,-1.0484143000000044
11.484685000000006,-1.1345854000000102,-1.0484143000000044
12.02086033333334,-0.9175620333333434,-1.2271394333333374
12.557035666666673,-0.7005386666666767,-1.4058645666666705
13.093211000000005,-0.4835153000000101,-1.5845897000000038
13.093211000000005,-0.48351530000001003,-1.5845897000000033
13.016614666666674,-0.7835182000000099,-0.5792608666666701
12.940018333333342,-1.08352110000001,0.4260679666666632
12.863422000000009,-1.38352400000001,1.4313967999999964
12.863422000000009,-1.3835240000000102,1.4313967999999964
11.988945333333342,-0.7803266833333434,0.9462857326666629
11.114468666666676,-0.1771293666666768,0.4611746653333297
10.23999200000001,0.4260679499999898,-0.023936402000003614
10.23999200000001,0.4260679499999898,-0.023936402000003614
10.434674666666675,-0.11968200000001013,0.5186220319999963
10.62935733333334,-0.6654319500000101,1.0611804659999964
10.824040000000005,-1.2111819000000101,1.6037388999999964
10.824040000000005,-1.2111819000000101,1.6037388999999964
9.971904166666672,-0.9973500500000103,1.6196964999999965
9.119768333333338,-0.7835182000000103,1.6356540999999967
8.267632500000007,-0.5696863500000103,1.6516116999999968
8.70167933333334,-0.8345825333333438,1.7792724666666633
9.135726166666673,-1.099478716666677,1.90693323333333
9.569773000000007,-1.3643749000000103,2.0345939999999967
9.569773000000007,-1.3643749000000103,2.0345939999999967
10.080416333333341,-1.2239480000000102,2.353746066666663
10.591059666666675,-1.0835211000000105,2.6728981333333297
11.10170300000001,-0.9430942000000102,2.992050199999996
11.10170300000001,-0.9430942000000102,2.992050199999996
11.321917666666677,-1.0547974000000104,3.3622665666666625
11.542132333333342,-1.1665006000000104,3.7324829333333294
11.762347000000007,-1.2782038000000104,4.102699299999996
11.762347000000007,-1.2782038000000104,4.102699299999997
12.509162666666676,-1.3516087666666772,3.7739726999999967
13.255978333333344,-1.425013733333344,3.445246099999997
14.00279400000001,-1.4984187000000107,3.1165194999999977
14.00279400000001,-1.4984187000000107,3.1165194999999977
13.642152333333344,-1.9037418000000106,3.0846043333333313
13.281510666666678,-2.3090649000000103,3.052689166666665
12.920869000000012,-2.7143880000000102,3.020773999999998
12.920869000000016,-2.7143880000000102,3.020773999999998
12.008094333333347,-2.3537461666666766,2.1175737333333315
11.095319666666677,-1.9931043333333431,1.2143734666666648
10.18254500000001,-1.6324625000000097,0.31117319999999804
11.098511333333343,-1.7218250666666763,0.5218135333333314
12.014477666666679,-1.8111876333333432,0.7324538666666648
12.930444000000014,-1.90055020000001,0.9430941999999982
12.930444000000014,-1.9005502000000103,0.9430941999999982
12.209160333333346,-1.6196964333333437,0.6430913076666648
11.48787666666668,-1.338842666666677,0.3430884153333315
10.766593000000013,-1.0579889000000102,0.04308552299999816
10.766593000000013,-1.0579889000000104,0.04308552299999816
10.220843000000011,-1.1441599666666773,0.0015957603333314984
9.675093000000011,-1.230331033333344,-0.03989400233333517
9.129343000000011,-1.3165021000000108,-0.08138376500000183
9.129343000000011,-1.3165021000000108,-0.08138376500000183
8.909128166666678,-1.4377798666666772,-0.18989545000000185
8.688913333333346,-1.559057633333344,-0.2984071350000019
8.468698500000015,-1.6803354000000104,-0.40691882000000185
8.468698500000015,-1.6803354000000104,-0.40691882000000185
8.609125333333346,-1.530333966666677,-0.2952156133333352
8.749552166666676,-1.3803325333333438,-0.1835124066666685
8.88997900000001,-1.2303311000000106,-0.07180920000000184
8.88997900000001,-1.2303311000000106,-0.07180920000000184
9.330408666666676,-1.2335226000000106,0.1611717666666648
9.770838333333344,-1.2367141000000108,0.3941527333333314
10.211268000000013,-1.2399056000000108,0.627133699999998
10.211268000000015,-1.2399056000000108,0.627133699999998
11.10170233333335,-1.1441600000000107,0.279257999999998
11.992136666666681,-1.0484144000000104,-0.06861770000000196
12.882571000000013,-0.9526688000000103,-0.41649340000000196
12.582568000000014,-1.2111819333333436,0.20904453333333142
12.282565000000014,-1.4696950666666773,0.8345824666666649
11.982562000000016,-1.7282082000000107,1.4601203999999983
11.982562000000016,-1.7282082000000107,1.4601203999999983
11.982562000000016,-1.7282082000000107,1.4601203999999983
11.12723466666668,-1.3165020833333438,0.8920298333333315
10.271907333333345,-0.904795966666677,0.3239392666666648
9.41658000000001,-0.49308985000001043,-0.24415130000000188
9.74849800000001,-0.8537316333333437,0.2920240999999981
10.08041600000001,-1.2143734166666769,0.8281994999999981
10.41233400000001,-1.5750152000000102,1.364374899999998
10.412334000000008,-1.5750152000000102,1.3643748999999985
9.700625000000008,-1.329268146666677,1.3962900666666649
8.988916000000009,-1.0835210933333437,1.4282052333333315
8.27720700000001,-0.8377740400000103,1.460120399999998
8.27720700000001,-0.8377740400000103,1.460120399999998
8.838914666666676,-1.0579889266666769,1.4569288999999979
9.400622333333342,-1.2782038133333435,1.4537373999999978
9.962330000000007,-1.4984187000000102,1.4505458999999978
9.962330000000007,-1.4984187000000102,1.4505458999999978
10.329355000000005,-1.4856526000000103,1.9069332666666645
10.696380000000003,-1.4728865000000102,2.363320633333331
11.063405000000001,-1.46012040000001,2.819707999999998
11.063404999999998,-1.46012040000001,2.819707999999998
11.210215,-1.3388426333333436,3.113327899999998
11.357025000000002,-1.2175648666666772,3.406947799999998
11.503835000000004,-1.0962871000000105,3.7005676999999984
11.503835000000004,-1.0962871000000107,3.7005676999999984
11.998520333333337,-1.3005444000000108,3.464395199999998
12.493205666666668,-1.5048017000000111,3.2282226999999977
12.987891,-1.7090590000000112,2.9920501999999973
12.987891,-1.7090590000000112,2.9920501999999973
14.117689,-2.1909785333333445,3.039922966666664
15.247487000000001,-2.6728980666666775,3.0877957333333304
16.377285000000004,-3.1548176000000105,3.1356684999999973
14.108114333333335,-2.4750238333333443,2.688855666666664
11.838943666666667,-1.7952300666666783,2.242042833333331
9.569773,-1.1154363000000116,1.7952299999999977
9.569773,-1.1154363000000116,1.7952299999999977
10.316589,-1.428205233333345,1.5175677666666643
11.063405000000001,-1.7409741666666785,1.2399055333333309
11.810221,-2.053743100000012,0.9622432999999976
11.810221,-2.053743100000012,0.9622432999999976
11.580431166666669,-2.092041400000012,0.7516029766666642
11.350641333333336,-2.1303397000000115,0.5409626533333309
11.120851500000002,-2.1686380000000116,0.3303223299999976
11.120851500000002,-2.1686380000000116,0.3303223299999976
10.533612000000003,-1.8016131666666784,0.13883111999999764
9.946372500000003,-1.4345883333333453,-0.05266009000000235
9.359133000000002,-1.067563500000012,-0.24415130000000232
9.359133000000002,-1.0675635000000119,-0.24415130000000232
9.292111000000004,-1.4218222000000118,-0.4739407533333357
9.225089000000004,-1.7760809000000117,-0.703730206666669
9.158067000000004,-2.1303396000000117,-0.9335196600000023
9.158067000000004,-2.130339600000012,-0.9335196600000023
9.496368333333336,-2.2739580666666788,-1.099478706666669
9.83466966666667,-2.4175765333333454,-1.2654377533333356
10.172971000000004,-2.5611950000000125,-1.4313968000000024
10.172971000000006,-2.5611950000000125,-1.4313968000000024
10.16339633333334,-1.7218251743333461,-1.2877784000000023
10.153821666666675,-0.8824553486666796,-1.1441600000000023
10.144247000000009,-0.04308552300001282,-1.0005416000000025
10.144247000000009,-0.04308552300001282,-1.0005416000000025
10.779359333333344,-0.08457528533334614,-0.9462857466666691
11.414471666666678,-0.12606504766667948,-0.8920298933333358
12.049584000000012,-0.16755481000001282,-0.8377740400000026
12.799591333333348,-0.43883402000001287,-0.32713081666666927
13.549598666666682,-0.7101132300000129,0.1835124066666641
