accx,accy,accz
-10.488931,-5.845269,-1.6516117
-10.488931,-5.845269,-1.6516117
-10.488931,-5.845268999999999,-1.6516117
-10.488931,-5.845268999999999,-1.6516117
-10.259141333333332,-5.915482533333332,-1.0835211066666666
-10.029351666666665,-5.985696066666665,-0.5154305133333332
-9.799562,-6.055909599999997,0.05266008000000011
-9.799562,-6.055909599999997,0.05266008000000011
-9.799562,-6.055909599999997,0.05266008000000011
-9.783604666666664,-5.136751799999998,0.5920269866666668
-9.767647333333331,-4.217593999999998,1.1313938933333334
-9.751689999999998,-3.298436199999999,1.6707608000000003
-9.646369666666667,-2.864389399999999,1.9069332666666672
-9.541049333333332,-2.430342599999999,2.143105733333334
-9.435728999999998,-1.9962957999999988,2.3792782000000003
-9.435728999999998,-1.9962957999999986,2.3792782000000003
-9.435728999999998,-1.9962957999999986,2.3792782000000003
-9.426154333333333,-2.092041399999999,2.264383466666667
-9.416579666666667,-2.1877869999999984,2.149488733333334
-9.407005000000002,-2.283532599999998,2.0345940000000007
-9.407005000000003,-2.283532599999998,2.0345940000000007
-9.438920333333337,-2.4718323333333307,1.8016130666666677
-9.470835666666673,-2.6601320666666637,1.5686321333333346
-9.502751000000009,-2.8484317999999966,1.3356512000000016
-9.611262666666674,-2.6569405999999964,1.246288633333335
-9.719774333333342,-2.465449399999996,1.1569260666666683
-9.82828600000001,-2.2739581999999956,1.0675635000000019
-9.828286000000011,-2.273958199999995,1.0675635000000019
-9.828286000000011,-2.273958199999995,1.0675635000000019
-9.818711333333345,-1.993104399999995,1.4090561666666683
-9.80913666666668,-1.7122505999999948,1.750548833333335
-9.799562000000014,-1.4313967999999948,2.092041500000002
-9.799562000000014,-1.4313967999999948,2.092041500000002
-9.547432000000013,-1.6867184333333283,1.9388485000000018
-9.295302000000012,-1.9420400666666617,1.7856555000000018
-9.04317200000001,-2.197361699999995,1.632462500000002
-9.04317200000001,-2.197361699999995,1.632462500000002
-8.77827600000001,-2.4845984666666623,1.310119000000002
-8.51338000000001,-2.771835233333329,0.987775500000002
-8.24848400000001,-3.0590719999999956,0.6654320000000021
-8.24848400000001,-3.0590719999999956,0.6654320000000021
-8.222951666666676,-3.027156833333329,0.556920300000002
-8.197419333333343,-2.995241666666663,0.448408600000002
-8.17188700000001,-2.963326499999996,0.339896900000002
-8.17188700000001,-2.963326499999996,0.339896900000002
-8.408059333333343,-2.822899599999996,0.5250050666666686
-8.644231666666677,-2.682472699999996,0.7101132333333352
-8.880404000000011,-2.542045799999996,0.8952214000000019
-8.880404000000011,-2.5420457999999955,0.8952214000000019
-9.19317300000001,-2.6569405333333287,0.9335196333333354
-9.505942000000012,-2.771835266666662,0.9718178666666687
-9.818711000000013,-2.886729999999995,1.0101161000000018
-9.818711000000013,-2.886729999999995,1.0101161000000018
-9.541049000000013,-3.017582299999995,1.061180433333335
-9.263387000000014,-3.1484345999999945,1.1122447666666684
-8.985725000000015,-3.279286899999994,1.1633091000000018
-8.985725000000015,-3.279286899999994,1.1633091000000018
-8.650615433333348,-3.043114433333328,1.2877783666666682
-8.315505866666681,-2.806941966666662,1.412247633333335
-7.980396300000014,-2.570769499999996,1.5367169000000016
-7.980396300000014,-2.570769499999996,1.5367169000000016
-8.175079200000013,-2.4111934999999955,1.6228879333333348
-8.369762100000012,-2.2516174999999956,1.7090589666666682
-8.564445000000012,-2.0920414999999957,1.7952300000000017
-8.564445000000012,-2.0920414999999952,1.7952300000000017
-8.768702333333344,-2.2611920999999953,1.7760809000000013
-8.972959666666677,-2.430342699999995,1.7569318000000014
-9.177217000000011,-2.599493299999994,1.7377827000000015
-9.177217000000011,-2.599493299999994,1.7377827000000015
-9.12934400000001,-2.8133250999999944,1.6484201333333346
-9.08147100000001,-3.0271568999999943,1.5590575666666677
-9.03359800000001,-3.240988699999994,1.4696950000000009
-9.03359800000001,-3.240988699999994,1.4696950000000009
-9.008066000000012,-3.164392199999994,1.437779800000001
-8.982534000000014,-3.087795699999994,1.405864600000001
-8.957002000000015,-3.0111991999999934,1.373949400000001
-8.957002000000015,-3.0111991999999934,1.373949400000001
-8.934661000000013,-2.915453633333327,1.4377798333333345
-8.91232000000001,-2.81970806666666,1.5016102666666677
-8.88997900000001,-2.723962499999993,1.565440700000001
-8.88997900000001,-2.723962499999993,1.565440700000001
-8.893170666666677,-2.81970806666666,1.4920357000000013
-8.896362333333345,-2.915453633333327,1.4186307000000014
-8.899554000000014,-3.0111991999999943,1.3452257000000014
-8.899554000000014,-3.0111991999999943,1.3452257000000014
-8.915511666666681,-3.001624633333327,1.290969866666668
-8.931469333333348,-2.9920500666666605,1.2367140333333346
-8.947427000000017,-2.982475499999994,1.1824582000000012
-8.947427000000017,-2.982475499999994,1.1824582000000012
-8.995299666666682,-3.0143906666666602,1.185649733333335
-9.043172333333347,-3.0463058333333266,1.1888412666666683
-9.091045000000014,-3.0782209999999934,1.1920328000000018
-9.091045000000014,-3.0782209999999934,1.192032800000002
-9.11338566666668,-3.0750295666666596,1.211181900000002
-9.135726333333347,-3.0718381333333262,1.2303310000000018
-9.158067000000015,-3.068646699999993,1.2494801000000018
-9.158067000000015,-3.068646699999993,1.2494801000000015
-9.167641333333348,-3.0143907999999926,1.322885066666668
-9.177215666666681,-2.960134899999993,1.3962900333333346
-9.186790000000014,-2.905878999999993,1.4696950000000009
-9.186790000000014,-2.905878999999993,1.4696950000000009
-9.167641000000012,-2.845240166666659,1.5048017333333343
-9.148492000000012,-2.7846013333333257,1.5399084666666678
-9.129343000000011,-2.7239624999999923,1.5750152000000013
-9.129343000000011,-2.723962499999993,1.5750152000000013
-9.084661666666678,-2.7526861666666598,1.4665035000000015
-9.039980333333347,-2.7814098333333264,1.3579918000000015
-8.995299000000015,-2.8101334999999934,1.2494801000000015
-8.995299000000015,-2.8101334999999934,1.2494801000000015
-8.960192333333346,-2.84204866666666,1.2143734000000015
-8.925085666666677,-2.873963833333326,1.1792667000000014
-8.88997900000001,-2.905878999999993,1.1441600000000014
-8.88997900000001,-2.905878999999993,1.1441600000000014
-8.899553666666677,-2.896304433333326,1.131393933333335
-8.909128333333344,-2.886729866666659,1.1186278666666682
-8.918703000000013,-2.8771552999999925,1.1058618000000016
-8.918703000000013,-2.8771552999999925,1.1058618000000018
-8.944235000000013,-2.886729866666659,1.1026702333333351
-8.969767000000013,-2.896304433333326,1.0994786666666685
-8.995299000000015,-2.905878999999993,1.0962871000000018
-8.995299000000015,-2.905878999999993,1.0962871000000018
-9.020831333333348,-2.896304433333326,1.1345853666666685
-9.04636366666668,-2.886729866666659,1.1728836333333352
-9.071896000000015,-2.8771552999999925,1.211181900000002
-9.071896000000015,-2.8771552999999925,1.2111819000000021
-9.052747000000013,-2.8292825333333256,1.2813953333333357
-9.033598000000012,-2.781409766666659,1.3516087666666692
-9.014449000000011,-2.7335369999999926,1.4218222000000027
-9.014449000000011,-2.7335369999999926,1.4218222000000027
-9.033598000000012,-2.759069166666659,1.460120433333336
-9.052747000000013,-2.7846013333333257,1.4984186666666692
-9.071896000000015,-2.8101334999999925,1.5367169000000025
-9.071896000000015,-2.8101334999999934,1.5367169000000025
-9.049555333333346,-2.854814799999994,1.4569289000000023
-9.02721466666668,-2.8994960999999946,1.3771409000000023
-9.004874000000013,-2.944177399999995,1.2973529000000024
-9.004874000000013,-2.944177399999995,1.2973529000000024
-8.966575666666678,-2.9409858333333276,1.2654377000000023
-8.928277333333343,-2.9377942666666605,1.2335225000000023
-8.88997900000001,-2.9346026999999935,1.2016073000000025
-8.874021666666676,-2.9186451333333268,1.2111819000000024
-8.858064333333344,-2.9026875666666605,1.2207565000000022
-8.842107000000011,-2.8867299999999942,1.2303311000000023
-8.842107000000011,-2.8867299999999942,1.2303311000000023
-8.842107000000011,-2.8867299999999942,1.2303311000000023
-8.858064333333344,-2.9282197333333273,1.246288666666669
-8.874021666666676,-2.969709466666661,1.2622462333333357
-8.88997900000001,-3.0111991999999943,1.2782038000000024
-8.918702833333343,-3.033539799999994,1.2909699000000023
-8.94742666666668,-3.0558803999999937,1.3037360000000024
-8.976150500000015,-3.0782209999999934,1.3165021000000026
-8.976150500000015,-3.0782209999999934,1.3165021000000026
-8.960193000000013,-3.039922833333327,1.338842733333336
-8.944235500000012,-3.001624666666661,1.3611833666666693
-8.928278000000011,-2.963326499999995,1.3835240000000029
-8.928278000000011,-2.963326499999995,1.383524000000003
-8.905937333333343,-2.918645166666662,1.3899070333333363
-8.883596666666676,-2.873963833333329,1.3962900666666698
-8.86125600000001,-2.8292824999999957,1.402673100000003
-8.86125600000001,-2.8292824999999957,1.402673100000003
-8.88678800000001,-2.8197079999999954,1.4090561333333362
-8.912320000000014,-2.8101334999999956,1.4154391666666697
-8.937852000000015,-2.800558999999996,1.421822200000003
-8.937852000000017,-2.800558999999996,1.421822200000003
-8.960192666666684,-2.832474199999996,1.421822200000003
-8.982533333333352,-2.8643893999999963,1.421822200000003
-9.004874000000019,-2.8963045999999966,1.421822200000003
-9.00487400000002,-2.8963045999999966,1.421822200000003
-8.976150333333353,-2.9569433999999966,1.3675663666666695
-8.947426666666686,-3.017582199999996,1.3133105333333361
-8.91870300000002,-3.0782209999999957,1.2590547000000027
-8.91870300000002,-3.0782209999999957,1.2590547000000027
-8.909128333333351,-3.065454999999995,1.2718207666666694
-8.899553666666684,-3.052688999999995,1.284586833333336
-8.889979000000016,-3.0399229999999946,1.2973529000000026
-9.043172000000018,-2.8675809333333278,1.440971333333336
-9.19636500000002,-2.6952388666666613,1.5845897666666693
-9.349558000000021,-2.5228967999999945,1.7282082000000027
-9.349558000000021,-2.5228967999999945,1.7282082000000027
-9.349558000000021,-2.5228967999999945,1.7282082000000027
-9.282536333333354,-2.548428966666661,1.7058675333333362
-9.215514666666687,-2.5739611333333277,1.6835268666666696
-9.148493000000022,-2.599493299999995,1.661186200000003
-9.148493000000022,-2.599493299999995,1.661186200000003
-8.934661000000023,-2.6122593333333284,1.6867183666666696
-8.720829000000025,-2.625025366666662,1.712250533333336
-8.506997000000025,-2.6377913999999953,1.7377827000000023
-8.49423083333336,-2.787792833333329,1.6675692666666688
-8.481464666666694,-2.9377942666666623,1.5973558333333358
-8.468698500000029,-3.0877956999999956,1.5271424000000025
-8.468698500000029,-3.087795699999995,1.5271424000000025
-8.468698500000029,-3.087795699999995,1.5271424000000025
-8.794233666666694,-3.2154565333333287,1.504801733333336
-9.11976883333336,-3.3431173666666623,1.4824610666666693
-9.445304000000027,-3.470778199999996,1.4601204000000028
-9.445304000000027,-3.470778199999996,1.4601204000000028
-9.228280333333359,-4.361212233333329,0.7771351000000027
-9.011256666666691,-5.251646266666663,0.09414980000000266
-8.794233000000025,-6.142080299999996,-0.5888354999999974
-8.235717233333359,-6.41335963333333,-0.528196606666664
-7.677201466666692,-6.684638966666664,-0.4675577133333307
-7.118685700000026,-6.955918299999997,-0.40691881999999735
-7.118685700000026,-6.955918299999997,-0.40691881999999735
-7.118685700000026,-6.955918299999997,-0.40691881999999735
-6.515488466666693,-7.096345099999997,-0.7739436133333307
-5.91229123333336,-7.236771899999997,-1.140968406666664
-5.3090940000000275,-7.3771986999999974,-1.5079931999999971
-5.309094000000028,-7.3771986999999974,-1.5079931999999971
-5.050580866666695,-8.012311299999999,-1.9420399666666641
-4.792067733333362,-8.647423899999998,-2.376086733333331
-4.533554600000029,-9.282536499999997,-2.8101334999999974
-4.533554600000029,-9.282536499999997,-2.810133499999998
-5.0027080666666945,-9.76126433333333,-2.8260910666666645
-5.47186153333336,-10.239992166666662,-2.842048633333331
-5.941015000000026,-10.718719999999996,-2.858006199999997
-5.941015000000026,-10.718719999999996,-2.858006199999997
-5.806971000000026,-10.977233333333329,-2.787792799999997
-5.672927000000025,-11.235746666666664,-2.717579399999997
-5.538883000000024,-11.494259999999999,-2.6473659999999968
-5.538883000000024,-11.494260000000002,-2.6473659999999968
-5.487818666666691,-11.510217333333335,-2.86119783333333
-5.436754333333357,-11.526174666666668,-3.0750296666666634
-5.3856900000000225,-11.542132,-3.2888614999999963
-5.3856900000000225,-11.542132,-3.2888614999999963
-5.168666666666689,-11.114468666666665,-2.90268753333333
-4.951643333333355,-10.686805333333332,-2.5165135666666636
-4.734620000000022,-10.259141999999999,-2.130339599999997
-4.498447500000022,-8.574019166666668,-1.402673039999997
-4.262275000000023,-6.888896333333334,-0.6750064799999969
-4.026102500000023,-5.2037735000000005,0.05266008000000314
-4.026102500000023,-5.2037735000000005,0.05266008000000314
-4.026102500000023,-5.2037735000000005,0.05266008000000314
-5.3888816666666886,-3.853760533333334,0.4771322533333365
-6.751660833333356,-2.5037475666666666,0.9016044266666698
-8.114440000000023,-1.1537346,1.3260766000000033
-9.991054000000021,-2.1399143,1.9260824000000032
-11.867668000000021,-3.126094,2.5260882000000033
-13.74428200000002,-4.1122737,3.1260940000000033
-13.74428200000002,-4.1122737,3.1260940000000033
-13.74428200000002,-4.1122737,3.1260940000000033
-13.444279000000021,-9.272961466666667,3.8569521333333365
-13.144276000000021,-14.433649233333332,4.58781026666667
-12.844273000000022,-19.594336999999996,5.318668400000003
-12.844273000000022,-19.594336999999996,5.318668400000003
-7.386773533333354,-18.860287666666665,3.668652456666669
-1.9292740666666877,-18.126238333333333,2.0186365133333357
3.528225399999979,-17.392189000000002,0.3686205700000024
6.193144933333311,-13.674068100000001,-1.0962871199999977
8.858064466666644,-9.955947200000002,-2.5611948099999977
11.522983999999974,-6.237826300000002,-4.026102499999998
11.522983999999974,-6.237826300000002,-4.026102499999998
11.522983999999974,-6.237826300000002,-4.026102499999998
11.226172333333308,-4.795259133333334,-2.1175734999999976
10.92936066666664,-3.352691966666668,-0.2090444999999974
10.63254899999997,-1.9101248000000013,1.699484500000003
10.63254899999997,-1.9101248000000013,1.699484500000003
9.483601866666639,-3.9941873666666683,0.9462857466666695
8.334654733333307,-6.0782499333333355,0.19308699333333626
7.185707599999975,-8.162312500000004,-0.5601117599999971
7.185707599999975,-8.162312500000004,-0.5601117599999971
2.8548147333333076,-11.972987333333336,-0.7069217066666638
-1.476078133333359,-15.783662166666668,-0.8537316533333305
-5.806971000000026,-19.594337,-1.0005415999999971
-5.806971000000026,-19.594337,-1.0005415999999971
-6.834640333333358,-18.95284166666667,-0.7420284566666636
-7.86230966666669,-18.311346333333336,-0.48351531333333025
-8.889979000000022,-17.669851000000005,-0.2250021699999969
-8.88997900000002,-17.669851,-0.2250021699999969
-8.953809500000022,-12.668739,-1.4984187799999968
-9.017640000000023,-7.667626999999999,-2.7718353899999966
-9.081470500000025,-2.666514999999998,-4.045251999999997
-9.081470500000025,-2.666514999999998,-4.045251999999997
-9.563390000000025,1.4920356666666688,-4.192061833333331
-10.045309500000023,5.650586333333336,-4.338871666666664
-10.527229000000021,9.809137000000002,-4.485681499999997
-10.527229000000021,9.809137000000002,-4.485681499999997
-10.578293333333356,6.0654839333333355,-2.376086699999998
-10.62935766666669,2.321830866666668,-0.26649189999999773
-10.680422000000023,-1.4218221999999985,1.8431029000000023
-10.680422000000023,-1.4218221999999985,1.8431029000000023
-11.085745000000024,-7.4793271333333315,4.125039600000003
-11.491068000000025,-13.536832066666664,6.406976300000003
-11.896391000000024,-19.594337,8.688913000000003
-11.896391000000024,-19.594337,8.688913000000005
-5.532500000000025,-17.771979333333334,5.644202976666672
0.8313909999999757,-15.949621666666667,2.5994929533333386
7.195281999999975,-14.127264000000002,-0.4452170699999953
8.264441333333307,-8.663381466666666,-1.3930985466666617
9.333600666666642,-3.1994989333333326,-2.340980023333328
10.402759999999974,2.2643836000000017,-3.2888614999999946
10.402759999999972,2.2643836000000017,-3.2888614999999946
10.402759999999972,2.2643836000000017,-3.2888614999999946
11.331492333333307,1.9994874000000014,-2.478215386666662
12.26022466666664,1.7345912000000012,-1.667569273333329
13.188956999999974,1.4696950000000009,-0.8569231599999957
13.188956999999974,1.4696950000000009,-0.8569231599999957
12.103839999999972,-3.531416999999999,-2.171829439999996
11.018722999999971,-8.532528999999998,-3.4867357199999964
9.933605999999969,-13.533640999999998,-4.801641999999997
9.933605999999969,-13.533640999999998,-4.801641999999997
5.775055399999968,-15.553872999999996,-4.4697238999999955
1.6165047999999687,-17.574104999999992,-4.137805799999995
-2.542045800000031,-19.594336999999992,-3.8058876999999947
-2.542045800000031,-19.594336999999992,-3.8058876999999947
-6.42293420000003,-17.91559766666666,-3.2537547999999945
-10.303822600000029,-16.23685833333333,-2.7016218999999944
-14.184711000000028,-14.558118999999996,-2.149488999999994
-14.184711000000028,-14.558118999999996,-2.149488999999994
-13.760239000000029,-6.7101709999999954,-2.538854399999994
-13.33576700000003,1.1377770000000045,-2.928219799999995
-12.911295000000031,8.985725000000004,-3.317585199999995
-12.911295000000031,8.985725000000004,-3.317585199999995
-11.931498333333364,9.221897500000004,-3.2952445999999953
-10.951701666666695,9.458070000000005,-3.2729039999999956
-9.971905000000028,9.694242500000003,-3.250563399999996
-9.971905000000028,9.694242500000003,-3.250563399999996
-11.644261666666695,1.6803353333333366,0.8058587333333375
-13.316618333333365,-6.33357183333333,4.862280866666672
-14.988975000000032,-14.347478999999998,8.918703000000006
-14.988975000000034,-14.347478999999998,8.918703000000006
-10.629358266666701,-16.096431666666664,9.257004000000004
-6.2697415333333675,-17.84538433333333,9.595305000000003
-1.910124800000034,-19.594337,9.933606000000003
-1.910124800000034,-19.594337,9.933606000000003
2.0665091333332994,-15.962387333333334,6.122931100000002
6.043143066666633,-12.330437666666668,2.3122562000000033
10.019776999999964,-8.698488000000001,-1.4984186999999967
10.019776999999964,-8.698488000000001,-1.4984186999999967
10.019776999999964,-8.698488000000001,-1.4984186999999967
10.5623353333333,-5.2261141,-1.6324625333333298
11.104893666666634,-1.7537402,-1.766506366666663
11.647451999999967,1.7186337000000005,-1.900550199999996
12.716611666666635,1.677143933333334,-1.377140909999996
13.785771333333301,1.6356541666666675,-0.8537316199999959
14.854930999999967,1.594164400000001,-0.33032232999999583
14.854930999999967,1.594164400000001,-0.33032232999999583
12.7357613333333,-4.891004733333331,-0.9877754533333293
10.616591666666634,-11.376173866666662,-1.645228576666663
8.497421999999967,-17.86134299999999,-2.302681699999997
8.497421999999967,-17.86134299999999,-2.302681699999997
3.3686491666666334,-18.439007666666658,-0.28883249999999655
-1.7601236666667004,-19.01667233333333,1.7250167000000036
-6.888896500000034,-19.594336999999996,3.738865900000004
-6.888896500000034,-19.594336999999996,3.738865900000004
-9.764456000000033,-15.078336233333332,2.50374758666667
-12.640015500000032,-10.562335466666665,1.2686292733333369
-15.515575000000032,-6.046334699999999,0.03351096000000364
-15.515575000000032,-6.046334699999999,0.03351096000000364
-14.455990666666699,-0.18989513333333274,-2.2994902599999967
-13.396406333333365,5.666544433333333,-4.632491479999996
-12.336822000000032,11.522984000000001,-6.965492699999996
-12.336822000000032,11.522984000000001,-6.965492699999996
-12.917678500000031,6.924003266666666,-4.351637699999996
-13.498535000000032,2.3250225333333336,-1.7377826999999957
-14.079391500000034,-2.2739581999999996,0.8760723000000045
-14.079391500000034,-2.2739581999999996,0.8760723000000045
-11.925115333333366,-8.0474178,4.8718555333333375
-9.770839166666699,-13.820877399999999,8.867638766666671
-7.616563000000032,-19.594337,12.863422000000005
-7.616563000000032,-19.594337,12.863422000000005
-2.478215466666699,-18.671988,9.697434000000007
2.6601320666666344,-17.749639000000002,6.531446000000007
7.798479599999968,-16.827290000000005,3.3654580000000074
7.798479599999968,-16.82729000000001,3.3654580000000074
8.854872733333302,-11.941072666666676,1.555866066666674
9.911265866666634,-7.054855333333343,-0.2537258666666595
10.967658999999967,-2.1686380000000107,-2.063317799999993
10.967658999999967,-2.1686380000000107,-2.063317799999993
10.967658999999967,-2.1686380000000107,-2.063317799999993
12.387885333333301,-0.17393786666667754,-1.4058646433333264
13.808111666666635,1.8207622666666559,-0.7484114866666598
15.22833799999997,3.815462399999989,-0.09095832999999305
14.682587999999969,0.16755493333332186,-0.7037302199999931
14.136837999999969,-3.480352533333345,-1.3165021099999932
13.591087999999969,-7.128260000000012,-1.929273999999993
13.591087999999969,-7.128260000000012,-1.929273999999993
9.177215816666637,-11.28361900000001,-0.3909612666666596
4.763343633333303,-15.438978000000011,1.1473514666666738
0.34947144999996976,-19.59433700000001,2.685664200000007
0.34947144999996976,-19.59433700000001,2.685664200000007
0.34947144999996976,-19.59433700000001,2.685664200000007
-3.1388600333333634,-17.631552333333346,2.4335341333333402
-6.627191516666696,-15.668767666666682,2.181404066666673
-10.11552300000003,-13.705983000000012,1.9292740000000066
-10.27509900000003,-7.128260000000014,0.4005358333333399
-10.43467500000003,-0.5505370000000145,-1.1282023333333269
-10.594251000000032,6.027185999999985,-2.6569404999999935
-10.594251000000034,6.027185999999985,-2.656940499999993
-10.594251000000034,6.027185999999985,-2.656940499999993
-10.380419333333366,6.962301333333318,-2.9856670999999935
-10.1665876666667,7.897416666666651,-3.314393699999993
-9.952756000000035,8.832531999999986,-3.6431202999999925
-9.952756000000035,8.832531999999986,-3.6431202999999925
-10.0931826666667,1.782463999999986,-1.6867184666666593
-10.233609333333364,-5.267604000000014,0.2696833666666742
-10.37403600000003,-12.317672000000014,2.2260852000000075
-10.374036000000029,-12.317672000000014,2.2260852000000075
-8.283590433333362,-14.743227000000013,4.383552800000008
-6.193144866666695,-17.16878200000001,6.541020400000008
-4.102699300000027,-19.59433700000001,8.698488000000008
0.14521413333330546,-15.512383000000009,5.232497166666675
4.393127566666638,-11.430429000000009,1.7665063333333404
8.641040999999971,-7.3484750000000085,-1.6994844999999934
8.641040999999971,-7.3484750000000085,-1.6994844999999934
8.641040999999971,-7.3484750000000085,-1.6994844999999934
9.595305666666638,-4.922919733333342,-0.8984129433333267
10.549570333333305,-2.4973644666666757,-0.09734138666666
11.503834999999972,-0.07180920000000916,0.7037301700000067
11.503834999999972,-0.07180920000000916,0.7037301700000067
13.003849333333305,-1.0611804666666758,-0.20904455333332658
14.503863666666637,-2.0505517333333425,-1.12181927666666
16.00387799999997,-3.039923000000009,-2.034593999999993
13.007040566666637,-8.55806100000001,-3.8090793333333264
10.010203133333304,-14.076199000000008,-5.5835646666666605
7.01336569999997,-19.594337000000007,-7.358049999999994
7.01336569999997,-19.594337000000007,-7.358049999999994
7.01336569999997,-19.594337000000007,-7.358049999999994
0.5728777999999707,-19.594337000000007,-5.31228546666666
-5.86761010000003,-19.594337000000007,-3.266520933333327
-12.30809800000003,-19.594337000000007,-1.220756399999993
-12.30809800000003,-19.594337000000007,-1.220756399999993
-12.617675333333361,-16.169836000000007,-1.2845868333333266
-12.927252666666694,-12.745335000000006,-1.3484172666666605
-13.236830000000026,-9.320834000000007,-1.412247699999994
-12.735761166666693,-2.896304000000006,-1.8271452999999942
-12.234692333333362,3.5282259999999943,-2.242042899999994
-11.733623500000029,9.952755999999994,-2.6569404999999944
-11.733623500000029,9.952755999999994,-2.6569404999999944
-11.733623500000029,9.952755999999994,-2.6569404999999944
-11.532557666666696,8.226143333333326,-2.0250195133333273
-11.331491833333361,6.499530666666659,-1.3930985266666607
-11.130426000000028,4.772917999999993,-0.761177539999994
-11.130426000000028,4.772917999999993,-0.761177539999994
-9.062321000000027,-3.209074000000008,1.8973587400000056
-6.994216000000027,-11.191066000000008,4.555895020000006
-4.926111000000027,-19.173058000000008,7.214431300000005
-4.926111000000027,-19.17305800000001,7.214431300000005
-2.296298500000027,-19.090078000000016,7.338900533333338
0.33351399999997283,-19.007098000000013,7.4633697666666725
2.9633264999999724,-18.92411800000001,7.587839000000006
2.9633264999999724,-18.92411800000001,7.587839000000006
5.079304333333305,-14.436841000000008,4.683555733333339
7.195282166666639,-9.949564000000008,1.7792724666666724
9.311259999999972,-5.462287000000006,-1.125010799999994
9.311259999999972,-5.462287000000006,-1.125010799999994
11.605963333333307,-2.503747733333339,-1.402673066666661
13.900666666666638,0.4547915333333279,-1.6803353333333277
16.19536999999997,3.413330799999995,-1.9579975999999946
16.19536999999997,3.413330799999995,-1.9579975999999946
16.131539333333304,1.4665035333333278,-2.3824697333333273
16.067708666666636,-0.48032373333333894,-2.8069418666666603
16.003877999999972,-2.4271510000000056,-3.2314139999999933
16.003877999999972,-2.4271510000000056,-3.2314139999999925
11.057021699999972,-8.149546333333339,-0.7420283333333261
6.110165399999971,-13.871941666666672,1.7473573333333405
1.163309099999971,-19.594337000000003,4.236743000000008
1.163309099999971,-19.594337000000007,4.236743000000008
-2.902687600000029,-19.00709766666667,4.7761098666666735
-6.968684300000029,-18.419858333333337,5.31547673333334
-11.03468100000003,-17.832619000000005,5.854843600000006
-11.03468100000003,-17.832619,5.854843600000006
-11.944264333333363,-10.508080200000002,2.7590691000000063
-12.853847666666697,-3.1835414000000015,-0.336705399999994
-13.763431000000033,4.140997399999999,-3.4324798999999935
-13.763431000000034,4.140997399999999,-3.4324798999999935
-13.763431000000034,4.140997399999999,-3.4324798999999935
-13.51449233333337,6.729320266666665,-3.73567426666666
-13.265553666666705,9.31764313333333,-4.038868633333326
-13.016615000000039,11.905965999999998,-4.3420629999999925
-13.323001000000039,3.371841333333331,-1.019690533333326
-13.629387000000037,-5.162283333333335,2.3026819333333406
-13.935773000000035,-13.696408,5.625054400000007
-13.935773000000035,-13.696408,5.625054400000007
-10.651698666666704,-15.662384333333334,7.137834933333341
-7.367624333333372,-17.62836066666667,8.650615466666675
-4.083550000000039,-19.594337000000003,10.16339600000001
-4.083550000000039,-19.594337000000007,10.163396000000011
-0.08776683333337261,-15.96238733333334,6.8122998146666776
3.908016333333294,-12.330437666666674,3.4612036293333444
7.90379949999996,-8.698488000000006,0.11010744400001116
7.90379949999996,-8.698488000000006,0.11010744400001116
8.558061333333294,-4.980367100000006,0.1005328843333445
9.212323166666629,-1.2622462000000052,0.09095832466667782
9.866584999999963,2.4558746999999954,0.08138376500001115
9.866584999999963,2.4558746999999954,0.08138376500001115
11.953838999999965,2.293107199999995,0.11968200333334449
14.041092999999966,2.1303396999999946,0.15798024166667782
16.128346999999966,1.967572199999994,0.19627848000001116
16.128346999999966,1.967572199999994,0.19627848000001116
14.679396999999966,-3.0175822000000054,-1.0484143466666556
13.230446999999964,-8.002736600000006,-2.2931071733333224
11.781496999999964,-12.987891000000005,-3.5377999999999887
11.781496999999964,-12.987891000000005,-3.5377999999999887
4.115465333333298,-15.19003966666667,-2.1622548333333222
-3.5505663333333684,-17.39218833333334,-0.7867096666666556
-11.216598000000035,-19.594337000000007,0.5888355000000111
-11.216598000000035,-19.59433700000001,0.5888355000000111
-11.136810000000038,-15.464510333333346,-0.279257999999989
-11.057022000000039,-11.334683666666683,-1.1473514999999892
-10.97723400000004,-7.204857000000017,-2.015444999999989
-10.977234000000044,-7.204857000000017,-2.015444999999989
-10.875105333333375,-0.8601146666666833,-3.0303484666666556
-10.772976666666708,5.4846276666666505,-4.045251933333322
-10.67084800000004,11.829369999999983,-5.060155399999989
-10.67084800000004,11.829369999999983,-5.060155399999989
-10.67084800000004,11.829369999999983,-5.060155399999989
-10.779359666666707,9.193174199999984,-4.077167133333322
-10.887871333333374,6.556978399999983,-3.094178866666656
-10.996383000000042,3.9207825999999826,-2.1111905999999894
-11.149575666666708,-3.8633349333333507,1.9516146000000107
-11.302768333333375,-11.647452466666685,6.01441980000001
-11.455961000000043,-19.43157000000002,10.077225000000011
-11.455961000000043,-19.43157000000002,10.077225000000011
-7.326134113333374,-19.348590666666688,8.535720666666677
-3.196307226666707,-19.265611333333357,6.994216333333344
0.9335196599999597,-19.182632000000023,5.45271200000001
0.9335196599999597,-19.182632000000027,5.45271200000001
0.9335196599999597,-19.182632000000027,5.45271200000001
3.3686497733332934,-14.312372233333358,3.2314140333333436
5.803779886666628,-9.442112466666691,1.0101160666666769
8.238909999999962,-4.571852700000023,-1.2111818999999897
10.463399333333296,-2.08565846666669,-1.1122447799999897
12.687888666666629,0.4005357666666433,-1.01330765999999
14.912377999999961,2.8867299999999765,-0.9143705399999901
14.912377999999961,2.8867299999999765,-0.9143705399999901
16.21451799999996,1.8941672233333098,-1.2462886266666569
17.51665799999996,0.9016044466666431,-1.5782067133333235
18.81879799999996,-0.09095833000002355,-1.9101247999999902
18.81879799999996,-0.09095833000002355,-1.9101247999999902
18.81879799999996,-0.09095833000002355,-1.9101247999999902
13.083636466666626,-6.592084553333357,-1.3803324533333232
7.348474933333293,-13.09321077666669,-0.8505401066666565
1.613313399999959,-19.59433700000002,-0.3207477599999899
-3.0111990666667072,-19.02624666666669,1.1026702600000102
-7.635711533333374,-18.45815633333336,2.52608828000001
-12.260224000000042,-17.89006600000003,3.94950630000001
-12.260224000000042,-17.89006600000003,3.94950630000001
-11.71447400000004,-11.184682266666693,1.4090562000000102
-11.16872400000004,-4.47929853333336,-1.1313938999999897
-10.62297400000004,2.226085199999974,-3.6718439999999894
-10.62297400000004,2.226085199999974,-3.6718439999999894
-10.62297400000004,2.226085199999974,-3.6718439999999894
-10.421908333333372,5.277178466666641,-3.7260997999999894
-10.220842666666705,8.328271733333308,-3.7803555999999894
-10.019777000000039,11.379364999999973,-3.8346113999999893
-10.019777000000039,11.379364999999973,-3.8346113999999893
-11.15915000000004,4.772918333333307,-1.7696979333333225
-12.29852300000004,-1.8335283333333596,0.2952155333333442
-13.437896000000043,-8.439975000000027,2.360129000000011
-11.309152000000042,-12.158095666666691,7.188899333333345
-9.180408000000043,-15.876216333333355,12.017669666666677
-7.051664000000042,-19.59433700000002,16.846440000000012
-7.051664000000042,-19.59433700000002,16.846440000000012
-7.051664000000042,-19.59433700000002,16.846440000000012
-2.500556233333376,-17.756021833333353,11.424046966666678
2.0505515333332904,-15.917706666666689,6.001653933333344
6.601659299999956,-14.079391500000023,0.5792609000000107
6.601659299999956,-14.079391500000023,0.5792609000000107
8.002736866666623,-9.386261000000024,0.3143647333333441
9.40381443333329,-4.693130500000023,0.04946856666667739
10.804891999999958,0.0,-0.21542759999998928
12.841081999999956,1.2303309999999776,-0.5058559333333227
14.877271999999955,2.4606619999999775,-0.796284266666656
16.913461999999956,3.6909929999999775,-1.0867125999999894
16.913461999999956,3.6909929999999775,-1.0867125999999894
16.913461999999956,3.6909929999999775,-1.0867125999999894
15.435787666666627,-0.4579833333333559,-1.932465466666656
13.958113333333296,-4.60695966666669,-2.7782183333333226
12.480438999999967,-8.755936000000021,-3.623971199999989
6.359103566666633,-12.368736333333358,2.3824695333333445
0.23776813333329963,-15.981536666666692,8.388910266666679
-5.883567300000034,-19.594337000000028,14.395351000000012
-5.883567300000034,-19.594337000000028,14.39535100000001
-7.674010200000034,-17.152824333333367,11.921923000000012
-9.464453100000034,-14.711311666666697,9.448495000000012
-11.254896000000036,-12.26979900000003,6.975067000000011
-11.254896000000036,-12.26979900000003,6.975067000000011
-11.254896000000036,-12.26979900000003,6.975067000000011
-11.692134000000033,-6.375061333333363,3.6175878666666783
-12.129372000000032,-0.48032366666669607,0.26010873333334494
-12.566610000000031,5.414413999999971,-3.0973703999999884
-12.148521333333363,6.046334999999971,-3.6782269333333217
-11.730432666666696,6.67825599999997,-4.259083466666655
-11.31234400000003,7.31017699999997,-4.839939999999988
-11.31234400000003,7.31017699999997,-4.839939999999989
-10.709146333333365,-0.33670533333336383,0.027128333333344894
-10.1059486666667,-7.983587666666697,4.894196666666678
-9.502751000000034,-15.630470000000031,9.76126500000001
-9.502751000000034,-15.630470000000031,9.76126500000001
-9.502751000000034,-15.630470000000031,9.76126500000001
-8.076141666666702,-16.951759000000028,12.419801333333345
-6.649532333333369,-18.273048000000028,15.078337666666677
-5.222923000000036,-19.594337000000024,17.73687400000001
-5.222923000000036,-19.594337000000024,17.73687400000001
-0.595218666666702,-17.14644133333336,12.58576020000001
4.0324856666666316,-14.698545666666694,7.43464640000001
8.660189999999966,-12.250650000000027,2.2835326000000102
10.686805333333298,-8.24210072333336,1.4824610633333437
12.71342066666663,-4.233551446666694,0.6813895266666771
14.740035999999963,-0.225002170000027,-0.11968200999998964
14.740035999999963,-0.225002170000027,-0.11968200999998964
14.740035999999963,-0.225002170000027,-0.11968200999998964
15.126209999999965,-0.7292623466666935,-0.7643690399999897
15.512383999999967,-1.2335225233333602,-1.4090560699999897
15.898557999999968,-1.737782700000027,-2.05374309999999
15.898557999999968,-1.737782700000027,-2.0537430999999895
12.748527433333301,-7.689967466666693,1.0101162666666774
9.598496866666634,-13.642152233333361,4.073975633333345
6.448466299999967,-19.594337000000028,7.137835000000012
0.7643688666666334,-19.4730596666667,7.249538100000012
-4.919728566666699,-19.351782333333365,7.361241200000012
-10.603826000000034,-19.230505000000033,7.4729443000000115
-10.603826000000034,-19.23050500000003,7.4729443000000115
-10.476165000000035,-14.299606333333363,4.875046946666678
-10.348504000000036,-9.368707666666696,2.2771495933333448
-10.220843000000038,-4.43780900000003,-0.32074775999998845
-10.220843000000038,-4.437809000000031,-0.32074775999998845
-10.220843000000038,-4.437809000000031,-0.32074775999998845
-10.648507000000038,0.7037299999999694,-1.9101248399999886
-11.076171000000038,5.845268999999969,-3.499501919999989
-11.503835000000038,10.986807999999968,-5.088878999999989
-11.503835000000038,10.986807999999968,-5.088878999999989
-11.481494000000039,8.082524733333303,-3.7165252999999883
-11.459153000000036,5.178241466666635,-2.344171599999988
-11.436812000000034,2.2739581999999685,-0.9718178999999877
-11.599579666666699,-5.015473533333364,4.265466733333345
-11.762347333333366,-12.3049052666667,9.502751366666677
-11.925115000000034,-19.59433700000003,14.74003600000001
-11.925115000000034,-19.594337000000035,14.74003600000001
-11.925115000000034,-19.594337000000035,14.74003600000001
-7.275070133333368,-19.37412233333337,12.285756900000012
-2.6250252666667007,-19.153907666666708,9.831477800000014
2.025019599999966,-18.933693000000044,7.377198700000015
2.025019599999966,-18.933693000000044,7.377198700000015
4.600576399999966,-14.216626333333375,5.120794000000015
7.176133199999966,-9.499559666666709,2.864389300000015
9.751689999999966,-4.782493000000041,0.6079846000000148
12.770867666666632,-2.644174500000042,0.4898983533333481
15.790045333333302,-0.5058560000000419,0.37181210666668146
18.80922299999997,1.632462499999958,0.2537258600000148
18.80922299999997,1.632462499999958,0.2537258600000148
18.80922299999997,1.632462499999958,0.2537258600000148
16.725160666666635,-1.4920356666667092,0.27925801666668143
14.641098333333298,-4.616533833333377,0.30479017333334807
12.557035999999963,-7.741032000000043,0.3303223300000147
12.557035999999963,-7.741032000000043,0.3303223300000147
6.975067199999963,-11.692133666666708,3.2090735533333485
1.393098399999964,-15.643235333333374,6.0878247766666815
-4.188870400000035,-19.59433700000004,8.966576000000014
-5.749523933333369,-18.742201333333373,7.370815833333347
-7.310177466666701,-17.89006566666671,5.77505566666668
-8.870831000000033,-17.037930000000046,4.179295500000013
-8.870831000000033,-17.037930000000046,4.179295500000012
-8.870831000000033,-17.037930000000046,4.179295500000012
-9.863393333333368,-10.153821133333379,2.0473600666666787
-10.855955666666702,-3.2697122666667133,-0.08457536666665473
-11.848518000000036,3.614396599999953,-2.216510799999988
-11.848518000000036,3.614396599999953,-2.216510799999988
-12.030434666666702,5.822928399999953,-2.931411299999988
-12.212351333333368,8.031460199999954,-3.6463117999999883
-12.394268000000034,10.239991999999956,-4.3612122999999885
-12.394268000000034,10.239991999999956,-4.3612122999999885
-12.008094000000034,2.819707666666622,-1.9165078666666548
-11.621920000000031,-4.600576666666711,0.5281965666666785
-11.235746000000029,-12.020861000000044,2.9729010000000122
-11.235746000000029,-12.020861000000044,2.9729010000000122
-9.54104900000003,-14.545353000000043,7.3006023333333445
-7.846352000000029,-17.069845000000043,11.628303666666676
-6.151655000000029,-19.594337000000042,15.95600500000001
-6.151655000000029,-19.594337000000042,15.95600500000001
-1.7601233333333628,-17.27729366666671,11.293194066666677
2.631408333333303,-14.960250333333382,6.630383133333344
7.02293999999997,-12.643207000000052,1.9675722000000107
7.02293999999997,-12.643207000000052,1.9675722000000107
9.161258666666638,-8.966575800000053,1.7026760000000107
11.299577333333305,-5.289944600000052,1.4377798000000104
13.437895999999974,-1.6133134000000513,1.1728836000000102
13.437895999999974,-1.6133134000000513,1.17288360000001
14.440032999999973,-0.8824553000000511,0.5313880666666768
15.442169999999974,-0.15159720000005117,-0.11010746666665654
16.444306999999974,0.5792608999999488,-0.7516029999999899
16.444306999999974,0.5792608999999488,-0.7516029999999899
14.26449866666664,-5.765481400000051,0.23457670000001016
12.084690333333306,-12.11022370000005,1.2207564000000104
9.904881999999972,-18.454966000000052,2.2069361000000103
9.904881999999972,-18.454966000000052,2.2069361000000107
3.3686489999999716,-18.834756333333385,4.0580178666666775
-3.1675840000000286,-19.214546666666717,5.909099633333344
-9.70381700000003,-19.59433700000005,7.760181400000011
-9.70381700000003,-19.59433700000005,7.760181400000011
-10.24956700000003,-15.936855333333384,5.025048576666677
-10.795317000000031,-12.27937366666672,2.289915753333344
-11.34106700000003,-8.621892000000054,-0.44521706999998933
-11.34106700000003,-8.621892000000054,-0.44521706999998933
-11.570856666666698,-2.621834000000053,-2.2228938466666563
-11.800646333333363,3.3782239999999466,-4.000570623333323
-12.03043600000003,9.378281999999947,-5.778247399999991
-12.285757333333363,7.8272032333332815,-5.060155333333324
-12.541078666666694,6.276124466666613,-4.342063266666656
-12.796400000000027,4.725045699999947,-3.623971199999989
-12.796400000000027,4.725045699999947,-3.623971199999989
-12.796400000000027,4.725045699999947,-3.623971199999989
-13.632578166666695,-3.052688866666719,1.5782065333333442
-14.468756333333362,-10.830423433333387,6.780384266666677
-15.30493450000003,-18.608158000000053,11.98256200000001
-10.875104666666696,-18.936884333333385,12.119797333333343
-6.445274833333362,-19.265610666666717,12.257032666666674
-2.0154450000000286,-19.59433700000005,12.394268000000006
-2.0154450000000286,-19.59433700000005,12.394268000000006
2.206935999999971,-16.677287666666714,8.430400150000006
6.429316999999972,-13.760238333333382,4.466532300000005
10.651697999999971,-10.843189000000047,0.5026644500000051
10.651697999999971,-10.843189000000047,0.5026644500000051
12.585759333333305,-6.904853366666714,0.5186220333333385
14.519820666666638,-2.96651773333338,0.5345796166666718
16.453881999999968,0.9718178999999534,0.550537200000005
16.45388199999997,0.9718178999999534,0.550537200000005
15.324083666666638,-0.4164934000000466,0.020744866666671635
14.194285333333305,-1.8048047000000462,-0.5090474666666617
13.064486999999971,-3.193116000000046,-1.0388397999999952
13.064486999999971,-3.193116000000046,-1.0388397999999952
8.902744966666639,-8.660189666666712,1.807996133333338
4.741002933333306,-14.12726333333338,4.654832066666671
0.5792608999999723,-19.594337000000042,7.501668000000005
0.5792608999999723,-19.594337000000042,7.501668000000005
-4.600576400000027,-19.271994000000046,9.00806566666667
-9.780413700000027,-18.949651000000046,10.514463333333337
-14.960251000000028,-18.627308000000045,12.020861000000004
-14.960251000000028,-18.627308000000045,12.020861000000005
-14.960251000000028,-18.627308000000045,12.020861000000005
-14.960251000000028,-18.627308000000045,12.020861000000005
-14.960251000000028,-18.627308000000045,12.020861000000005
-14.960251000000028,-18.627308000000045,12.020861000000005
-14.028327000000028,-8.77508533333338,6.241017866666673
-13.096403000000029,1.0771373333332874,0.4611747333333393
-12.164479000000028,10.929359999999955,-5.318668399999994
-12.164479000000028,10.929359999999955,-5.318668399999994
-11.746390000000028,7.654860599999954,-3.815462399999994
-11.32830100000003,4.380361199999954,-2.312256399999994
-10.91021200000003,1.1058617999999534,-0.8090503999999944
-10.91021200000003,1.1058617999999532,-0.8090503999999944
-10.983616666666697,-5.794204466666713,4.389936066666673
-11.057021333333362,-12.694270733333378,9.58892253333334
-11.130426000000028,-19.594337000000042,14.787909000000006
-11.130426000000028,-19.594337000000042,14.787909000000006
-6.528254066666695,-19.377314000000045,11.902774666666673
-1.926082133333362,-19.160291000000047,9.01764033333334
2.6760897999999713,-18.94326800000005,6.1325060000000065
2.6760897999999713,-18.94326800000005,6.1325060000000065
4.469724199999971,-13.840027200000051,4.185678700000007
6.263358599999971,-8.736786400000051,2.2388514000000073
8.05699299999997,-3.6335456000000512,0.2920241000000076
8.05699299999997,-3.6335456000000512,0.29202410000000756
11.04425599999997,-1.6484200666667181,-0.26649193333332577
14.031518999999973,0.3367054666666152,-0.825007966666659
17.018781999999973,2.3218309999999485,-1.3835239999999924
17.018781999999973,2.3218309999999485,-1.3835239999999924
15.697492499999973,-1.6037390000000513,-0.9303281339999926
14.37620299999997,-5.529309000000051,-0.47713226799999253
13.05491349999997,-9.454879000000052,-0.023936401999992512
13.05491349999997,-9.454879000000053,-0.023936401999992512
8.05060979999997,-12.834698333333385,2.5101306320000076
3.046306099999971,-16.21451766666672,5.044197666000008
-1.957997600000029,-19.594337000000056,7.578264700000008
-1.957997600000029,-19.594337000000056,7.578264700000008
-5.4080310666666955,-18.151770333333392,6.406976700000008
-8.858064533333362,-16.709203666666728,5.235688700000009
-12.30809800000003,-15.266637000000065,4.064400700000009
-12.30809800000003,-15.266637000000065,4.06440070000001
-11.54213300000003,-8.286782333333397,1.5016100666666763
-10.776168000000032,-1.3069276666667318,-1.0611805666666572
-10.010203000000033,5.672926999999935,-3.6239711999999904
-10.010203000000034,5.672926999999935,-3.6239711999999904
-10.195311333333366,6.295273533333268,-4.070784133333324
-10.380419666666699,6.917620066666601,-4.517597066666657
-10.56552800000003,7.539966599999933,-4.964409999999991
-10.565528000000029,7.539966599999933,-4.964409999999991
-10.849573333333362,0.6111760666666003,-1.1601178999999915
-11.133618666666697,-6.317614466666733,2.6441742000000086
-11.41766400000003,-13.246405000000067,6.448466300000008
-11.41766400000003,-13.246405000000067,6.448466300000008
-8.768702066666696,-15.3623823333334,8.931468866666675
-6.119740133333361,-17.478359666666734,11.414471433333341
-3.470778200000027,-19.594337000000067,13.89747400000001
-0.19947003333336047,-17.254953000000068,9.981479000000009
3.0718381333333062,-14.915569000000067,6.065484000000009
6.343146299999972,-12.576185000000066,2.1494890000000093
6.343146299999972,-12.576185000000066,2.1494890000000093
6.343146299999972,-12.576185000000066,2.1494890000000093
7.674010199999972,-8.918702966666734,1.7218252333333428
9.004874099999972,-5.2612209333334,1.294161466666676
10.33573799999997,-1.6037389000000666,0.8664977000000095
10.33573799999997,-1.6037389000000666,0.8664977000000095
12.630440999999971,-0.5952185333333999,0.05266006666667622
14.925143999999973,0.41330183333326675,-0.7611775666666571
17.219846999999973,1.4218221999999334,-1.5750151999999904
17.219846999999973,1.4218221999999334,-1.5750151999999904
14.90918666666664,-3.837803200000067,-0.8441570899999903
12.598526333333306,-9.097428600000066,-0.11329897999999032
10.287865999999973,-14.357054000000069,0.6175591300000097
10.287865999999973,-14.357054000000067,0.6175591300000097
4.236743533333306,-16.102815000000064,3.8058877533333426
-1.8143789333333604,-17.84857600000006,6.994216376666675
-7.865501400000028,-19.594337000000056,10.182545000000008
-7.865501400000028,-19.594337000000056,10.18254500000001
-8.720828600000027,-16.450690000000062,6.888896223333343
-9.576155800000029,-13.307043000000059,3.595247446666676
-10.431483000000028,-10.16339600000006,0.3015986700000101
-10.431483000000028,-10.163396000000061,0.3015986700000101
-10.591059333333362,-3.675035666666727,-1.460120453333323
-10.750635666666696,2.8133246666666065,-3.2218395766666568
-10.91021200000003,9.30168499999994,-4.98355869999999
-10.91021200000003,9.30168499999994,-4.98355869999999
-10.84957300000003,7.555923566666607,-4.0420602333333235
-10.788934000000031,5.810162133333274,-3.1005617666666567
-10.728295000000031,4.064400699999941,-2.1590632999999904
-10.728295000000031,4.064400699999941,-2.1590632999999904
-10.434675000000032,-3.5633322000000596,2.6346001333333433
-10.141055000000033,-11.19106510000006,7.4282635666666765
-9.847435000000035,-18.81879800000006,12.22192700000001
-9.847435000000035,-18.818798000000058,12.22192700000001
-6.556977866000033,-19.077311000000055,11.500643333333343
-3.2665207320000333,-19.335824000000056,10.779359666666677
0.0239364019999672,-19.594337000000053,10.058076000000009
0.0239364019999672,-19.594337000000053,10.058076000000009
2.2835327013333004,-15.368764566666721,6.994216566666676
4.543129000666633,-11.143192133333391,3.930357133333343
6.802725299999967,-6.917619700000059,0.8664977000000095
6.802725299999967,-6.917619700000059,0.8664977000000095
8.870830199999967,-4.654831986666726,0.6079845766666762
10.938935099999968,-2.3920442733333926,0.3494714533333429
13.007039999999968,-0.12925656000005917,0.0909583300000096
13.840026833333303,0.21223609333327412,-0.825007946666657
14.673013666666634,0.5537287466666074,-1.7409742233333239
15.506000499999965,0.8952213999999407,-2.656940499999991
15.506000499999965,0.8952213999999407,-2.656940499999991
15.506000499999965,0.8952213999999407,-2.656940499999991
13.485768333333299,-5.203773733333393,-2.2388513666666574
11.465536166666633,-11.302768866666725,-1.8207622333333242
9.445303999999966,-17.401764000000057,-1.4026730999999908
9.445303999999966,-17.401764000000057,-1.4026730999999912
2.8197083333333004,-18.132621666666722,2.0537432666666753
-3.8058873333333665,-18.863479333333387,5.510159633333342
-10.431483000000034,-19.594337000000053,8.966576000000009
-10.594250666666701,-15.61451166666672,5.69526780000001
-10.757018333333368,-11.634686333333386,2.423959600000009
-10.919786000000036,-7.654861000000053,-0.8473485999999907
-10.919786000000036,-7.654861000000053,-0.8473485999999907
-10.919786000000036,-7.654861000000053,-0.8473485999999907
-10.814466000000033,-2.4143850000000526,-1.839911399999991
-10.709146000000032,2.826090999999947,-2.832474199999991
-10.603826000000032,8.066566999999948,-3.825036999999991
-10.603826000000032,8.066566999999948,-3.825036999999991
-10.3261636666667,6.346337666666614,-3.196307499999991
-10.048501333333368,4.62610833333328,-2.5675779999999913
-9.770839000000036,2.905878999999947,-1.9388484999999909
-9.770839000000036,2.905878999999947,-1.9388484999999909
-9.722966000000035,-3.94312366666672,2.3186393333333424
-9.675093000000034,-10.792126333333385,6.576127166666676
-9.627220000000035,-17.641129000000053,10.833615000000009
-7.3771984333333664,-18.292198333333385,11.794262666666675
-5.1271768666667,-18.94326766666672,12.75491033333334
-2.8771553000000334,-19.594337000000056,13.715558000000003
-2.8771553000000334,-19.594337000000056,13.715558000000001
-2.8771553000000334,-19.594337000000056,13.715558000000001
0.7069217999999665,-16.287922666666727,9.461261600000002
4.290998899999966,-12.981508333333394,5.206965200000003
7.875075999999967,-9.675094000000062,0.9526688000000038
7.875075999999967,-9.67509400000006,0.9526688000000038
10.0548843333333,-5.966547366666727,0.2218106666666705
12.234692666666634,-2.2580007333333927,-0.5090474666666628
14.414500999999968,1.4505458999999405,-1.2399055999999962
14.934718666666635,1.0005415599999408,-1.8079961999999963
15.454936333333302,0.5505372199999408,-2.376086799999996
15.97515399999997,0.10053287999994083,-2.944177399999996
15.97515399999997,0.10053287999994083,-2.944177399999996
15.97515399999997,0.10053287999994083,-2.944177399999996
12.770867866666636,-6.413359746666725,-0.4260679333333295
9.566581733333303,-12.927252373333394,2.092041533333337
6.36229559999997,-19.44114500000006,4.6101510000000046
6.36229559999997,-19.44114500000006,4.6101510000000046
1.3292680666666365,-19.42837900000006,6.483573333333337
-3.7037594666666966,-19.41561300000006,8.35699566666667
-8.73678700000003,-19.40284700000006,10.230418000000002
-8.736787000000028,-19.40284700000006,10.230418000000002
-10.070842333333362,-13.923006833333396,6.978258910000004
-11.404897666666697,-8.443166666666729,3.7260998200000035
-12.73895300000003,-2.9633265000000626,0.47394073000000425
-12.73895300000003,-2.9633265000000626,0.47394073000000425
-12.636824333333363,0.923944999999938,-1.1250108466666624
-12.534695666666694,4.811216499999939,-2.723962423333329
-12.432567000000027,8.698487999999939,-4.3229139999999955
-12.432567000000027,8.698487999999939,-4.322913999999995
-11.602771666666696,6.56974409999994,-2.953751866666662
-10.772976333333363,4.44100019999994,-1.5845897333333285
-9.943181000000031,2.312256299999939,-0.2154275999999952
-9.943181000000033,2.312256299999939,-0.2154275999999952
-10.201694000000034,-4.989941466666727,6.017610933333338
-10.460207000000034,-12.292139233333394,12.250649466666673
-10.718720000000033,-19.594337000000063,18.483688000000004
-10.718720000000033,-19.594337000000063,18.483688000000004
-7.8750756666667,-18.876245333333397,16.39324266666667
-5.031431333333368,-18.15815366666673,14.302797333333336
-2.1877870000000352,-17.440062000000065,12.212352000000001
-2.1877870000000352,-17.440062000000065,12.212352000000001
2.063317999999965,-13.677259666666728,7.763372866666668
6.314422999999965,-9.914457333333393,3.314393733333335
10.565527999999965,-6.151655000000061,-1.1345853999999982
10.565527999999965,-6.151655000000062,-1.1345853999999982
12.984699999999966,-3.1803497666667284,-1.6484201999999983
15.403871999999964,-0.2090445333333951,-2.1622549999999987
17.823043999999964,2.7622606999999384,-2.6760897999999984
17.823043999999964,2.7622606999999384,-2.6760897999999984
16.390051666666633,-0.400535733333395,-2.3282140333333317
14.9570593333333,-3.563332166666728,-1.9803382666666647
13.524066999999969,-6.726128600000062,-1.632462499999998
13.524066999999969,-6.726128600000062,-1.632462499999998
7.753798466666635,-11.015531400000063,2.720770833333335
1.9835299333333019,-15.304934200000062,7.074004166666668
-3.7867386000000316,-19.594337000000063,11.427237500000004
-3.7867386000000316,-19.594337000000063,11.427237500000004
-5.542074733333365,-17.787937000000067,11.344258000000005
-7.297410866666699,-15.981537000000069,11.261278500000008
-9.052747000000032,-14.175137000000069,11.17829900000001
-9.052747000000034,-14.175137000000069,11.17829900000001
-9.052747000000034,-14.175137000000069,11.17829900000001
-9.375090333333366,-8.724020533333402,6.199527666666675
-9.6974336666667,-3.2729040666667353,1.2207563333333418
-10.019777000000035,2.1782123999999308,-3.758014999999992
-10.533612000000035,4.377169766666598,-4.348446333333325
-11.047447000000036,6.576127133333265,-4.9388776666666585
-11.561282000000036,8.775084499999933,-5.529308999999991
-11.561282000000036,8.775084499999933,-5.529308999999991
-11.574048000000035,1.7026756666665985,-1.7856557999999907
-11.586814000000034,-5.369733166666735,1.957997400000009
-11.599580000000033,-12.442142000000068,5.701650600000009
-11.599580000000032,-12.442142000000066,5.701650600000009
-9.474027666666698,-14.826207000000062,9.844243733333341
-7.348475333333365,-17.21027200000006,13.986836866666673
-5.222923000000033,-19.594337000000056,18.129430000000006
-5.222923000000033,-19.594337000000056,18.12943000000001
-1.3101193333333647,-17.50389166666673,12.659164566666675
2.6026843333333027,-15.413446333333397,7.188899133333341
6.515487999999969,-13.323001000000062,1.7186337000000087
6.515487999999969,-13.323001000000062,1.7186337000000087
7.833585999999969,-7.8655014666667284,1.1154363566666754
9.15168399999997,-2.4080019333333955,0.512239013333342
10.469781999999968,3.049497599999938,-0.09095832999999136
10.469781999999967,3.049497599999938,-0.09095832999999136
13.201723333333298,2.6409829666666043,-1.3356512199999917
15.933664666666632,2.232468333333271,-2.580344109999992
18.665605999999965,1.8239536999999377,-3.8250369999999925
18.66560599999997,1.8239536999999377,-3.8250369999999925
18.66560599999997,1.8239536999999377,-3.8250369999999925
16.035793333333302,-3.282478533333396,-3.0846042999999916
13.405980666666636,-8.38891076666673,-2.3441715999999913
10.77616799999997,-13.495343000000062,-1.603738899999991
4.006953666666637,-15.528341000000061,0.004787300000008932
-2.762260666666696,-17.561339000000064,1.613313500000009
-9.531475000000029,-19.594337000000063,3.2218397000000087
-9.531475000000029,-19.594337000000067,3.2218397000000087
-10.552761333333363,-15.57940500000007,2.1367228133333422
-11.574047666666695,-11.564473000000069,1.0516059266666753
-12.59533400000003,-7.549541000000068,-0.033510959999991506
-12.59533400000003,-7.549541000000069,-0.033510959999991506
-12.59533400000003,-7.549541000000069,-0.033510959999991506
-12.04320100000003,-1.2430973333334023,-0.7069216733333249
-11.491068000000029,5.063346333333264,-1.3803323866666581
-10.93893500000003,11.36978999999993,-2.0537430999999917
-10.702762666666695,9.087853233333263,-2.379278166666658
-10.466590333333363,6.805916466666595,-2.7048132333333244
-10.230418000000029,4.523979699999928,-3.030348299999991
-10.230418000000029,4.523979699999928,-3.030348299999991
-10.230418000000029,4.523979699999928,-3.030348299999991
-11.098511666666695,-3.515459200000072,2.404810466666676
-11.966605333333362,-11.554898100000072,7.839969233333342
-12.834699000000029,-19.59433700000007,13.27512800000001
-12.834699000000029,-19.59433700000007,13.27512800000001
-8.20061150000003,-19.511358000000072,10.929360766666676
-3.5665240000000296,-19.428379000000074,8.583593533333342
1.0675634999999708,-19.345400000000073,6.237826300000009
3.2122649999999706,-14.181520166666738,4.555895133333342
5.356966499999971,-9.017640333333405,2.8739639666666754
7.501667999999971,-3.853760500000071,1.1920328000000087
7.501667999999971,-3.853760500000071,1.1920328000000084
7.501667999999971,-3.853760500000071,1.1920328000000084
9.352749833333304,-1.8590604666667379,0.8473486166666752
11.203831666666638,0.1356395666665954,0.5026644333333418
13.05491349999997,2.1303395999999286,0.15798025000000834
13.05491349999997,2.130339599999929,0.15798025000000834
13.415555333333304,1.6356540166665956,0.027127923333341686
13.77619716666664,1.140968433333262,-0.10372440333332499
14.136838999999974,0.6462828499999285,-0.23457672999999168
14.136838999999974,0.6462828499999285,-0.23457672999999168
11.50383476666664,-5.404839433333404,-0.26968345333332505
8.870830533333306,-11.455961716666737,-0.30479017666665836
6.237826299999973,-17.50708400000007,-0.3398968999999917
0.7452201999999731,-18.20283500000007,1.8271452666666752
-4.747385900000027,-18.898586000000073,3.9941874333333423
-10.239992000000028,-19.594337000000074,6.161229600000008
-10.239992000000028,-19.594337000000078,6.161229600000008
-10.239992000000028,-19.594337000000078,6.161229600000008
-11.430429000000027,-14.74003523333341,3.939931583333341
-12.620866000000028,-9.885733466666744,1.7186335666666743
-13.811303000000029,-5.031431700000078,-0.5026644499999925
-13.811303000000029,-5.031431700000078,-0.5026644499999925
-14.337904000000028,0.9175618666665892,-1.4377798333333258
-14.864505000000028,6.866555433333257,-2.372895216666659
-15.391106000000027,12.815548999999924,-3.3080105999999927
-14.168754000000026,7.9484808333332575,-2.2611920033333264
-12.946402000000026,3.0814126666665906,-1.21437340666666
-11.724050000000025,-1.7856555000000762,-0.16755480999999342
-11.724050000000025,-1.7856555000000762,-0.16755480999999342
-11.724050000000025,-1.7856555000000762,-0.16755480999999342
-10.875105666666691,-7.721882666666743,1.507993260000007
-10.026161333333357,-13.65810983333341,3.1835413300000073
-9.177217000000025,-19.594337000000078,4.859089400000007
-9.177217000000025,-19.59433700000008,4.859089400000007
-4.022911666666691,-18.70071200000008,2.3633207000000067
1.1313936666666427,-17.80708700000008,-0.13244799999999332
6.285698999999976,-16.91346200000008,-2.6282166999999936
6.959109666666642,-11.28362013400008,-2.5675778999999936
7.632520333333308,-5.653778268000078,-2.5069390999999936
8.305930999999974,-0.023936402000078516,-2.446300299999993
8.305930999999974,-0.023936402000078516,-2.446300299999993
8.305930999999974,-0.023936402000078516,-2.446300299999993
11.698516666666642,1.0005415986665882,-2.1303397666666597
15.091102333333309,2.025019599333255,-1.8143792333333266
18.483687999999976,3.049497599999922,-1.4984186999999933
18.483687999999972,3.049497599999922,-1.4984186999999933
16.92303499999997,-1.214373266666745,-1.1952242999999934
15.362381999999968,-5.478244133333412,-0.8920298999999933
13.801728999999968,-9.742115000000078,-0.5888354999999933
13.801728999999968,-9.742115000000078,-0.5888354999999933
7.7601813333333025,-13.026189000000079,1.4377796666666736
1.7186336666666346,-16.310263000000077,3.46439483333334
-4.322914000000033,-19.594337000000078,5.491010000000006
-4.322914000000033,-19.594337000000078,5.491010000000006
-6.122931333333366,-18.69752033333341,2.7494943333333395
-7.922948666666699,-17.800703666666745,0.007978666666672574
-9.722966000000032,-16.90388700000008,-2.7335369999999943
-9.722966000000033,-16.90388700000008,-2.7335369999999943
-10.744252333333366,-8.73997833333341,-3.703758999999994
-11.7655386666667,-0.5760696666667435,-4.673980999999993
-12.786825000000034,7.587838999999923,-5.644202999999993
-12.786825000000034,7.587838999999923,-5.644202999999993
-12.3846936666667,8.641040666666589,-4.645257333333325
-11.982562333333364,9.694242333333255,-3.6463116666666586
-11.580431000000031,10.747443999999922,-2.647365999999992
-11.580431000000027,10.747443999999922,-2.6473659999999914
-12.298523000000026,2.4558746666665865,0.8186248333333417
-13.016615000000025,-5.835694666666747,4.284615666666675
-13.734707000000023,-14.127264000000082,7.750606500000008
-13.734707000000023,-14.127264000000082,7.750606500000008
-11.047447000000025,-15.949621666666745,10.022969000000009
-8.360187000000025,-17.771979333333412,12.295331500000009
-5.672927000000025,-19.594337000000078,14.567694000000008
-5.672927000000025,-19.59433700000008,14.567694000000008
-0.773943666666692,-16.533669333333417,9.968713376666674
4.125039666666641,-13.473001666666752,5.369732753333341
9.024022999999973,-10.412334000000085,0.7707521300000089
9.024022999999973,-10.412334000000085,0.7707521300000089
10.539994999999974,-5.969738100000083,-0.09095831333332449
12.055966999999974,-1.5271422000000836,-0.9526687566666578
13.571938999999974,2.9154536999999165,-1.8143791999999912
13.571938999999974,2.9154536999999165,-1.8143791999999912
14.62194933333331,2.411193499999916,-1.8431028666666576
15.671959666666643,1.9069332999999158,-1.8718265333333244
16.721969999999974,1.4026730999999153,-1.900550199999991
16.721969999999974,1.4026730999999153,-1.9005501999999914
13.473002333333307,-5.04100593333342,0.17074643333334208
10.224034666666642,-11.484684966666755,2.242043066666675
6.9750669999999735,-17.92836400000009,4.313339700000008
6.9750669999999735,-17.92836400000009,4.313339700000008
2.478215333333306,-18.483688333333422,6.231443133333342
-2.018636333333361,-19.039012666666753,8.149546566666675
-6.515488000000027,-19.594337000000085,10.06765000000001
-6.515488000000027,-19.594337000000085,10.06765000000001
-7.7537980000000255,-15.601745666666753,5.893141766666677
-8.992108000000025,-11.609154333333422,1.7186335333333431
-10.230418000000023,-7.616563000000088,-2.4558746999999905
-10.230418000000022,-7.616563000000088,-2.4558746999999905
-10.705954333333354,-2.009062000000088,-3.142051566666657
-11.181490666666688,3.598438999999912,-3.8282284333333236
-11.65702700000002,9.205939999999911,-4.51440529999999
-11.65702700000002,9.205939999999913,-4.51440529999999
-11.041063666666687,6.620808633333247,-3.6303541999999904
-10.425100333333354,4.035677266666581,-2.7463030999999902
-9.809137000000021,1.4505458999999146,-1.8622519999999902
-9.809137000000021,1.4505458999999146,-1.8622519999999902
-7.699542200000022,-5.564415066666752,3.247371833333343
-5.589947400000022,-12.57937603333342,8.356995666666677
-3.4803526000000224,-19.59433700000009,13.466619500000009
-3.4803526000000224,-19.594337000000092,13.466619500000009
-1.9611890333333555,-19.556039000000094,12.55065300000001
-0.4420254666666888,-19.517741000000097,11.634686500000008
1.0771380999999778,-19.4794430000001,10.718720000000006
1.0771380999999778,-19.4794430000001,10.718720000000006
3.1069448333333107,-15.474085333333429,7.022939810000007
5.136751566666644,-11.46872766666676,3.3271596200000064
7.166558299999977,-7.4633700000000935,-0.3686205699999932
7.166558299999977,-7.4633700000000935,-0.3686205699999932
7.166558299999977,-7.4633700000000935,-0.3686205699999932
9.592113866666644,-3.968655333333428,-0.9047959466666599
12.01766943333331,-0.4739406666667619,-1.4409713233333266
14.443224999999977,3.020773999999905,-1.9771466999999932
14.905994999999978,1.3196937333332377,-1.9005501999999932
15.36876499999998,-0.38138653333342915,-1.8239536999999928
15.831534999999981,-2.082466800000096,-1.7473571999999926
15.831534999999981,-2.082466800000096,-1.7473571999999926
15.831534999999981,-2.082466800000096,-1.7473571999999926
11.733623333333313,-7.919756866666763,0.2664920000000079
7.635711666666644,-13.757046933333429,2.280341200000008
3.5377999999999776,-19.5943370000001,4.294190400000009
3.537799999999977,-19.5943370000001,4.294190400000009
-0.27606650000002286,-19.137950000000103,5.053772133333342
-4.089933000000023,-18.681563000000107,5.813353866666675
-7.903799500000023,-18.225176000000108,6.572935600000008
-9.170833000000023,-12.234692620000109,3.5729067333333417
-10.437866500000025,-6.244209240000109,0.5728778666666748
-11.704900000000025,-0.2537258600001084,-2.427150999999992
-11.704900000000025,-0.2537258600001084,-2.427150999999992
-11.704900000000025,-0.2537258600001084,-2.427150999999992
-11.752772666666692,3.5888644266665577,-2.9058790333333255
-11.800645333333357,7.431454713333224,-3.384607066666659
-11.848518000000022,11.274044999999893,-3.863335099999992
-11.848518000000022,11.274044999999893,-3.863335099999992
-11.59319666666669,4.559086333333227,-2.050551666666659
-11.337875333333358,-2.155872333333438,-0.23776823333332553
-11.082554000000025,-8.870831000000104,1.575015200000008
-11.082554000000025,-8.870831000000104,1.575015200000008
-11.082554000000025,-8.870831000000104,1.575015200000008
-11.082554000000025,-8.870831000000104,1.575015200000008
-11.082554000000025,-8.870831000000104,1.575015200000008
-6.189953500000025,-10.134672666666773,2.8580062333333416
-1.2973530000000253,-11.398514333333443,4.140997266666676
3.5952474999999744,-12.662356000000111,5.423988300000009
3.5952474999999744,-12.662356000000111,5.423988300000009
5.695267833333308,-8.64742371000011,3.1580090666666756
7.795288166666642,-4.632491420000109,0.8920298333333418
9.895308499999976,-0.617559130000109,-1.3739493999999917
9.895308499999976,-0.617559130000109,-1.3739493999999917
12.330437999999978,0.3813866466665578,-1.9643806666666583
14.76556749999998,1.3803324233332246,-2.5548119333333252
17.20069699999998,2.3792781999998915,-3.145243199999992
17.20069699999998,2.3792781999998915,-3.145243199999992
15.22833799999998,-2.1271482000001085,-1.9675722333333254
13.255978999999977,-6.6335746000001095,-0.7899012666666588
11.283619999999976,-11.14000100000011,0.3877697000000078
11.283619999999976,-11.14000100000011,0.3877697000000078
6.237826499999976,-13.958113000000111,3.3877986333333414
1.1920329999999755,-16.77622500000011,6.387827566666675
-3.853760500000025,-19.59433700000011,9.387856500000007
-3.853760500000025,-19.59433700000011,9.387856500000007
-6.777193000000025,-17.235804000000112,8.618700200000008
-9.700625500000024,-14.877271000000112,7.84954390000001
-12.624058000000025,-12.518738000000113,7.080387600000009
-11.494260000000025,-7.811245700000112,3.3399259333333426
-10.364462000000026,-3.103753400000112,-0.4005357333333235
-9.234664000000029,1.6037388999998885,-4.14099739999999
-9.234664000000029,1.6037388999998885,-4.14099739999999
-9.234664000000029,1.6037388999998885,-4.14099739999999
-9.505943000000029,3.7388659333332215,-4.386744499999991
-9.777222000000029,5.873992966666555,-4.632491599999991
-10.048501000000028,8.009119999999887,-4.878238699999991
-10.048501000000028,8.009119999999887,-4.878238699999991
-9.936797666666694,2.4877899999998885,-2.229276899999991
-9.825094333333361,-3.033540000000111,0.41968490000000874
-9.713391000000028,-8.554870000000111,3.068646700000009
-9.713391000000028,-8.55487000000011,3.068646700000009
-8.55806093333336,-12.234692333333443,7.897416466666676
-7.402730866666694,-15.914514666666777,12.726186233333342
-6.247400800000027,-19.594337000000113,17.554956000000008
-6.247400800000027,-19.594337000000113,17.554956000000008
-2.3314055333333603,-16.948567000000114,12.617674533333343
1.5845897333333065,-14.302797000000117,7.680393066666675
5.500584999999973,-11.657027000000118,2.743111600000008
5.500584999999973,-11.657027000000118,2.743111600000008
6.710170999999974,-7.4697526866667845,0.8728807333333418
7.919756999999973,-3.282478373333452,-0.9973501333333249
9.129342999999972,0.9047959399998812,-2.867580999999992
9.129342999999972,0.9047959399998812,-2.867580999999992
12.237883999999973,0.9079874733332146,-2.7526862666666587
15.346424999999973,0.9111790066665478,-2.6377915333333255
18.454965999999974,0.914370539999881,-2.5228967999999923
18.45496599999997,0.9143705399998808,-2.5228967999999923
15.346424999999973,-4.642065973333453,-1.6739523993333254
12.237883999999973,-10.198502486666788,-0.8250079986666586
9.129342999999972,-15.754939000000121,0.023936402000007906
9.129342999999972,-15.754939000000121,0.023936402000007906
3.3271596666666388,-17.034738333333454,2.3792782680000077
-2.475023666666695,-18.314537666666787,4.734620134000008
-8.277207000000027,-19.59433700000012,7.089962000000008
-8.277207000000029,-19.594337000000124,7.089962000000008
-8.676147333333363,-16.820906333333458,4.865472466666675
-9.075087666666695,-14.047475666666793,2.640982933333342
-9.474028000000029,-11.274045000000129,0.4164934000000085
-9.474028000000029,-11.274045000000129,0.4164934000000085
-9.288919666666697,-5.567607000000128,-1.7569317333333248
-9.103811333333365,0.1388309999998718,-3.930356866666658
-8.918703000000033,5.845268999999871,-6.103781999999992
-8.918703000000034,5.845268999999871,-6.103781999999992
-9.103811333333367,5.873992799999871,-5.471861099999992
-9.288919666666699,5.90271659999987,-4.839940199999993
-9.47402800000003,5.931440399999869,-4.208019299999993
-9.474028000000029,5.931440399999869,-4.208019299999993
-9.244238333333362,-0.9654347333334643,-0.2696833999999931
-9.014448666666697,-7.862309866666798,3.668652500000007
-8.78465900000003,-14.75918500000013,7.606988400000007
-8.784659000000032,-14.75918500000013,7.606988400000007
-7.006982333333364,-16.37090233333346,10.21126860000001
-5.229305666666698,-17.982619666666793,12.815548800000009
-3.4516290000000307,-19.594337000000124,15.419829000000009
-3.4516290000000307,-19.594337000000124,15.419829000000009
-0.036702533333364006,-16.897503000000125,10.444249283333342
3.378223933333303,-14.200669000000124,5.468669566666676
6.79315039999997,-11.503835000000123,0.49308985000000877
6.793150399999969,-11.503835000000123,0.49308985000000877
9.333600599999968,-7.3899653200001225,-0.07819223333332438
11.874050799999969,-3.2760956400001224,-0.6494743166666576
14.414500999999968,0.8377740399998773,-1.2207563999999909
14.414500999999968,0.8377740399998773,-1.2207563999999906
15.697491999999968,1.2941613933332106,-1.753740266666658
16.980482999999968,1.750548746666544,-2.286724133333325
18.26347399999997,2.206936099999877,-2.819707999999992
18.26347399999997,2.206936099999877,-2.819707999999992
15.624086666666633,-3.962272600000123,-1.2271394666666584
12.984699333333301,-10.131481300000123,0.36542906666667513
10.345311999999968,-16.300690000000124,1.9579976000000088
10.345311999999966,-16.30069000000012,1.9579976000000088
3.6271623333333003,-17.39857233333345,4.042060400000008
-3.0909873333333664,-18.496454666666782,6.126123200000009
-9.809137000000034,-19.594337000000113,8.210186000000009
-9.809137000000034,-19.594337000000113,8.210186000000009
-9.805945333333367,-15.831535000000116,5.462287013333342
-9.802753666666701,-12.068733000000117,2.7143880266666756
-9.799562000000035,-8.305931000000118,-0.03351095999999091
-9.799562000000035,-8.305931000000117,-0.03351095999999091
-9.799562000000035,-8.305931000000117,-0.03351095999999091
-9.888924666666702,-2.5835353333334514,-1.0228821733333242
-9.978287333333368,3.1388603333332146,-2.0122533866666577
-10.067650000000034,8.861255999999882,-3.001624599999991
-9.726157333333367,7.058046999999881,-2.3633205999999913
-9.3846646666667,5.254837999999881,-1.7250165999999918
-9.043172000000032,3.4516289999998815,-1.0867125999999918
-9.043172000000032,3.4516289999998815,-1.0867125999999916
-8.685721800000032,-3.786738666666785,2.899495933333341
-8.328271600000031,-11.025106333333449,6.885704466666674
-7.970821400000031,-18.263474000000116,10.871913000000006
-7.970821400000031,-18.263474000000116,10.871913000000006
-5.535691600000031,-18.707095000000113,11.27723633333334
-3.1005618000000297,-19.150716000000113,11.682559666666672
-0.665432000000029,-19.59433700000011,12.087883000000005
-0.665432000000029,-19.59433700000011,12.087883000000005
2.0505516666666375,-16.354944333333446,8.392102533333338
4.766535333333304,-13.11555166666678,4.696322066666672
7.482518999999971,-9.876159000000113,1.0005416000000047
7.482518999999971,-9.876159000000113,1.0005416000000047
7.482518999999971,-9.876159000000113,1.0005416000000047
10.208077333333303,-6.521871353333445,1.2813953666666713
12.933635666666637,-3.1675837066667785,1.562249133333338
15.659193999999971,0.1867039399998879,1.8431029000000045
15.560256666666637,-0.18989544000011208,0.41968493333333795
15.461319333333302,-0.5664948200001122,-1.0037330333333288
15.362381999999968,-0.9430942000001122,-2.4271509999999954
15.362381999999968,-0.9430942000001122,-2.427150999999995
15.362381999999968,-0.9430942000001122,-2.427150999999995
11.660218766666636,-6.812299466666778,-0.43564243333332825
7.958055533333302,-12.681504733333446,1.5558661333333383
4.255892299999968,-18.550710000000112,3.5473747000000055
4.255892299999968,-18.550710000000112,3.5473747000000055
-0.12606480000002987,-18.078365666666784,7.1410264666666725
-4.508021900000029,-17.606021333333448,10.734678233333339
-8.889979000000027,-17.133677000000116,14.328330000000006
-8.957001000000028,-13.233639000000116,9.569773360000006
-9.02402300000003,-9.333601000000115,4.811216720000006
-9.091045000000031,-5.433563000000116,0.052660080000006694
-9.091045000000031,-5.433563000000116,0.052660080000006694
-9.091045000000031,-5.433563000000116,0.052660080000006694
-9.336792000000031,-1.9356568666667824,-0.82500794666666
-9.58253900000003,1.5622492666665513,-1.7026759733333268
-9.828286000000029,5.060155399999885,-2.5803439999999935
-10.022968666666698,3.317585329999884,-2.446300133333327
-10.217651333333365,1.5750152599998837,-2.31225626666666
-10.412334000000032,-0.16755481000011643,-2.178212399999993
-10.412334000000032,-0.16755481000011643,-2.178212399999993
-10.412334000000032,-0.16755481000011643,-2.178212399999993
-8.669764233333366,-6.643148873333449,2.7686437333333402
-6.927194466666698,-13.118742936666782,7.715499866666673
-5.184624700000032,-19.594337000000113,12.662356000000008
-5.184624700000032,-19.594337000000113,12.662356000000008
-2.085658566666698,-19.32944133333345,10.584676500000008
1.0133075666666356,-19.064545666666785,8.506997000000007
4.112273699999969,-18.799650000000117,6.429317500000008
6.266549799999969,-13.830452933333452,4.093124700000007
8.42082589999997,-8.861255866666786,1.7569319000000068
10.57510199999997,-3.8920588000001195,-0.5792608999999939
10.575101999999967,-3.8920588000001195,-0.5792608999999939
10.575101999999967,-3.8920588000001195,-0.5792608999999939
12.665547999999967,-1.4218222000001193,-0.2888325666666606
14.755993999999967,1.0484143999998807,0.0015957666666727894
16.84643999999997,3.518650999999881,0.29202410000000617
16.84643999999997,3.518650999999881,0.29202410000000617
15.8219618333333,1.929273966666548,0.4675577000000062
14.797483666666631,0.3398969333332144,0.6430913000000062
13.773005499999963,-1.2494801000001192,0.8186249000000063
13.773005499999963,-1.2494801000001192,0.8186249000000063
9.304877189999962,-7.364432400000119,-1.0196907333333272
4.836748879999963,-13.47938470000012,-2.8580063666666606
0.36862056999996246,-19.59433700000012,-4.696321999999994
0.36862056999996246,-19.59433700000012,-4.696321999999993
-4.281424286666705,-18.34645300000012,-3.1548177333333265
-8.931469143333372,-17.098569000000122,-1.61331346666666
-13.58151400000004,-15.850685000000121,-0.07180919999999318
-13.581514000000041,-15.850685000000121,-0.07180919999999318
-12.21554366666671,-10.342121166666788,-0.13244808666665983
-10.849573333333376,-4.833557333333455,-0.1930869733333265
-9.483603000000043,0.6750064999998783,-0.25372585999999314
-9.483603000000043,0.6750064999998783,-0.25372585999999314
-9.943181666666709,5.120793999999878,-1.750548739999993
-10.402760333333374,9.566581499999879,-3.2473716199999934
-10.86233900000004,14.012368999999877,-4.744194499999993
-10.86233900000004,14.012368999999877,-4.744194499999993
-11.16872500000004,7.300602166666543,-2.363320499999993
-11.475111000000041,0.58883533333321,0.01755350000000681
-11.781497000000043,-6.122931500000123,2.398427500000007
-11.781497000000043,-6.122931500000123,2.398427500000007
-12.448524333333374,-10.613400000000125,6.66868133333334
-13.115551666666706,-15.103868500000125,10.938935166666676
-13.78257900000004,-19.594337000000127,15.209189000000011
-13.78257900000004,-19.594337000000127,15.209189000000011
-6.675063800000039,-17.274102333333463,10.112331411666679
0.43245139999996063,-14.9538676666668,5.015473823333345
7.5399665999999606,-12.633633000000136,-0.08138376499998934
7.5399665999999606,-12.633633000000136,-0.08138376499998934
9.28253639999996,-8.028269266666802,-0.572877876666656
11.02510619999996,-3.42290553333347,-1.0643719883333227
12.76767599999996,1.1824581999998631,-1.5558660999999894
12.76767599999996,1.1824581999998631,-1.5558660999999894
14.318754666666628,1.0707549999998631,-1.4186307333333226
15.869833333333295,0.959051799999863,-1.281395366666656
17.420911999999962,0.847348599999863,-1.1441599999999894
17.420911999999962,0.847348599999863,-1.1441599999999894
14.146412499999963,-4.753769266666803,-0.11968199999998934
10.871912999999964,-10.354887133333468,0.9047960000000107
7.597413499999964,-15.956005000000134,1.9292740000000108
7.597413499999964,-15.956005000000134,1.9292740000000108
1.8271453333332976,-17.16878233333347,4.054826333333344
-3.9431228333333688,-18.381559666666806,6.180378666666677
-9.713391000000035,-19.59433700000014,8.30593100000001
-9.713391000000035,-19.59433700000014,8.30593100000001
-10.8814876666667,-16.849630000000143,6.154846500000009
-12.049584333333366,-14.104923000000142,4.00376200000001
-13.217681000000033,-11.360216000000142,1.85267750000001
-13.217681000000033,-11.360216000000142,1.85267750000001
-12.975125333333366,-4.115465333333474,-0.3526629999999901
-12.7325696666667,3.129285333333192,-2.5580034999999905
-12.490014000000036,10.37403599999986,-4.76334399999999
-12.490014000000036,10.374035999999858,-4.76334399999999
-11.312343333333368,9.493176566666525,-4.712279666666657
-10.134672666666702,8.612317133333194,-4.661215333333323
-8.957002000000037,7.731457699999861,-4.610150999999989
-8.957002000000037,7.731457699999861,-4.610150999999989
-9.595305666666702,0.7324541333331943,-0.08138383333332062
-10.233609333333368,-6.266549433333473,4.447383333333347
-10.871913000000033,-13.26555300000014,8.976150500000015
-10.871913000000033,-13.26555300000014,8.976150500000015
-9.3112597666667,-15.375147666666805,11.998520000000013
-7.750606533333365,-17.48474233333347,15.020889500000012
-6.189953300000032,-19.594337000000138,18.04325900000001
-6.189953300000032,-19.594337000000138,18.04325900000001
-1.6196964333333659,-16.406008666666807,12.975125066666676
2.9505604333333006,-13.217680333333476,7.906991133333342
7.520817299999966,-10.029352000000143,2.838857200000009
7.520817299999966,-10.029352000000143,2.838857200000009
9.924031866666633,-6.764426910000144,1.3739494333333422
12.3272464333333,-3.4995018200001446,-0.09095833333332459
14.730460999999968,-0.23457673000014503,-1.5558660999999914
14.730460999999968,-0.23457673000014503,-1.5558660999999914
14.194285666666635,-1.3452257533334786,-1.2590547333333246
13.658110333333303,-2.455874776666812,-0.9622433666666579
13.12193499999997,-3.566523800000145,-0.6654319999999913
13.12193499999997,-3.566523800000145,-0.6654319999999911
9.71658299999997,-8.909128200000145,2.4973643333333424
6.311230999999968,-14.251732600000144,5.660160666666676
2.905878999999968,-19.59433700000014,8.822957000000008
2.905878999999968,-19.59433700000014,8.822957000000008
-1.7984216666666988,-19.59433700000014,10.022968666666673
-6.502722333333364,-19.59433700000014,11.22298033333334
-11.20702300000003,-19.59433700000014,12.422992000000006
-11.20702300000003,-19.59433700000014,12.422992000000006
-11.41447200000003,-15.691108233333475,8.867638633333337
-11.62192100000003,-11.787879466666809,5.312285266666671
-11.829370000000033,-7.884650700000143,1.756931900000005
-11.829370000000035,-7.884650700000141,1.756931900000005
-12.244267333333369,-1.3388428000001416,-0.30479006666666164
-12.659164666666703,5.2069650999998585,-2.366512033333328
-13.074062000000035,11.752772999999857,-4.4282339999999945
-13.074062000000035,11.752772999999857,-4.428233999999995
-11.535749666666703,9.911265833333191,-3.8346113333333283
-9.997437333333371,8.069758666666525,-3.2409886666666616
-8.459125000000038,6.2282514999998595,-2.647365999999995
-8.459125000000038,6.2282514999998595,-2.647365999999995
-10.252759000000038,-1.8335283333334738,2.4686406666666714
-12.046393000000037,-9.895308166666807,7.584647333333339
-13.840027000000036,-17.957088000000137,12.700654000000005
-13.840027000000036,-17.95708800000014,12.700654000000005
-9.604879800000036,-18.502837666666807,11.765538833333338
-5.369732600000037,-19.048587333333472,10.83042366666667
-1.1345854000000368,-19.594337000000138,9.895308500000004
-1.1345854000000368,-19.594337000000138,9.895308500000004
2.516513399999963,-16.147495666666803,5.417605666666669
6.1676121999999625,-12.70065433333347,0.9399028333333354
9.818710999999963,-9.253813000000138,-3.5377999999999985
9.818710999999963,-9.253813000000136,-3.5377999999999985
9.818710999999963,-9.253813000000136,-3.5377999999999985
12.196393999999962,-5.558032566666803,-3.655886266666665
14.574076999999962,-1.8622521333334703,-3.773972533333332
16.95175999999996,1.8335282999998628,-3.8920587999999987
16.386860666666628,0.8345824999998627,-3.9367400333333316
15.821961333333293,-0.1643633000001373,-3.981421266666665
15.25706199999996,-1.1633091000001372,-4.026102499999998
15.25706199999996,-1.1633091000001372,-4.026102499999998
15.25706199999996,-1.1633091000001372,-4.026102499999998
9.83786079999996,-7.297411066666804,-3.1739666666666646
4.418659599999962,-13.431513033333472,-2.321830833333331
-1.000541600000038,-19.56561500000014,-1.4696949999999973
-1.000541600000038,-19.56561500000014,-1.4696949999999973
-5.28994473333337,-18.521987333333474,0.2345767666666693
-9.579347866666703,-17.478359666666808,1.9388485333333358
-13.868751000000039,-16.434732000000142,3.6431203000000028
-11.586814000000038,-12.282564600000143,1.530333933333336
-9.304877000000037,-8.130397200000143,-0.5824524333333306
-7.022940000000035,-3.9782298000001433,-2.695238799999997
-7.022940000000035,-3.9782298000001433,-2.695238799999997
-7.022940000000035,-3.9782298000001433,-2.695238799999997
-9.129343333333368,0.49947313333319004,-3.4260968666666645
-11.235746666666701,4.977176066666523,-4.15695493333333
-13.342150000000034,9.454878999999856,-4.887812999999997
-13.342150000000032,9.454878999999856,-4.887812999999997
-12.78363400000003,6.052718333333189,-2.6090676666666632
-12.225118000000029,2.6505576666665225,-0.3303223333333296
-11.666602000000026,-0.7516030000001441,1.9484230000000038
-11.666602000000026,-0.7516030000001441,1.9484230000000038
-11.941072666666694,-7.032514333333477,6.793150333333337
-12.215543333333363,-13.31342566666681,11.63787766666667
-12.49001400000003,-19.59433700000014,16.482605000000003
-12.49001400000003,-19.59433700000014,16.482605000000003
-6.547403433333362,-18.477305333333476,11.87724166666667
-0.6047928666666955,-17.360273666666814,7.271878333333336
5.337817699999971,-16.24324200000015,2.6665150000000026
5.337817699999971,-16.243242000000155,2.6665150000000026
7.233580466666638,-11.26447046666682,0.7675605666666695
9.129343233333303,-6.285698933333485,-1.1313938666666639
11.02510599999997,-1.306927400000151,-3.030348299999997
11.02510599999997,-1.306927400000151,-3.030348299999997
13.367681999999972,-0.4069187333334842,-3.4165223333333308
15.71025799999997,0.49308993333318246,-3.8026963666666638
18.05283399999997,1.393098599999849,-4.188870399999996
18.052833999999965,1.393098599999849,-4.188870399999996
15.58578866666663,-4.109081933333484,-2.500556166666663
13.118743333333294,-9.611262466666817,-0.81224193333333
10.651697999999959,-15.113443000000151,0.8760723000000034
10.651697999999959,-15.113443000000151,0.8760723000000034
4.00376199999996,-16.607074333333482,4.4952560333333365
-2.644174000000039,-18.100705666666812,8.114439766666669
-9.292110000000038,-19.59433700000014,11.733623500000006
-9.292110000000038,-19.59433700000014,11.733623500000006
-10.128288666666705,-17.21984633333348,9.339983466666672
-10.964467333333372,-14.845355666666814,6.946343433333337
-11.800646000000038,-12.47086500000015,4.552703400000003
-11.800646000000038,-12.47086500000015,4.552703400000003
-11.159150333333372,-6.473998666666817,1.5207592666666692
-10.517654666666706,-0.47713233333348387,-1.5111848666666645
-9.876159000000039,5.51973399999985,-4.543128999999998
-9.876159000000039,5.51973399999985,-4.543128999999998
-9.177216100000038,5.781438666666517,-4.112273799999998
-8.478273200000038,6.043143333333184,-3.6814185999999984
-7.779330300000036,6.304847999999851,-3.2505633999999985
-7.779330300000036,6.304847999999851,-3.2505633999999985
-7.517625666666703,-0.1803210000001497,-0.21542773333333187
-7.25592103333337,-6.66549000000015,2.819707933333335
-6.994216400000037,-13.150659000000148,5.8548436000000015
-6.994216400000037,-13.150659000000148,5.8548436000000015
-5.015473900000038,-15.298551666666818,8.842106400000002
-3.0367314000000385,-17.446444333333485,11.829369200000002
-1.0579889000000386,-19.594337000000156,14.816632
-1.0579889000000386,-19.594337000000156,14.816632
1.5494830666666282,-16.623032000000155,10.415525800000003
4.156955033333295,-13.651727000000156,6.014419600000004
6.764426999999962,-10.680422000000155,1.6133134000000033
6.764426999999962,-10.680422000000155,1.6133134000000033
9.285727999999962,-7.038897566666821,0.9909669800000032
11.807028999999963,-3.3973731333334882,0.36862056000000326
14.328329999999964,0.24415129999984528,-0.2537258599999967
14.328329999999964,0.24415129999984528,-0.2537258599999967
15.435787333333296,0.6973471666665119,-0.4292594599999966
16.54324466666663,1.1505430333331785,-0.6047930599999966
17.650701999999963,1.6037388999998452,-0.7803266599999965
17.650701999999967,1.6037388999998452,-0.7803266599999965
14.902802999999968,-4.932494400000153,0.18032089333333678
12.154903999999968,-11.468727700000152,1.14096844666667
9.407004999999968,-18.00496100000015,2.1016160000000035
9.40700499999997,-18.00496100000015,2.1016160000000035
2.733536666666637,-18.53475300000015,4.84951466666667
-3.9399316666666966,-19.06454500000015,7.5974133333333365
-10.613400000000029,-19.594337000000152,10.345312000000005
-10.613400000000029,-19.594337000000152,10.345312000000005
-11.280428000000029,-15.027271900000153,7.3931560666666725
-11.94745600000003,-10.460206800000154,4.441000133333339
-12.614484000000028,-5.893141700000154,1.488844200000005
-12.614484000000028,-5.893141700000154,1.488844200000005
-11.93469000000003,1.0516061999998465,-0.7228791999999951
-11.25489600000003,7.996354099999848,-2.934602599999995
-10.575102000000031,14.94110199999985,-5.146325999999995
-10.575102000000031,14.94110199999985,-5.146325999999996
-11.625112000000032,9.614454733333183,-4.147380333333329
-12.675122000000032,4.287807466666515,-3.1484346666666627
-13.725132000000032,-1.0388398000001515,-2.149488999999996
-13.725132000000032,-1.0388398000001515,-2.1494889999999964
-12.949592666666698,-7.224005533333483,3.8154620000000037
-12.174053333333363,-13.409171266666817,9.780413000000005
-11.398514000000029,-19.59433700000015,15.745364000000004
-11.398514000000029,-19.594337000000152,15.745364000000004
-7.95167230000003,-19.08688566666682,12.23788366666667
-4.504830600000029,-18.57943433333349,8.730403333333337
-1.0579889000000293,-18.07198300000016,5.222923000000004
-1.0579889000000293,-18.07198300000016,5.222923000000004
2.111190733333304,-14.143221666666827,2.9505605333333365
5.280370366666637,-10.214460333333495,0.6781980666666693
8.449549999999972,-6.285699000000161,-1.594164399999998
8.449549999999972,-6.285699000000161,-1.594164399999998
11.092128333333305,-3.4643952000001605,-0.9909670666666647
13.734706666666638,-0.6430914000001607,-0.3877697333333314
16.37728499999997,2.1782123999998393,0.21542760000000186
16.377284999999972,2.1782123999998393,0.21542760000000186
15.828343666666639,0.7835181666665059,-0.32713083333333143
15.279402333333303,-0.6111760666668276,-0.8696892666666648
14.73046099999997,-2.005870300000161,-1.4122476999999982
14.73046099999997,-2.005870300000161,-1.4122476999999982
9.939989333333303,-7.868692533333493,-0.7707521333333315
5.149517666666637,-13.731514766666827,-0.12925656666666482
0.3590459999999709,-19.594337000000163,0.5122390000000019
0.3590459999999709,-19.594337000000163,0.5122390000000019
-4.364403666666695,-19.447527333333497,2.5803440000000015
-9.087853333333362,-19.30071766666683,4.648449000000002
-13.811303000000029,-19.15390800000017,6.716554000000002
-13.811303000000029,-19.15390800000017,6.716554000000002
-12.448524000000027,-14.002794566666834,3.3271596666666685
-11.085745000000026,-8.8516811333335,-0.062234666666665106
-9.722966000000026,-3.700567700000166,-3.4516289999999987
-9.722966000000026,-3.700567700000166,-3.4516289999999987
-9.722966000000026,-3.700567700000166,-3.4516289999999987
-10.172970333333359,2.2165108666665003,-3.234605666666665
-10.622974666666693,8.133589433333167,-3.0175823333333316
-11.072979000000027,14.050667999999833,-2.800558999999998
-11.290002666666695,8.842106933333165,-2.0090619833333316
-11.507026333333362,3.633545866666499,-1.217564966666665
-11.724050000000029,-1.5750152000001674,-0.4260679499999984
-11.724050000000029,-1.5750152000001674,-0.4260679499999984
-11.877242666666696,-7.5814558000001675,4.932494366666668
-12.030435333333363,-13.587896400000167,10.291056683333334
-12.183628000000029,-19.594337000000163,15.649619
-12.183628000000029,-19.594337000000166,15.649619
-12.183628000000029,-19.594337000000166,15.649619
-7.0293230333333625,-18.8634793333335,11.411280233333331
-1.875018066666696,-18.132621666666836,7.172941466666664
3.2792868999999705,-17.40176400000017,2.9346026999999975
4.862280933333303,-12.432567000000171,1.9931042813333308
6.445274966666637,-7.463370000000173,1.051605862666664
8.02826899999997,-2.4941730000001727,0.11010744399999739
8.028268999999968,-2.4941730000001727,0.11010744399999739
8.028268999999968,-2.4941730000001727,0.11010744399999739
11.181490666666635,-0.6303252000001729,-0.9016044706666694
14.334712333333302,1.2335225999998272,-1.913316385333336
17.48793399999997,3.097370399999827,-2.925028300000003
16.76345899999997,0.9462857999998274,-3.0973703666666688
16.03898399999997,-1.2047988000001726,-3.2697124333333356
15.314508999999973,-3.3558834000001725,-3.4420545000000025
15.314508999999973,-3.3558834000001725,-3.4420545000000025
10.380418999999973,-8.76870126666684,-1.3037360000000022
5.446328999999973,-14.181519133333504,0.8345824999999976
0.5122389999999731,-19.59433700000017,2.972900999999997
0.5122389999999731,-19.59433700000017,2.972900999999997
0.5122389999999731,-19.59433700000017,2.972900999999997
-3.4069476666666936,-18.904969333333508,3.8920587666666635
-7.326134333333361,-18.215601666666842,4.811216533333329
-11.245321000000027,-17.526234000000176,5.730374299999995
-12.649590000000027,-10.144247666666844,3.2633292666666627
-14.053859000000026,-2.762261333333511,0.7962842333333299
-15.458128000000025,4.619724999999821,-1.670760800000003
-15.458128000000025,4.619724999999821,-1.670760800000003
-15.458128000000025,4.619724999999821,-1.670760800000003
-14.35705333333336,5.944205999999821,-2.4526832000000027
-13.255978666666692,7.268686999999821,-3.234605600000003
-12.154904000000025,8.593167999999821,-4.016528000000004
-12.154904000000025,8.593167999999821,-4.016528000000004
-11.085745000000026,0.22181033333315506,-0.6781980000000033
-10.016586000000027,-8.14954733333351,2.660131999999997
-8.947427000000028,-16.520905000000177,5.998461999999996
-8.947427000000028,-16.52090500000018,5.998461999999996
-6.35272103333336,-17.54538233333351,8.19741933333333
-3.758015066666692,-18.569859666666844,10.396376666666663
-1.1633091000000242,-19.594337000000177,12.595333999999994
-1.1633091000000242,-19.594337000000177,12.595333999999994
1.409056199999976,-16.980482333333512,8.803808133333327
3.981421499999976,-14.366627666666844,5.01228226666666
6.553786799999976,-11.752773000000175,1.2207563999999937
6.553786799999976,-11.752773000000175,1.2207563999999935
7.616562866666642,-8.133589133333508,0.9303280833333271
8.679338933333309,-4.514405266666842,0.6398997666666605
9.742114999999975,-0.8952214000001758,0.34947144999999386
9.742114999999977,-0.8952214000001758,0.34947144999999386
12.340012333333311,0.28564106666649086,-0.0111703333333395
14.937909666666647,1.4665035333331575,-0.37181211666667285
17.53580699999998,2.647365999999824,-0.7324539000000062
17.53580699999998,2.647365999999824,-0.7324539000000062
16.348561666666644,-1.9260823333335093,-0.7930927800000062
15.161316333333312,-6.499530666666843,-0.8537316600000061
13.97407099999998,-11.072979000000176,-0.9143705400000061
13.97407099999998,-11.072979000000174,-0.9143705400000061
7.699542333333315,-13.913431666666838,2.625025306666661
1.4250136666666477,-16.753884333333502,6.164421153333328
-4.849515000000019,-19.594337000000166,9.703816999999995
-4.849515000000019,-19.594337000000166,9.703816999999995
-6.828257666666686,-17.97942800000017,8.688913566666663
-8.807000333333352,-16.364519000000172,7.67401013333333
-10.78574300000002,-14.749610000000175,6.659106699999996
-10.78574300000002,-14.749610000000175,6.659106699999996
-11.478302666666687,-7.811245333333509,3.3558833333333298
-12.170862333333355,-0.8728806666668412,0.052659966666663394
-12.863422000000023,6.065483999999825,-3.250563400000003
-12.863422000000023,6.065483999999825,-3.250563400000003
-12.81874066666669,7.268687333333159,-3.033540033333336
-12.774059333333355,8.471890666666495,-2.8165166666666686
-12.72937800000002,9.675093999999829,-2.5994933000000016
-12.72937800000002,9.675093999999829,-2.5994933000000016
-12.327246666666687,1.150543333333162,1.0260734666666653
-11.925115333333352,-7.3740073333335046,4.651640233333332
-11.522984000000017,-15.898558000000172,8.277206999999999
-11.522984000000017,-15.898558000000172,8.277206999999999
-9.697434233333352,-17.130484333333506,10.511271333333331
-7.871884466666685,-18.36241066666684,12.745335666666668
-6.04633470000002,-19.594337000000174,14.979399999999998
-6.04633470000002,-19.594337000000177,14.979399999999998
-2.3665121333333525,-17.456018666666846,10.348504199999999
1.3133104333333143,-15.317700333333514,5.717608399999999
4.993132999999982,-13.179382000000183,1.0867125999999978
4.993132999999982,-13.179382000000183,1.0867125999999978
6.933577333333314,-9.719774333333516,1.4952271666666643
8.874021666666648,-6.2601666666668505,1.9037417333333309
10.814465999999982,-2.800559000000183,2.3122562999999974
10.814465999999982,-2.800559000000183,2.3122562999999974
12.518737666666647,-1.61012195666685,1.4505458733333303
14.223009333333314,-0.4196849133335168,0.5888354466666637
15.92728099999998,0.7707521299998165,-0.27287498000000304
15.92728099999998,0.7707521299998165,-0.2728749800000031
14.554927666666645,-4.6931302466668505,-0.8601146533333363
13.182574333333312,-10.157012623333516,-1.4473543266666695
11.810220999999977,-15.620895000000182,-2.034594000000003
11.810220999999977,-15.62089500000018,-2.0345940000000025
4.78887633333331,-16.945375666666845,0.2090446666666641
-2.2324683333333564,-18.269856333333507,2.452683333333331
-9.253813000000022,-19.59433700000017,4.696321999999998
-9.253813000000022,-19.59433700000017,4.696321999999998
-9.805946000000022,-17.653893166666837,3.6622694666666646
-10.358079000000023,-15.713449333333505,2.628216933333331
-10.910212000000023,-13.773005500000172,1.594164399999998
-10.910212000000023,-13.773005500000172,1.594164399999998
-10.961276333333354,-5.698459333333505,0.3143647666666647
-11.012340666666688,2.3760868333331615,-0.9654348666666687
-11.063405000000023,10.450632999999828,-2.2452345000000022
-11.063405000000023,10.45063299999983,-2.2452345000000022
-12.046393000000023,8.784659333333163,-1.9835298000000023
-13.029381000000024,7.118685666666497,-1.7218251000000027
-14.012369000000026,5.452711999999831,-1.4601204000000028
-14.012369000000026,5.452711999999832,-1.4601204000000028
-14.181519666666693,-2.8963043333335006,2.4654493999999976
-14.35067033333336,-11.245320666666833,6.391019199999998
-14.519821000000027,-19.594337000000163,10.316588999999999
-14.519821000000027,-19.594337000000166,10.316588999999999
-11.050638566666693,-19.594337000000166,8.9250861
-7.581456133333361,-19.594337000000166,7.533583199999998
-4.112273700000028,-19.594337000000166,6.142080299999997
-4.112273700000028,-19.594337000000166,6.142080299999997
0.24734286666663893,-16.5943083333335,4.016527956666664
4.606959433333305,-13.594279666666836,1.8909756133333306
8.966575999999971,-10.594251000000169,-0.23457673000000265
8.966575999999971,-10.59425100000017,-0.23457673000000265
11.985753999999972,-7.185707523333503,-0.5760693866666693
15.004931999999974,-3.7771640466668366,-0.9175620433333359
18.024109999999975,-0.3686205700001697,-1.2590547000000025
18.024109999999972,-0.3686205700001697,-1.2590547000000025
17.27410266666664,-2.1909787133335024,-1.8941672000000025
16.524095333333303,-4.013336856666835,-2.5292797000000022
15.77408799999997,-5.835695000000168,-3.164392200000002
15.77408799999997,-5.835695000000168,-3.164392200000002
10.839997966666637,-10.421909000000168,-2.810133466666669
5.905907933333303,-15.008123000000168,-2.4558747333333355
0.9718178999999699,-19.594337000000166,-2.101616000000002
0.9718178999999699,-19.594337000000166,-2.101616000000002
-4.756960733333362,-19.208163333333502,0.1643633333333311
-10.485739366666696,-18.821989666666838,2.4303426666666645
-16.21451800000003,-18.435816000000173,4.696321999999998
-16.214518000000027,-18.435816000000173,4.696321999999998
-14.047475666666694,-12.76767626666684,3.0111993333333316
-11.880433333333363,-7.099536533333507,1.3260766666666648
-9.71339100000003,-1.4313968000001733,-0.359046000000002
-9.71339100000003,-1.4313968000001733,-0.359046000000002
-9.71339100000003,-1.4313968000001733,-0.359046000000002
-9.58892200000003,3.339925799999827,-0.9399026666666686
-9.464453000000029,8.111248399999829,-1.5207593333333351
-9.33998400000003,12.882570999999828,-2.1016160000000017
-10.836807000000029,7.922948733333162,-1.0675634666666685
-12.333630000000028,2.963326466666496,-0.03351093333333507
-13.830453000000027,-1.996295800000171,1.0005415999999983
-13.830453000000027,-1.996295800000171,1.0005415999999983
-15.011315333333359,-7.862309533333504,5.953780733333332
-16.19217766666669,-13.72832326666684,10.907019866666666
-17.373040000000024,-19.59433700000017,15.860259
-17.37304000000002,-19.59433700000017,15.860259
-17.37304000000002,-19.59433700000017,15.860259
-12.327246600000024,-19.29752566666684,11.921923333333332
-7.281453200000024,-19.000714333333505,7.983587666666665
-2.235659800000024,-18.70390300000017,4.045251999999998
3.1356684666666426,-14.899611166666839,3.087795866666665
8.50699673333331,-11.095319333333507,2.1303397333333316
13.878324999999977,-7.2910275000001725,1.1728835999999987
13.878324999999975,-7.2910275000001725,1.172883599999999
13.878324999999975,-7.2910275000001725,1.172883599999999
15.75813066666664,-5.589947333333506,0.11968196666666553
17.637936333333304,-3.88886716666684,-0.9335196666666677
19.51774199999997,-2.1877870000001742,-1.986721300000001
19.51774199999997,-2.1877870000001742,-1.986721300000001
16.319838666666637,-7.153792666666841,-1.7441657666666677
13.121935333333303,-12.119798333333506,-1.5016102333333343
9.924031999999968,-17.08580400000017,-1.259054700000001
2.5580036666666346,-17.921981666666838,0.6909640333333323
-4.808024666666699,-18.758159333333506,2.640982766666666
-12.174053000000034,-19.59433700000017,4.591001499999999
-12.174053000000034,-19.59433700000017,4.591001499999998
-12.174053000000034,-19.59433700000017,4.591001499999998
-13.731515333333368,-18.534753000000176,4.150571799999998
-15.288977666666701,-17.475169000000175,3.7101420999999974
-16.846440000000033,-16.415585000000174,3.2697123999999973
-16.846440000000033,-16.41558500000017,3.2697123999999973
-15.7549396666667,-7.606989000000172,1.0516059333333305
-14.663439333333367,1.2016069999998287,-1.166500533333336
-13.571939000000034,10.010202999999828,-3.3846070000000026
-13.571939000000034,10.01020299999983,-3.3846070000000026
-12.387885000000033,10.571910666666495,-3.017582200000003
-11.203831000000031,11.13361833333316,-2.6505574000000034
-10.019777000000031,11.69532599999983,-2.2835326000000036
-10.019777000000031,11.69532599999983,-2.2835326000000036
-11.513408333333366,3.9303573333331623,0.161171766666663
-13.007039666666701,-3.834611333333504,2.6058761333333296
-14.500671000000038,-11.599580000000172,5.050580499999996
-14.50067100000004,-11.599580000000168,5.050580499999996
-13.345341000000039,-14.264499000000166,9.020831666666664
-12.190011000000036,-16.929418000000165,12.99108283333333
-11.034681000000035,-19.594337000000163,16.961333999999997
-11.034681000000035,-19.594337000000163,16.961333999999997
-6.059101066666702,-17.156016000000164,12.863422066666663
-1.0835211333333674,-14.717695000000168,8.76551013333333
3.8920587999999667,-12.27937400000017,4.667598199999996
3.8920587999999667,-12.27937400000017,4.667598199999996
7.830394866666634,-9.228280666666837,3.850569066666663
11.768730933333302,-6.177187333333503,3.0335399333333295
15.707066999999968,-3.126094000000169,2.216510799999996
15.707066999999968,-3.126094000000169,2.216510799999996
15.888983666666634,-2.752686100000169,0.8760722999999958
16.070900333333302,-2.3792782000001687,-0.46436620000000417
16.25281699999997,-2.0058703000001685,-1.8048047000000043
16.25281699999997,-2.0058703000001685,-1.8048047000000043
13.463428233333302,-7.156983866666835,-2.637791466666671
10.674039466666635,-12.3080974333335,-3.4707782333333377
7.884650699999969,-17.459211000000167,-4.303765000000005
7.884650699999969,-17.459211000000167,-4.303765000000005
-0.18670353333336406,-18.170919666666833,-2.0409772000000053
-8.258057766666697,-18.8826283333335,0.22181059999999495
-16.32941200000003,-19.594337000000166,2.484598399999995
-16.32941200000003,-19.594337000000166,2.4845983999999954
-15.435786666666699,-16.990057000000167,2.018636466666662
-14.542161333333366,-14.38577700000017,1.5526745333333292
-13.648536000000034,-11.781497000000172,1.086712599999996
-13.648536000000034,-11.781497000000172,1.0867125999999958
-12.965550666666699,-3.9622726666668395,0.3047901666666624
-12.282565333333364,3.8569516666664936,-0.4771322666666709
-11.59958000000003,11.676175999999828,-1.2590547000000043
-11.599580000000026,11.676175999999828,-1.2590547000000043
-11.599580000000026,10.45063233333316,-0.6622404333333375
-11.599580000000026,9.225088666666494,-0.06542616666667082
-11.599580000000026,7.999544999999827,0.5313880999999959
-11.599580000000026,7.999544999999827,0.5313880999999959
-13.514492000000027,-0.24734333333350644,3.2250310666666624
-15.429404000000028,-8.49423166666684,5.918674033333328
-17.34431600000003,-16.741120000000173,8.612316999999996
-17.344316000000028,-16.741120000000173,8.612316999999996
-15.113443333333363,-17.692192333333505,9.46764433333333
-12.882570666666696,-18.64326466666684,10.322971666666666
-10.651698000000032,-19.594337000000174,11.178299
-10.651698000000033,-19.594337000000177,11.178299
-5.529308333333366,-17.44325300000018,6.802725
-0.4069186666666991,-15.29216900000018,2.4271510000000003
4.715470999999968,-13.141085000000183,-1.948423
4.715470999999968,-13.141085000000183,-1.948423
8.7782763333333,-10.054884733333518,-1.8239537333333333
12.841081666666634,-6.96868446666685,-1.6994844666666669
16.903886999999965,-3.882484200000183,-1.5750152000000002
16.90388699999997,-3.882484200000183,-1.5750152000000002
16.88473799999997,-3.7420573333335163,-2.2739581333333336
16.86558899999997,-3.6016304666668497,-2.9729010666666675
16.846439999999973,-3.4612036000001836,-3.6718440000000014
16.846439999999973,-3.4612036000001836,-3.6718440000000014
12.920869999999972,-8.838914733333516,-2.6665151333333346
8.995299999999972,-14.21662586666685,-1.6611862666666681
5.069729999999971,-19.594337000000184,-0.6558574000000016
5.069729999999971,-19.594337000000184,-0.6558574000000016
-2.1271483333333614,-19.56880533333352,2.475024066666665
-9.324026666666695,-19.543273666666853,5.605905533333331
-16.520905000000027,-19.517742000000187,8.736786999999998
-16.520905000000027,-19.517742000000187,8.736786999999998
-15.027273166666694,-16.252816666666856,6.541020999999997
-13.533641333333359,-12.987891333333522,4.345254999999997
-12.040009500000025,-9.72296600000019,2.149488999999997
-12.040009500000025,-9.72296600000019,2.1494889999999964
-12.410226000000023,-2.334596666666856,0.26010899999999637
-12.78044250000002,5.053772666666478,-1.6292710000000037
-13.150659000000019,12.44214199999981,-3.5186510000000033
-13.150659000000019,12.44214199999981,-3.5186510000000033
-12.563419333333352,9.525092333333143,-2.5452373333333362
-11.976179666666686,6.608042666666477,-1.5718236666666694
-11.38894000000002,3.6909929999998092,-0.5984100000000027
-11.38894000000002,3.6909929999998092,-0.5984100000000027
-11.111277666666687,-4.070783666666857,4.7729183333333305
-10.833615333333356,-11.832560333333523,10.144246666666664
-10.555953000000024,-19.594337000000188,15.515574999999998
-10.555953000000024,-19.59433700000019,15.515574999999998
-7.1537924833333575,-19.47305966666686,13.540024166666667
-3.75163196666669,-19.351782333333528,11.564473333333334
-0.34947145000002305,-19.230505000000193,9.588922500000002
-0.34947145000002305,-19.23050500000019,9.588922500000002
2.3537461666666437,-15.01131520000019,6.464424200000003
5.05696378333331,-10.79212540000019,3.339925900000004
7.7601813999999765,-6.57293560000019,0.2154276000000035
7.7601813999999765,-6.57293560000019,0.2154276000000035
7.7601813999999765,-6.57293560000019,0.2154276000000035
10.533612599999977,-4.019719533333524,-0.38138666666666315
13.307043799999976,-1.4665034666668573,-0.9782009333333298
16.080474999999975,1.0867125999998095,-1.5750151999999964
15.965579999999976,0.3526629666664763,-1.6867183999999964
15.850684999999977,-0.38138666666685705,-1.7984215999999964
15.735789999999978,-1.1154363000001906,-1.9101247999999964
15.735789999999978,-1.1154363000001906,-1.9101247999999964
11.264470333333312,-7.275069866666858,2.340979800000004
6.793150666666645,-13.434703433333524,6.592084400000004
2.3218309999999787,-19.59433700000019,10.843189000000002
2.3218309999999787,-19.59433700000019,10.843189000000002
2.3218309999999787,-19.59433700000019,10.843189000000002
-1.5718236666666876,-19.313483333333522,10.954892333333335
-5.465478333333355,-19.03262966666686,11.06659566666667
-9.359133000000021,-18.751776000000195,11.178299000000003
-9.167641666666688,-13.428320566666862,6.588893133333336
-8.976150333333353,-8.104865133333528,1.9994872666666688
-8.784659000000019,-2.781409700000195,-2.5899185999999985
-8.784659000000019,-2.781409700000195,-2.5899185999999985
-8.784659000000019,-2.781409700000195,-2.5899185999999985
-9.272961666666687,1.1760751999998045,-3.212265066666665
-9.761264333333353,5.133560099999805,-3.8346115333333315
-10.24956700000002,9.091044999999806,-4.4569579999999975
-10.24956700000002,9.091044999999804,-4.4569579999999975
-10.699571333333353,5.114410933333138,-2.219702333333331
-11.149575666666687,1.1377768666664718,0.01755333333333553
-11.599580000000023,-2.8388572000001946,2.254809000000002
-10.555952833333356,-8.424017133333528,7.725074666666669
-9.512325666666689,-14.009177066666863,13.195340333333336
-8.468698500000022,-19.5943370000002,18.665606000000004
-8.468698500000022,-19.5943370000002,18.665606000000007
-8.468698500000022,-19.5943370000002,18.665606000000007
-4.712279333333354,-18.716669333333538,14.80386653333334
-0.9558601666666876,-17.83900166666687,10.942127066666671
2.800558999999979,-16.961334000000203,7.080387600000005
2.800558999999979,-16.9613340000002,7.080387600000005
4.543128999999979,-11.564473376666866,4.871855613333339
6.28569899999998,-6.167612753333532,2.663323626666673
8.02826899999998,-0.7707521300001972,0.45479164000000666
8.02826899999998,-0.7707521300001972,0.45479164000000666
10.989999999999979,0.7037301466664695,-0.39096117333332675
13.95173099999998,2.1782124233331364,-1.23671398666666
16.913461999999978,3.652694699999803,-2.0824667999999935
15.936856333333315,2.190978499999803,-1.6005472866666601
14.960250666666647,0.7292622999998032,-1.1186277733333267
13.983644999999981,-0.732453900000197,-0.6367082599999935
13.983644999999981,-0.732453900000197,-0.6367082599999935
13.983644999999981,-0.732453900000197,-0.6367082599999935
9.512325449999981,-7.019748266666864,2.74311149333334
5.041005899999981,-13.30704263333353,6.122931246666673
0.5696863499999818,-19.5943370000002,9.502751000000005
0.5696863499999818,-19.5943370000002,9.502751000000005
-4.019719433333351,-18.56028466666687,11.02829783333334
-8.609125216666685,-17.526232333333535,12.553844666666672
-13.198531000000017,-16.4921800000002,14.079391500000005
-12.73895233333335,-10.798508166666865,8.679339266666672
-12.27937366666668,-5.104836333333534,3.2792870333333366
-11.819795000000013,0.5888354999997988,-2.120765199999997
-11.819795000000013,0.5888354999997988,-2.120765199999997
-11.819795000000013,0.5888354999997988,-2.120765199999997
-11.069787666666679,4.801641999999799,-3.47716123333333
-10.319780333333346,9.0144484999998,-4.833557266666663
-9.569773000000012,13.227254999999799,-6.1899532999999956
-9.569773000000012,13.227254999999799,-6.1899532999999956
-10.41871766666668,7.472944199999799,-4.054826333333328
-11.267662333333348,1.7186333999997991,-1.919699366666662
-12.116607000000016,-4.035677400000201,0.2154276000000047
-12.116607000000016,-4.035677400000201,0.2154276000000047
-11.82617833333335,-9.221897266666867,6.624000066666671
-11.535749666666684,-14.408117133333533,13.032572533333337
-11.245321000000018,-19.5943370000002,19.441145000000002
-11.245321000000018,-19.5943370000002,19.441145000000002
-6.627191433333351,-19.169864666666868,14.567693733333337
-2.009061866666684,-18.745392333333537,9.694242466666672
2.609067699999983,-18.320920000000203,4.820791200000007
2.609067699999983,-18.320920000000203,4.8207912000000075
4.9165367999999825,-13.47619286666687,2.995241666666674
7.224005899999983,-8.631465733333537,1.1696921333333403
9.531474999999983,-3.7867386000002035,-0.6558573999999932
9.53147499999998,-3.7867386000002035,-0.6558573999999932
12.209160333333315,-1.7760809000002034,-1.3867155333333265
14.88684566666665,0.23457679999979675,-2.11757366666666
17.564530999999985,2.2452344999997966,-2.848431799999993
17.564530999999985,2.2452344999997966,-2.848431799999993
15.177273999999983,0.11010743333313,-1.5175678666666597
12.790016999999983,-2.0250196333335366,-0.1867039333333261
10.402759999999983,-4.160146700000204,1.1441600000000074
10.402759999999981,-4.160146700000204,1.1441600000000074
4.709087999999981,-9.304876800000203,7.294219000000008
-0.9845840000000191,-14.449606900000205,13.444278000000006
-6.678256000000019,-19.594337000000206,19.594337000000007
-6.678256000000019,-19.594337000000206,19.594337000000007
-7.013365566666685,-18.18368533333354,17.025163666666675
-7.348475133333352,-16.773033666666873,14.455990333333341
-7.683584700000019,-15.362382000000204,11.886817000000008
-7.683584700000019,-15.362382000000204,11.886817000000008
-8.478273133333351,-9.193173600000204,6.164421333333341
-9.272961566666684,-3.023965200000204,0.44202566666667487
-10.067650000000018,3.1452431999997956,-5.280369999999992
-10.06765000000002,3.1452431999997956,-5.2803699999999925
-9.780413333333351,6.180378799999796,-6.023994333333325
-9.493176666666685,9.215514399999796,-6.767618666666659
-9.205940000000018,12.250649999999796,-7.511242999999993
-9.205940000000018,12.250649999999796,-7.511242999999993
-10.951701666666684,5.848460566666463,-4.479298766666661
-12.697463333333351,-0.5537288666668706,-1.4473545333333278
-14.443225000000018,-6.955918300000204,1.584589700000005
-14.443225000000018,-6.955918300000204,1.584589700000005
-13.105977666666684,-11.168724533333538,7.587838800000006
-11.768730333333352,-15.381530766666872,13.591087900000005
-10.43148300000002,-19.594337000000206,19.594337000000003
-10.43148300000002,-19.59433700000021,19.594337000000007
-5.931439766666686,-18.614540333333547,14.66663033333334
-1.4313965333333527,-17.63474366666688,9.738923666666674
3.068646699999981,-16.65494700000021,4.811217000000007
3.068646699999981,-16.65494700000021,4.811217000000007
5.325051466666648,-12.020860000000207,2.9760927900000076
7.581456233333314,-7.386773000000207,1.1409685800000071
9.83786099999998,-2.7526860000002067,-0.6941556299999929
9.83786099999998,-2.7526860000002067,-0.6941556299999929
12.509163333333314,-1.2558631000002065,-1.1760751866666597
15.180465666666649,0.24095979999979353,-1.6579947433333262
17.851767999999982,1.7377826999997936,-2.139914299999993
17.851767999999982,1.7377826999997936,-2.139914299999993
15.81557799999998,-1.8973588666668733,0.10053280000000697
13.779387999999981,-5.5325004333335395,2.340979900000007
11.74319799999998,-9.167642000000207,4.581427000000008
11.74319799999998,-9.167642000000207,4.581427000000007
6.652723533333314,-12.643207000000208,9.58573033333334
1.5622490666666475,-16.118772000000206,14.590033666666672
-3.5282254000000193,-19.594337000000206,19.594337000000007
-3.5282254000000193,-19.594337000000206,19.59433700000001
-4.87823850000002,-17.941130000000204,16.887928333333345
-6.2282516000000205,-16.287923000000205,14.181519666666679
-7.5782647000000205,-14.634716000000205,11.475111000000012
-7.578264700000022,-14.634716000000205,11.475111000000012
-8.318697133333357,-8.21976033333354,6.154846833333347
-9.059129566666691,-1.8048046666668724,0.8345826666666802
-9.799562000000025,4.610150999999794,-4.485681499999987
-9.799562000000025,4.610150999999794,-4.485681499999986
-9.480410333333358,6.1899533333331265,-5.009090866666653
-9.16125866666669,7.76975566666646,-5.53250023333332
-8.842107000000022,9.349557999999794,-6.055909599999988
-8.842107000000022,9.349557999999794,-6.055909599999988
-10.859147666666692,4.179295466666461,-2.8835385333333208
-12.87618833333336,-0.990967066666873,0.2888325333333457
-14.893229000000028,-6.161229600000207,3.461203600000012
-14.893229000000028,-6.161229600000207,3.4612036000000117
-14.893229000000028,-6.161229600000207,3.4612036000000117
-14.455990666666693,-10.638932066666873,8.838914733333345
-14.018752333333358,-15.116634533333539,14.216625866666677
-13.581514000000022,-19.594337000000206,19.594337000000014
-7.3420921000000225,-18.93369266666687,14.18471066666668
-1.102670200000021,-18.273048333333538,8.775084333333348
5.136751699999979,-17.612404000000208,3.3654580000000145
5.136751699999979,-17.612404000000208,3.3654580000000145
5.136751699999979,-17.612404000000208,3.3654580000000145
6.08782469999998,-12.371927900000207,1.3707579000000145
7.038897699999981,-7.131451800000206,-0.6239421999999855
7.989970699999982,-1.8909757000002045,-2.6186422999999857
7.989970699999982,-1.8909757000002045,-2.6186422999999857
11.114469133333316,-0.28244956666687115,-3.173966866666653
14.23896756666665,1.3260765666664625,-3.7292914333333207
17.363465999999985,2.9346026999997954,-4.284615999999988
16.09962366666665,-1.220756533333538,-2.768643859999987
14.835781333333316,-5.376115766666871,-1.2526717199999868
13.57193899999998,-9.531475000000205,0.2633004200000138
13.57193899999998,-9.531475000000205,0.2633004200000138
7.804862266666649,-12.885762333333536,3.5314169466666807
2.0377855333333135,-16.240049666666867,6.799533473333348
-3.7292912000000205,-19.5943370000002,10.067650000000015
-3.7292912000000205,-19.5943370000002,10.067650000000015
-3.7292912000000205,-19.5943370000002,10.067650000000015
-6.00803680000002,-18.92092666666687,6.087824500000014
-8.28678240000002,-18.247516333333536,2.1079990000000137
-10.565528000000018,-17.574106000000203,-1.8718264999999865
-10.56552800000002,-17.574106000000203,-1.8718264999999865
-11.35702500000002,-10.492122666666871,-1.964380666666653
-12.14852200000002,-3.4101393333335372,-2.0569348333333197
-12.940019000000019,3.6718439999997963,-2.149488999999986
-12.898529000000018,7.60698833333313,-2.3186394999999864
-12.857039000000016,11.542132666666463,-2.4877899999999866
-12.815549000000017,15.477276999999797,-2.6569404999999864
-12.815549000000013,15.477276999999797,-2.6569404999999864
-12.815549000000013,15.477276999999797,-2.6569404999999864
-12.52512066666668,7.096344999999796,-1.8782095866666533
-12.234692333333347,-1.2845870000002044,-1.09947867333332
-11.944264000000013,-9.665519000000204,-0.32074775999998656
-11.944264000000013,-9.665519000000204,-0.32074775999998656
-12.087882333333345,-12.563419333333536,5.5835644933333475
-12.231500666666676,-15.461319666666872,11.48787674666668
-12.375119000000007,-18.359220000000207,17.392189000000016
-9.547432266666675,-15.493235000000205,13.699600200000015
-6.7197455333333425,-12.627250000000204,10.007011400000016
-3.89205880000001,-9.761265000000206,6.3144226000000145
-3.8920588000000094,-9.761265000000206,6.3144226000000145
-3.8920588000000094,-9.761265000000206,6.3144226000000145
-0.9016045333333423,-9.055938866666871,3.6750354333333486
2.0888497333333245,-8.350612733333536,1.0356482666666824
5.079303999999991,-7.645286600000202,-1.6037388999999838
5.079303999999991,-7.645286600000202,-1.6037388999999838
7.555923666666658,-7.41549716666687,-1.5271423999999838
10.032543333333324,-7.185707733333537,-1.4505458999999838
12.509162999999992,-6.955918300000204,-1.373949399999984
9.95594699999999,-11.136809533333535,-0.10053283333331724
7.402730999999989,-15.317700766666867,1.1728837333333493
4.849514999999989,-19.498592000000198,2.446300300000016
4.849514999999989,-19.498592000000198,2.446300300000016
4.849514999999989,-19.498592000000198,2.446300300000016
-1.4345880000000115,-19.530507000000195,5.139943200000015
-7.718691000000011,-19.562422000000193,7.833586100000016
-14.002794000000014,-19.59433700000019,10.527229000000016
-14.002794000000014,-19.59433700000019,10.527229000000018
-15.75174700000001,-17.373039333333523,10.916594666666684
-17.500700000000013,-15.151741666666856,11.305960333333353
-19.249653000000013,-12.930444000000188,11.695326000000021
-19.249653000000013,-12.930444000000188,11.695326000000021
-16.591117000000015,-10.09637400000019,8.526146333333353
-13.932581000000019,-7.262304000000188,5.356966666666686
-11.27404500000002,-4.428234000000187,2.1877870000000197
-11.27404500000002,-4.428234000000187,2.1877870000000197
-11.025106333333353,-0.3303222000001866,0.7611775000000195
-10.776167666666685,3.767589599999814,-0.6654319999999806
-10.527229000000018,7.865501399999814,-2.0920414999999806
-10.527229000000018,7.865501399999815,-2.0920414999999806
-9.445303666666684,7.935714599999815,-2.7016218666666467
-8.363378333333351,8.005927799999816,-3.311202233333313
-7.281453000000018,8.076140999999815,-3.920782599999979
-7.281453000000018,8.076140999999815,-3.920782599999979
-6.371869800000018,4.996324299999816,-1.973955299999979
-5.462286600000017,1.9165075999998156,-0.027127999999978947
-4.552703400000017,-1.1633091000001843,1.9196993000000209
-4.552703400000017,-1.1633091000001843,1.9196993000000209
-8.519762933333352,-4.846323400000184,4.693130200000021
-12.486822466666686,-8.529337700000184,7.466561100000021
-16.453882000000018,-12.212352000000182,10.23999200000002
-16.453882000000018,-12.212352000000186,10.23999200000002
-17.503892000000018,-12.557036333333519,8.615508333333352
-18.55390200000002,-12.901720666666852,6.991024666666686
-19.60391200000002,-13.246405000000186,5.366541000000019
-19.60391200000002,-13.246405000000186,5.366541000000019
-19.144333333333353,-10.469782333333518,4.208019233333352
-18.684754666666684,-7.693159666666852,3.0494974666666845
-18.225176000000015,-4.9165370000001865,1.8909757000000174
-18.225176000000015,-4.916537000000187,1.8909757000000174
-14.280457000000013,-4.4920647666668545,0.7899012333333507
-10.335738000000012,-4.067592533333522,-0.311173233333316
-6.391019000000011,-3.643120300000188,-1.412247699999983
-6.391019000000011,-3.643120300000188,-1.412247699999983
-7.584647666666677,-5.162283866666854,-2.6186423666666503
