accx,accy,accz
-10.919786,0.11968201,3.825037000000001
-10.919786,0.11968201,3.825037000000001
-11.159150000000002,-0.16755479333333334,3.3080107333333344
-11.398514,-0.4547915966666667,2.7909844666666666
-11.637878,-0.7420284,2.2739581999999996
-11.586813666666666,-1.3324596000000002,1.954806166666666
-11.535749333333333,-1.9228908000000002,1.6356541333333328
-11.484684999999999,-2.513322,1.3165020999999995
-11.484684999999999,-2.513322,1.3165020999999995
-11.127234666666666,-2.960134833333333,1.1888412866666662
-10.769784333333334,-3.406947666666666,1.0611804733333328
-10.412334000000001,-3.8537604999999995,0.9335196599999994
-10.412334000000001,-3.8537604999999995,0.9335196599999994
-10.0708415,-3.732482766666666,1.3899070066666663
-9.729349,-3.6112050333333325,1.8462943533333334
-9.387856499999998,-3.4899272999999993,2.3026817000000004
-9.387856499999998,-3.4899272999999993,2.3026817000000004
-9.381473666666665,-3.4548205333333324,2.3090648
-9.375090833333331,-3.419713766666666,2.3154478999999992
-9.368707999999998,-3.3846069999999995,2.321830999999999
-9.368707999999998,-3.3846070000000004,2.321830999999999
-9.352749999999999,-3.1771582333333335,2.1845955999999993
-9.336791999999997,-2.9697094666666666,2.0473601999999995
-9.320833999999998,-2.7622607,1.9101247999999995
-9.320833999999998,-2.7622607,1.9101247999999995
-9.34636633333333,-2.6282168,1.9643806666666663
-9.371898666666665,-2.4941729,2.0186365333333334
-9.397430999999997,-2.360129,2.0728924
-9.397430999999997,-2.360129,2.0728924
-9.410196999999997,-2.4654492666666665,2.021828033333333
-9.422962999999996,-2.570769533333333,1.970763666666666
-9.435728999999995,-2.6760897999999993,1.9196992999999989
-9.435728999999993,-2.6760897999999993,1.9196992999999989
-9.429345999999994,-2.650557633333333,1.8622519333333323
-9.422962999999994,-2.6250254666666657,1.8048045666666657
-9.416579999999994,-2.599493299999999,1.747357199999999
-9.416579999999994,-2.5994932999999985,1.747357199999999
-9.410196999999995,-2.5101306666666656,1.7026759333333326
-9.403813999999995,-2.4207680333333323,1.657994666666666
-9.397430999999996,-2.331405399999999,1.6133133999999993
-9.397430999999997,-2.3314053999999995,1.6133133999999993
-9.343175333333333,-2.318639366666666,1.5526745333333327
-9.288919666666667,-2.3058733333333326,1.492035666666666
-9.234664000000002,-2.293107299999999,1.4313967999999992
-9.234664000000002,-2.293107299999999,1.4313967999999992
-9.164450333333335,-2.2707665999999995,1.3579918333333325
-9.094236666666667,-2.2484258999999995,1.2845868666666658
-9.024023,-2.2260852,1.211181899999999
-9.024023,-2.2260852,1.211181899999999
-8.899554,-2.2643834666666667,1.211181899999999
-8.775084999999999,-2.3026817333333334,1.211181899999999
-8.650616,-2.34098,1.211181899999999
-8.650616,-2.34098,1.211181899999999
-8.593168333333333,-2.3505546,1.2430970666666659
-8.535720666666668,-2.3601292,1.2750122333333327
-8.478273000000002,-2.3697038,1.3069273999999995
-8.478273000000002,-2.3697038,1.3069273999999995
-8.561252666666668,-2.3792783666666666,1.3994814999999994
-8.644232333333335,-2.3888529333333337,1.4920355999999992
-8.727212000000002,-2.3984275000000004,1.5845896999999989
-8.727212000000002,-2.3984275000000004,1.5845896999999987
-8.733595000000001,-2.580344133333334,1.6324625333333322
-8.739978,-2.7622607666666674,1.6803353666666656
-8.746361,-2.944177400000001,1.7282081999999992
-8.746361,-2.944177400000001,1.7282081999999992
-8.749552666666666,-2.877155466666668,1.7888470666666658
-8.752744333333332,-2.8101335333333353,1.8494859333333327
-8.755935999999998,-2.7431116000000024,1.9101247999999993
-8.755935999999998,-2.7431116000000024,1.9101247999999993
-9.135726833333331,-2.532471266666669,1.957997566666666
-9.515517666666666,-2.321830933333336,2.0058703333333328
-9.895308499999999,-2.1111906000000022,2.053743099999999
-9.895308499999999,-2.1111906000000022,2.053743099999999
-9.761264333333331,-2.2835326333333357,2.146297199999999
-9.627220166666666,-2.4558746666666686,2.2388512999999985
-9.493175999999998,-2.6282167000000016,2.331405399999998
-9.493175999999998,-2.6282167000000016,2.331405399999998
-9.148492333333332,-2.586726966666668,2.1494887666666656
-8.803808666666667,-2.5452372333333346,1.9675721333333325
-8.459125,-2.5037475000000016,1.785655499999999
-8.685722666666669,-2.471832333333335,1.689909899999999
-8.912320333333335,-2.439917166666669,1.5941642999999992
-9.138918000000004,-2.408002000000002,1.4984186999999993
-9.138918000000006,-2.408002000000002,1.4984186999999993
-9.138918000000006,-2.408002000000002,1.4984186999999993
-9.189982000000004,-2.4845984666666685,1.4377798333333327
-9.241046000000003,-2.561194933333335,1.3771409666666659
-9.292110000000003,-2.6377914000000016,1.3165020999999992
-9.174024000000003,-2.663323600000002,1.3899070333333325
-9.055938000000005,-2.688855800000002,1.4633119666666659
-8.937852000000005,-2.714388000000002,1.5367168999999992
-8.937852000000003,-2.714388000000002,1.5367168999999992
-8.896362333333334,-2.577152566666669,1.632462499999999
-8.854872666666667,-2.4399171333333363,1.728208099999999
-8.813382999999998,-2.302681700000003,1.8239536999999988
-8.813382999999996,-2.302681700000003,1.8239536999999988
-8.85168133333333,-2.4271510666666694,1.7856554666666655
-8.889979666666662,-2.5516204333333357,1.7473572333333323
-8.928277999999993,-2.676089800000002,1.709058999999999
-8.928277999999993,-2.676089800000002,1.709058999999999
-8.99529966666666,-2.714388000000002,1.6516116333333324
-9.062321333333328,-2.7526862000000016,1.5941642666666658
-9.129342999999993,-2.7909844000000015,1.5367168999999992
-9.129342999999993,-2.7909844000000015,1.5367168999999992
-9.027214333333328,-2.7335370333333344,1.546291499999999
-8.925085666666662,-2.6760896666666674,1.5558660999999991
-8.822956999999997,-2.6186423000000003,1.565440699999999
-8.822956999999997,-2.6186423000000008,1.565440699999999
-8.797424999999997,-2.586727133333334,1.5750152666666655
-8.771892999999997,-2.5548119666666675,1.5845898333333324
-8.746360999999995,-2.522896800000001,1.5941643999999993
-8.813382999999996,-2.497364633333334,1.6548032666666657
-8.880404999999998,-2.471832466666667,1.715442133333332
-8.947427,-2.4463003000000003,1.7760809999999985
-8.947427,-2.4463003,1.7760809999999985
-8.992108166666666,-2.5356628666666667,1.7313997333333315
-9.036789333333331,-2.6250254333333336,1.6867184666666646
-9.081470499999996,-2.714388000000001,1.6420371999999979
-9.081470499999996,-2.714388000000001,1.6420371999999979
-9.12296033333333,-2.7494946666666675,1.6420371999999979
-9.164450166666661,-2.7846013333333346,1.6420371999999979
-9.205939999999993,-2.8197080000000017,1.6420371999999979
-9.205939999999993,-2.8197080000000017,1.6420371999999979
-9.202748333333327,-2.8388571000000016,1.648420199999998
-9.19955666666666,-2.8580062000000015,1.6548031999999981
-9.196364999999995,-2.8771553000000014,1.6611861999999984
-9.196364999999995,-2.8771553000000014,1.6611861999999984
-9.15487533333333,-2.870772266666668,1.6643777333333316
-9.113385666666664,-2.8643892333333345,1.6675692666666648
-9.071895999999997,-2.8580062000000015,1.670760799999998
-9.071895999999997,-2.8580062000000015,1.670760799999998
-9.087853666666662,-2.835665600000002,1.677143833333331
-9.103811333333327,-2.813325000000002,1.6835268666666643
-9.119768999999993,-2.7909844000000024,1.6899098999999975
-9.119768999999993,-2.790984400000003,1.6899098999999975
-9.103811333333327,-2.7973674333333363,1.6356540666666646
-9.087853666666662,-2.8037504666666693,1.5813982333333314
-9.071895999999997,-2.8101335000000027,1.5271423999999982
-9.071895999999997,-2.8101335000000027,1.5271423999999982
-9.094236666666662,-2.8037504666666693,1.4856526333333315
-9.116577333333327,-2.7973674333333363,1.444162866666665
-9.138917999999991,-2.790984400000003,1.4026730999999986
-9.138917999999991,-2.790984400000003,1.4026730999999988
-9.132534999999992,-2.72396246666667,1.399481599999999
-9.126151999999992,-2.6569405333333367,1.3962900999999992
-9.119768999999993,-2.5899186000000034,1.3930985999999994
-9.119768999999993,-2.589918600000003,1.3930985999999994
-9.116577333333327,-2.58353556666667,1.3867155333333328
-9.11338566666666,-2.5771525333333365,1.380332466666666
-9.110193999999995,-2.570769500000003,1.3739493999999992
-9.11976866666666,-2.5484288333333365,1.3771409333333329
-9.129343333333326,-2.52608816666667,1.3803324666666663
-9.138917999999991,-2.5037475000000033,1.3835239999999998
-9.138917999999991,-2.5037475000000033,1.3835240000000002
-9.119768833333323,-2.4973644666666703,1.3994816000000003
-9.100619666666656,-2.490981433333337,1.4154392000000005
-9.08147049999999,-2.4845984000000034,1.4313968000000006
-9.081470499999988,-2.4845984000000034,1.4313968000000006
-9.075087666666654,-2.4399171666666706,1.4824611000000008
-9.068704833333321,-2.3952359333333373,1.533525400000001
-9.062321999999988,-2.350554700000004,1.584589700000001
-9.062321999999988,-2.350554700000004,1.584589700000001
-9.059130333333322,-2.353746133333338,1.6165049333333343
-9.055938666666655,-2.356937566666671,1.6484201666666678
-9.05274699999999,-2.3601290000000046,1.6803354000000013
-9.052746999999991,-2.3601290000000046,1.6803354000000013
-9.020831999999993,-2.388852766666671,1.6899099333333345
-8.988916999999995,-2.4175765333333374,1.699484466666668
-8.957001999999997,-2.4463003000000043,1.7090590000000014
-8.957001999999997,-2.4463003000000048,1.7090590000000014
-8.957001999999997,-2.4463003000000048,1.7090590000000014
-8.89955433333333,-2.4558748666666714,1.734591166666668
-8.84210666666666,-2.465449433333338,1.7601233333333346
-8.784658999999992,-2.475024000000005,1.7856555000000014
-8.81976566666666,-2.4782154666666716,1.8079961666666682
-8.854872333333326,-2.4814069333333384,1.8303368333333347
-8.889978999999991,-2.484598400000005,1.8526775000000013
-8.889978999999991,-2.484598400000005,1.852677500000001
-8.934660333333326,-2.497364533333339,1.8303368333333345
-8.979341666666661,-2.5101306666666723,1.807996166666668
-9.024022999999994,-2.5228968000000056,1.7856555000000014
-9.024022999999994,-2.5228968000000056,1.7856555000000014
-9.03678933333333,-2.548428966666673,1.7537403000000014
-9.049555666666663,-2.5739611333333396,1.721825100000001
-9.062321999999996,-2.5994933000000064,1.6899099000000009
-9.062321999999996,-2.599493300000007,1.6899099000000006
-9.05913033333333,-2.6218338666666736,1.6643777333333343
-9.055938666666664,-2.64417443333334,1.638845566666668
-9.052746999999998,-2.6665150000000066,1.6133134000000016
-9.052747,-2.666515000000006,1.6133134000000016
-9.027214833333336,-2.6728980666666726,1.6005473333333349
-9.001682666666671,-2.679281133333339,1.5877812666666682
-8.976150500000006,-2.6856642000000055,1.5750152000000017
-8.976150500000008,-2.6856642000000055,1.5750152000000017
-8.985725000000008,-2.708004800000006,1.5558661000000014
-8.995299500000007,-2.7303454000000063,1.5367170000000012
-9.004874000000006,-2.7526860000000064,1.517567900000001
-9.02402333333334,-2.7654521333333393,1.5016102666666677
-9.043172666666672,-2.778218266666672,1.4856526333333344
-9.062322000000007,-2.790984400000005,1.4696950000000013
-9.062322000000007,-2.790984400000005,1.4696950000000013
-9.062322000000007,-2.790984400000005,1.4696950000000013
-9.049555666666672,-2.7877928333333393,1.466503466666668
-9.036789333333338,-2.784601266666673,1.4633119333333349
-9.024023000000005,-2.781409700000007,1.4601204000000017
-9.024023000000005,-2.781409700000007,1.4601204000000017
-9.030406000000005,-2.7590691333333397,1.4824610666666682
-9.036789000000004,-2.7367285666666725,1.5048017333333348
-9.043172000000004,-2.7143880000000054,1.5271424000000013
-9.043172000000004,-2.7143880000000054,1.5271424000000013
-9.055938166666671,-2.682472766666672,1.565440666666668
-9.068704333333338,-2.650557533333339,1.6037389333333347
-9.081470500000007,-2.618642300000005,1.6420372000000014
-9.094236666666673,-2.554811866666672,1.686718466666668
-9.107002833333338,-2.490981433333339,1.7313997333333349
-9.119769000000003,-2.427151000000006,1.7760810000000016
-9.119769000000003,-2.427151000000006,1.776081000000002
-9.122960333333337,-2.4654492666666727,1.7537403333333355
-9.12615166666667,-2.5037475333333394,1.731399666666669
-9.129343000000004,-2.542045800000006,1.7090590000000023
-9.129343000000004,-2.542045800000006,1.7090590000000023
-9.107002666666672,-2.4941730333333396,1.712250566666669
-9.08466233333334,-2.446300266666673,1.7154421333333356
-9.062322000000007,-2.398427500000006,1.7186337000000023
-9.062322000000007,-2.398427500000006,1.7186337000000023
-9.052747333333338,-2.4080020000000064,1.6962930333333357
-9.04317266666667,-2.4175765000000062,1.6739523666666691
-9.033598000000003,-2.427151000000006,1.6516117000000026
-9.033598000000003,-2.427151000000006,1.6516117000000026
-8.985725000000002,-2.4175765000000062,1.6452286333333357
-8.937852000000001,-2.4080020000000064,1.638845566666669
-8.889979000000002,-2.398427500000006,1.6324625000000024
-8.889979000000002,-2.398427500000006,1.6324625000000024
-8.89317066666667,-2.417576566666673,1.622887966666669
-8.896362333333338,-2.43672563333334,1.6133134333333354
-8.899554000000007,-2.4558747000000065,1.6037389000000022
-8.883596333333339,-2.44630013333334,1.5909728333333355
-8.867638666666672,-2.436725566666673,1.5782067666666688
-8.851681000000005,-2.427151000000006,1.5654407000000023
-8.851681000000005,-2.427151000000006,1.5654407000000023
-8.851681000000005,-2.427151000000006,1.5654407000000023
-8.918703000000002,-2.4175765000000062,1.5526746000000022
-8.985725000000002,-2.4080020000000064,1.5399085000000021
-9.052747000000002,-2.398427500000006,1.5271424000000022
-9.250621333333333,-2.4080020000000064,1.5111848000000023
-9.448495666666668,-2.4175765000000062,1.4952272000000024
-9.646370000000001,-2.427151000000006,1.4792696000000027
-9.646370000000003,-2.427151000000006,1.4792696000000027
-9.668710333333337,-2.3601290666666728,1.4888441333333358
-9.691050666666671,-2.2931071333333395,1.4984186666666688
-9.713391000000007,-2.2260852000000058,1.507993200000002
-9.713391000000007,-2.2260852000000058,1.507993200000002
-9.257004000000004,-2.2197021666666727,1.501610200000002
-8.800617000000003,-2.2133191333333393,1.4952272000000022
-8.344230000000001,-2.206936100000006,1.4888442000000024
-8.34423,-2.206936100000006,1.4888442000000024
-8.328272,-2.2899156333333397,1.469695066666669
-8.312313999999999,-2.372895166666673,1.4505459333333357
-8.296356,-2.4558747000000065,1.4313968000000024
-8.296356,-2.4558747000000065,1.4313968000000024
-8.586784666666665,-2.38246973333334,1.4345883333333358
-8.877213333333332,-2.309064766666673,1.4377798666666692
-9.167641999999997,-2.2356598000000063,1.440971400000003
-9.167641999999995,-2.2356598000000063,1.440971400000003
-9.218705999999996,-2.3984273666666724,1.3356512000000027
-9.269769999999994,-2.5611949333333386,1.2303310000000027
-9.320833999999993,-2.7239625000000047,1.1250108000000025
-9.320833999999993,-2.7239625000000047,1.1250108000000025
-9.122959999999994,-2.704813333333339,1.1313938666666692
-8.925085999999995,-2.6856641666666725,1.1377769333333358
-8.727211999999996,-2.666515000000006,1.1441600000000027
-8.60593433333333,-2.6697066000000063,1.1888412666666692
-8.484656666666664,-2.672898200000006,1.2335225333333357
-8.363378999999997,-2.6760898000000055,1.2782038000000024
-8.363378999999997,-2.6760898000000055,1.2782038000000024
-8.363378999999997,-2.6760898000000055,1.2782038000000024
-8.274016333333329,-2.583535700000006,1.338842666666669
-8.18465366666666,-2.4909816000000062,1.3994815333333357
-8.09529099999999,-2.398427500000006,1.4601204000000025
-8.09529099999999,-2.398427500000006,1.4601204000000025
-7.967630133333324,-2.4271511333333393,1.418630666666669
-7.839969266666658,-2.4558747666666725,1.3771409333333358
-7.7123083999999915,-2.484598400000005,1.3356512000000025
-7.233580433333324,-2.3760867000000054,1.3196936000000024
-6.754852466666656,-2.2675750000000057,1.3037360000000022
-6.276124499999988,-2.1590633000000055,1.287778400000002
-6.2761244999999874,-2.1590633000000055,1.2877784000000019
-6.2761244999999874,-2.1590633000000055,1.2877784000000019
-5.982504533333319,-2.2388513666666725,1.1856497466666684
-5.688884566666651,-2.3186394333333396,1.0835210933333352
-5.395264599999983,-2.398427500000006,0.9813924400000018
-5.395264599999983,-2.398427500000006,0.9813924400000018
-6.394210399999984,-2.621833900000006,1.0547973933333352
-7.393156199999986,-2.845240300000006,1.1282023466666689
-8.392101999999987,-3.068646700000006,1.2016073000000023
-8.392101999999987,-3.068646700000006,1.2016073000000025
-10.316588999999986,-2.8260911333333394,1.3994815333333357
-12.241075999999985,-2.5835355666666726,1.5973557666666691
-14.165562999999985,-2.340980000000006,1.7952300000000025
-14.165562999999985,-2.340980000000006,1.7952300000000025
-14.969825999999985,-2.2197022333333396,2.165446333333336
-15.774088999999988,-2.098424466666673,2.5356626666666693
-16.578351999999988,-1.9771467000000065,2.9058790000000028
-16.57835199999999,-1.9771467000000065,2.9058790000000028
-14.516629999999992,-2.682472600000006,2.8356656000000027
-12.454907999999994,-3.3877985000000055,2.7654522000000026
-10.393185999999995,-4.093124400000005,2.6952388000000025
-10.393185999999995,-4.093124400000004,2.6952388000000025
-9.339984199999995,-3.4101391666666707,2.666515100000003
-8.286782399999993,-2.727153933333337,2.637791400000003
-7.233580599999992,-2.044168700000004,2.609067700000003
-6.256975399999991,-1.7282081666666709,2.7207709333333363
-5.280370199999992,-1.4122476333333374,2.8324741666666697
-4.303764999999992,-1.0962871000000038,2.944177400000003
-4.303764999999993,-1.0962871000000036,2.944177400000003
-4.303764999999993,-1.0962871000000036,2.944177400000003
-4.310147999999993,-1.7441657333333371,2.61225926666667
-4.316530999999992,-2.3920443666666706,2.2803411333333363
-4.322913999999992,-3.039923000000004,1.9484230000000033
-4.594193233333325,-2.9984332333333374,1.8462944000000032
-4.865472466666659,-2.956943466666671,1.744165800000003
-5.136751699999992,-2.9154537000000045,1.6420372000000032
-5.1367516999999925,-2.9154537000000045,1.6420372000000032
-5.934631699999993,-2.8835384666666712,1.8367198666666698
-6.732511699999992,-2.851623233333338,2.031402533333337
-7.530391699999991,-2.8197080000000043,2.226085200000004
-7.530391699999991,-2.8197080000000043,2.226085200000004
-8.864447133333325,-2.8580062333333376,2.2516173666666712
-10.198502566666658,-2.896304466666671,2.277149533333338
-11.53255799999999,-2.9346027000000046,2.302681700000005
-11.53255799999999,-2.934602700000005,2.302681700000005
-13.549598999999988,-2.9665179000000053,2.1111905333333376
-15.566639999999987,-2.9984331000000055,1.919699366666671
-17.583680999999988,-3.0303483000000058,1.7282082000000045
-17.583680999999988,-3.0303483000000058,1.7282082000000045
-17.373040666666654,-2.752686100000006,1.6420371333333377
-17.16240033333332,-2.475023900000006,1.555866066666671
-16.951759999999982,-2.197361700000006,1.4696950000000042
-16.951759999999982,-2.197361700000006,1.4696950000000042
-14.478331666666648,-2.0920415333333398,1.6707608000000043
-12.004903333333315,-1.9867213666666732,1.8718266000000046
-9.53147499999998,-1.8814012000000064,2.0728924000000046
-7.926140333333315,-1.9675722333333399,1.9165079000000045
-6.320805666666648,-2.053743266666673,1.7601234000000041
-4.715470999999982,-2.1399143000000067,1.603738900000004
-4.715470999999982,-2.1399143000000067,1.603738900000004
-3.9303569999999817,-2.3026817666666735,1.4441628666666706
-3.1452429999999816,-2.46544923333334,1.2845868333333375
-2.360128999999982,-2.628216700000007,1.1250108000000043
-2.3601289999999815,-2.628216700000007,1.1250108000000043
-2.4622576666666482,-2.4080018666666736,1.1250108000000043
-2.564386333333315,-2.1877870333333402,1.1250108000000043
-2.6665149999999813,-1.9675722000000067,1.1250108000000043
-2.6665149999999813,-1.9675722000000067,1.1250108000000043
-3.748440333333315,-1.9484230666666733,1.1345854000000042
-4.830365666666649,-1.92927393333334,1.144160000000004
-5.912290999999983,-1.9101248000000066,1.1537346000000042
-5.912290999999982,-1.9101248000000066,1.1537346000000042
-6.984641666666647,-2.012253466666673,1.137777000000004
-8.056992333333312,-2.11438213333334,1.121819400000004
-9.129342999999977,-2.2165108000000067,1.1058618000000038
-9.129342999999977,-2.2165108000000067,1.1058618000000036
-9.971904333333311,-2.33778853333334,1.3835240333333367
-10.814465666666644,-2.459066266666673,1.66118626666667
-11.657026999999978,-2.580344000000007,1.938848500000003
-11.657026999999978,-2.580344000000007,1.938848500000003
-13.080444999999978,-2.77821833333334,1.9005502333333364
-14.50386299999998,-2.9760926666666734,1.8622519666666697
-15.92728099999998,-3.173967000000007,1.823953700000003
-14.621949333333312,-3.3909903333333404,2.2228938000000027
-13.316617666666644,-3.608013666666674,2.621833900000003
-12.011285999999977,-3.8250370000000076,3.020774000000003
-12.011285999999977,-3.8250370000000076,3.020774000000003
-12.011285999999977,-3.8250370000000076,3.020774000000003
-10.188927999999978,-3.2409888000000073,3.0016248333333366
-8.36656999999998,-2.656940600000007,2.9824756666666707
-6.54421199999998,-2.072892400000007,2.9633265000000044
-6.54421199999998,-2.0728924000000064,2.9633265000000044
-6.030377333333313,-1.7409743000000066,2.7494946666666706
-5.516542666666645,-1.4090562000000066,2.5356628333333373
-5.002707999999978,-1.0771381000000066,2.321831000000004
-5.002707999999978,-1.0771381000000069,2.3218310000000044
-4.980367333333311,-1.6962929666666735,2.2452345000000045
-4.958026666666645,-2.3154478333333404,2.168638000000005
-4.935685999999977,-2.934602700000007,2.0920415000000054
-4.9356859999999765,-2.9346027000000077,2.0920415000000054
-6.42931733333331,-3.5601408000000077,2.1973616666666715
-7.922948666666643,-4.185678900000007,2.302681833333338
-9.416579999999977,-4.811217000000007,2.4080020000000046
-11.615537666666645,-4.051635066666674,2.2931072666666714
-13.814495333333312,-3.2920531333333414,2.178212533333338
-16.01345299999998,-2.532471200000008,2.063317800000005
-16.01345299999998,-2.5324712000000082,2.063317800000005
-15.882600333333315,-2.219702266666675,2.213319200000005
-15.75174766666665,-1.9069333333333418,2.363320600000005
-15.620894999999985,-1.5941644000000086,2.5133220000000054
-15.620894999999985,-1.5941644000000086,2.5133220000000054
-15.620894999999985,-1.5941644000000086,2.5133220000000054
-13.980453999999986,-1.9069333333333418,1.8462943333333381
-12.340012999999985,-2.219702266666675,1.1792666666666716
-10.699571999999984,-2.5324712000000082,0.5122390000000047
-10.699571999999984,-2.5324712000000082,0.5122390000000047
-9.41658066666665,-2.328213900000008,0.7388369333333381
-8.133589333333317,-2.123956600000008,0.9654348666666714
-6.850597999999985,-1.9196993000000078,1.1920328000000049
-6.0942076666666525,-1.7441657333333414,0.9877755000000049
-5.337817333333319,-1.568632166666675,0.7835182000000048
-4.5814269999999855,-1.3930986000000083,0.5792609000000047
-4.5814269999999855,-1.3930986000000083,0.5792609000000047
-5.436754466666652,-1.5558661333333417,0.39096121366667136
-6.292081933333319,-1.718633666666675,0.20266152733333798
-7.147409399999987,-1.8814012000000082,0.01436184100000463
-7.147409399999987,-1.8814012000000082,0.01436184100000463
-8.465507266666654,-2.0314026000000083,0.2090445606666713
-9.78360513333332,-2.1814040000000086,0.403727280333338
-11.101702999999986,-2.331405400000009,0.5984100000000047
-11.101702999999986,-2.331405400000009,0.5984100000000047
-11.136809666666652,-2.3856612666666757,1.1633091000000044
-11.17191633333332,-2.4399171333333425,1.7282082000000043
-11.207022999999985,-2.4941730000000093,2.293107300000004
-11.207022999999985,-2.4941730000000093,2.2931073000000044
-10.83361533333332,-3.122902533333343,2.7271540333333384
-10.460207666666655,-3.7516320666666765,3.161200766666672
-10.08679999999999,-4.38036160000001,3.595247500000005
-10.086799999999991,-4.38036160000001,3.595247500000005
-9.464453333333323,-3.7963133000000098,3.336734333333338
-8.842106666666655,-3.2122650000000093,3.0782211666666712
-8.219759999999988,-2.628216700000009,2.8197080000000043
-7.894224999999988,-2.178212400000009,2.743111533333338
-7.568689999999989,-1.7282081000000087,2.6665150666666713
-7.243154999999988,-1.2782038000000087,2.5899186000000047
-7.243154999999988,-1.2782038000000087,2.5899186000000047
-7.591030666666654,-1.801613133333342,2.580344066666671
-7.938906333333321,-2.3250224666666752,2.5707695333333374
-8.286781999999988,-2.8484318000000086,2.5611950000000037
-8.286781999999988,-2.8484318000000086,2.5611950000000037
-8.344229666666655,-3.1452431666666754,2.829282666666671
-8.40167733333332,-3.442054533333342,3.0973703333333376
-8.459124999999986,-3.738865900000009,3.3654580000000043
-8.459124999999986,-3.738865900000009,3.3654580000000043
-9.601688999999986,-2.998433233333342,3.5505662000000044
-10.744252999999986,-2.258000566666675,3.735674400000004
-11.886816999999986,-1.5175679000000077,3.920782600000004
-11.886816999999986,-1.5175679000000077,3.920782600000004
-12.946401666666652,-1.8814011666666748,3.38460716666667
-14.005986333333318,-2.245234433333342,2.8484317333333364
-15.065570999999984,-2.609067700000009,2.3122563000000027
-15.065570999999984,-2.609067700000009,2.312256300000003
-14.867696666666651,-2.583535533333342,1.7026759666666695
-14.669822333333316,-2.558003366666675,1.0930956333333361
-14.471947999999983,-2.5324712000000082,0.48351530000000276
-14.471947999999983,-2.5324712000000082,0.48351530000000276
-13.035763999999984,-2.4143849333333414,0.7452199666666695
-11.599579999999984,-2.2962986666666745,1.0069246333333361
-10.163395999999985,-2.178212400000008,1.2686293000000028
-10.163395999999985,-2.178212400000008,1.268629300000003
-8.829340533333317,-2.1016159333333415,1.0962872000000032
-7.495285066666651,-2.025019466666675,0.9239451000000033
-6.161229599999984,-1.9484230000000082,0.7516030000000035
-6.161229599999984,-1.9484230000000082,0.7516030000000035
-5.73356596666665,-1.7409742000000084,0.6079845866666702
-5.305902333333317,-1.5335254000000085,0.46436617333333685
-4.878238699999984,-1.3260766000000086,0.3207477600000035
-4.878238699999983,-1.3260766000000086,0.3207477600000035
-5.583564599999982,-1.3835239666666752,0.33989688666667023
-6.288890499999982,-1.4409713333333418,0.3590460133333369
-6.994216399999981,-1.4984187000000084,0.37819514000000365
-6.994216399999981,-1.4984187000000084,0.3781951400000037
-7.833586266666647,-1.967572133333342,0.6111761266666704
-8.672956133333315,-2.4367255666666754,0.8441571133333371
-9.512325999999982,-2.905879000000009,1.0771381000000038
-9.512325999999982,-2.905879000000009,1.0771381000000038
-10.72829516666665,-3.113327800000009,1.2526717000000038
-11.944264333333317,-3.3207766000000087,1.4282053000000037
-13.160233499999984,-3.5282254000000086,1.6037389000000035
-13.003848999999983,-4.048443266666675,2.072892333333337
-12.847464499999981,-4.568661133333342,2.54204576666667
-12.69107999999998,-5.088879000000009,3.0111992000000036
-12.69107999999998,-5.08887900000001,3.0111992000000036
-11.01553199999998,-4.383553000000009,2.56119486666667
-9.339983999999982,-3.6782270000000086,2.1111905333333367
-7.664435999999983,-2.9729010000000087,1.6611862000000033
-7.664435999999983,-2.9729010000000087,1.6611862000000033
-7.051663999999984,-2.2420428866666753,1.5558660333333367
-6.438891999999984,-1.5111847733333417,1.45054586666667
-5.826119999999984,-0.7803266600000085,1.3452257000000032
-5.826119999999984,-0.7803266600000085,1.3452257000000032
-5.889950333333318,-0.6909641066666752,2.0058703333333363
-5.953780666666652,-0.6016015533333419,2.6665149666666697
-6.0176109999999845,-0.5122390000000085,3.327159600000003
-6.017610999999984,-0.5122390000000085,3.327159600000003
-6.582510133333318,-1.2590546666666753,3.1612005666666696
-7.147409266666652,-2.005870333333342,2.995241533333336
-7.712308399999986,-2.752686000000009,2.829282500000003
-7.712308399999986,-2.752686000000009,2.829282500000003
-10.712337266666653,-3.6686523333333425,2.0026788166666694
-13.71236613333332,-4.5846186666666755,1.176075133333336
-16.71239499999999,-5.500585000000009,0.34947145000000246
-16.71239499999999,-5.500585000000009,0.34947145000000246
-16.760267999999993,-5.3569666666666755,0.13244807666666913
-16.808140999999992,-5.213348333333342,-0.0845752966666642
-16.85601399999999,-5.069730000000008,-0.30159866999999757
-16.85601399999999,-5.069730000000008,-0.30159866999999757
-14.995357666666658,-3.7739727333333413,0.7388368866666691
-13.134701333333325,-2.4782154666666742,1.779272443333336
-11.274044999999992,-1.1824582000000075,2.8197080000000034
-11.274044999999992,-1.1824582000000075,2.8197080000000034
-9.821903233333325,-1.3771409333333409,2.7909843333333364
-8.36976146666666,-1.571823666666674,2.76226066666667
-6.917619699999993,-1.7665064000000072,2.733537000000003
-6.917619699999993,-1.7665064000000072,2.733537000000003
-5.960163799999993,-1.9675722000000073,2.0697008000000032
-5.002707899999994,-2.168638000000007,1.405864600000003
-4.045251999999994,-2.3697038000000066,0.7420284000000029
-4.894196333333328,-2.130339766666673,0.18351238000000294
-5.743140666666662,-1.89097573333334,-0.37500363999999703
-6.592084999999995,-1.6516117000000066,-0.9335196599999972
-6.592084999999995,-1.6516117000000066,-0.9335196599999972
-6.592084999999995,-1.6516117000000066,-0.9335196599999972
-7.450603999999995,-1.5909728000000065,-0.5058559566666639
-8.309122999999994,-1.5303339000000065,-0.07819225333333057
-9.167641999999995,-1.4696950000000062,0.34947145000000274
-9.167641999999995,-1.4696950000000062,0.34947145000000274
-10.316589333333328,-2.1941701000000062,0.6335167333333361
-11.46553666666666,-2.918645200000006,0.9175620166666695
-12.614483999999992,-3.6431203000000063,1.2016073000000027
-12.614483999999992,-3.6431203000000063,1.2016073000000027
-12.687888999999993,-4.370786866666673,1.7505488000000027
-12.761293999999994,-5.09845343333334,2.299490300000003
-12.834698999999995,-5.826120000000007,2.8484318000000037
-12.834698999999995,-5.826120000000007,2.8484318000000037
-11.392131666666662,-4.9165368000000065,2.6633236333333365
-9.949564333333328,-4.006953600000006,2.47821546666667
-8.506996999999993,-3.097370400000006,2.2931073000000026
-7.824011666666661,-2.3728952900000064,1.9962959000000027
-7.141026333333329,-1.648420180000006,1.699484500000003
-6.458040999999997,-0.9239450700000061,1.402673100000003
-6.493147666666663,-1.1345854133333395,1.7792724666666697
-6.528254333333329,-1.3452257566666728,2.1558718333333364
-6.563360999999996,-1.5558661000000062,2.5324712000000034
-6.563360999999996,-1.5558661000000062,2.5324712000000034
-6.9208113333333285,-2.235659900000006,2.873963833333337
-7.278261666666661,-2.9154537000000063,3.2154564666666707
-7.635711999999994,-3.5952475000000064,3.556949100000004
-7.635711999999994,-3.5952475000000064,3.556949100000004
-8.133588999999994,-3.5792899000000062,3.419713800000004
-8.631465999999994,-3.563332300000006,3.2824785000000034
-9.129342999999993,-3.547374700000006,3.145243200000003
-9.129342999999993,-3.547374700000006,3.145243200000003
-10.855955333333327,-3.7229083333333395,2.976092600000003
-12.58256766666666,-3.898441966666672,2.806942000000003
-14.309179999999992,-4.073975600000005,2.637791400000003
-15.904939999999995,-3.7260998333333384,2.34417156666667
-17.500699999999995,-3.3782240666666716,2.0505517333333363
-19.096459999999997,-3.030348300000005,1.7569319000000032
-19.09646,-3.030348300000005,1.7569319000000032
-19.09646,-3.030348300000005,1.7569319000000032
-16.79856566666667,-2.242042866666671,2.037785700000003
-14.500671333333335,-1.4537374333333377,2.318639500000003
-12.202777,-0.6654320000000045,2.599493300000003
-10.6165915,-0.9399027333333377,2.26438366666667
-9.030406000000001,-1.214373466666671,1.9292740333333365
-7.444220500000003,-1.4888442000000044,1.594164400000003
-7.444220500000003,-1.4888442000000044,1.5941644000000028
-6.754852333333337,-1.8143792333333375,1.1377769900000028
-6.065484166666671,-2.139914266666671,0.6813895800000028
-5.376116000000006,-2.4654493000000044,0.2250021700000029
-5.376116000000006,-2.465449300000005,0.2250021700000029
-5.376116000000006,-2.465449300000005,0.2250021700000029
-4.871855700000006,-2.3856612666666717,0.17712936833333623
-4.367595400000004,-2.3058732333333385,0.12925656666666954
-3.8633351000000036,-2.2260852000000053,0.08138376500000288
-3.8633351000000036,-2.2260852000000053,0.08138376500000288
-4.7729184000000044,-2.0345940333333385,0.06223464400000289
-5.682501700000004,-1.843102866666672,0.043085523000002894
-6.592085000000004,-1.6516117000000055,0.023936402000002893
-9.445304000000004,-2.210127666666672,0.03670248266666956
-12.298523000000003,-2.7686436333333386,0.049468563333336234
-15.151742000000004,-3.327159600000005,0.0622346440000029
-15.151742000000004,-3.327159600000005,0.0622346440000029
-14.615566666666671,-3.9782297333333383,1.2877783960000029
-14.079391333333339,-4.629299866666671,2.5133221480000025
-13.543216000000006,-5.280370000000004,3.7388659000000026
-13.543216000000006,-5.280370000000004,3.7388659000000026
-12.959167666666673,-4.508022166666671,2.9984332333333357
-12.37511933333334,-3.7356743333333373,2.2580005666666687
-11.791071000000008,-2.963326500000004,1.517567900000002
-11.791071000000008,-2.963326500000003,1.517567900000002
-10.833615000000007,-2.61225926666667,1.393098600000002
-9.876159000000007,-2.2611920333333364,1.2686293000000024
-8.918703000000006,-1.9101248000000028,1.1441600000000027
-8.918703000000006,-1.9101248000000028,1.1441600000000027
-8.069758666666672,-1.7665064000000028,1.865443533333336
-7.220814333333339,-1.622888000000003,2.5867270666666693
-6.371870000000006,-1.479269600000003,3.308010600000003
-6.371870000000006,-1.479269600000003,3.308010600000003
-6.422934333333338,-2.334597066666669,3.0335398666666697
-6.473998666666671,-3.1899245333333357,2.759069133333336
-6.525063000000004,-4.045252000000002,2.484598400000003
-7.511243000000004,-3.872909800000002,2.22289376666667
-8.497423000000003,-3.7005676000000025,1.961189133333337
-9.483603000000004,-3.5282254000000024,1.699484500000004
-9.483603000000002,-3.5282254000000024,1.699484500000004
-9.483603000000002,-3.5282254000000024,1.699484500000004
-10.718721000000002,-3.065455033333336,2.0282110666666706
-11.953839000000002,-2.60268466666667,2.3569376333333367
-13.188957000000002,-2.139914300000003,2.6856642000000033
-12.802783333333336,-2.2228938000000036,2.52608816666667
-12.416609666666668,-2.305873300000003,2.366512133333337
-12.030436000000002,-2.388852800000003,2.2069361000000036
-12.030436000000002,-2.3888528000000027,2.2069361000000036
-11.972988333333333,-2.8133250000000025,1.5430999333333368
-11.915540666666665,-3.2377972000000024,0.8792637666666702
-11.858092999999997,-3.662269400000002,0.2154276000000035
-11.858092999999997,-3.662269400000002,0.2154276000000035
-11.858092999999997,-3.662269400000002,0.2154276000000035
-11.580430666666665,-3.553757700000002,-0.25372586666666325
-11.302768333333333,-3.4452460000000023,-0.72287933333333
-11.025106000000001,-3.336734300000002,-1.1920327999999967
-10.463398666666668,-2.7782182666666686,-0.8696892566666633
-9.901691333333334,-2.219702233333335,-0.54734571333333
-9.339984000000001,-1.661186200000002,-0.2250021699999966
-9.339984000000001,-1.661186200000002,-0.2250021699999966
-9.799562666666667,-1.7058674666666684,-0.14521416633332992
-10.259141333333332,-1.750548733333335,-0.06542616266666325
-10.718719999999998,-1.7952300000000017,0.014361841000003409
-10.718719999999998,-1.7952300000000017,0.014361841000003409
-10.718719999999998,-1.7952300000000017,0.014361841000003409
-10.594250666666666,-1.6548031333333348,-0.28564103933332996
-10.469781333333332,-1.514376266666668,-0.5856439196666633
-10.345312,-1.3739494000000014,-0.8856467999999965
-10.345312,-1.3739494000000014,-0.8856467999999965
-10.042117666666668,-1.3420342000000014,-0.5313880766666633
-9.738923333333334,-1.3101190000000014,-0.1771293533333299
-9.435729000000002,-1.2782038000000016,0.17712937000000348
-9.60487966666667,-1.696292933333335,0.03989400333333679
-9.774030333333338,-2.114382066666668,-0.09734136333332988
-9.943181000000004,-2.5324712000000016,-0.23457672999999657
-9.943181000000004,-2.5324712000000016,-0.23457672999999657
-9.183599333333337,-2.822899500000002,-0.017553353333329896
-8.42401766666667,-3.113327800000002,0.19947002333333677
-7.664436000000003,-3.4037561000000025,0.4164934000000035
-7.664436000000002,-3.4037561000000025,0.4164934000000035
-7.185707833333335,-3.1356685000000017,1.2430971333333367
-6.706979666666666,-2.867580900000002,2.06970086666667
-6.228251499999999,-2.599493300000002,2.8963046000000037
-6.228251499999999,-2.599493300000002,2.8963046000000037
-6.943152,-2.376086866666669,3.081412733333337
-7.658052500000001,-2.152680433333336,3.2665208666666703
-8.372953000000003,-1.9292740000000028,3.4516290000000036
-8.372953000000003,-1.929274000000003,3.4516290000000036
-8.462315666666669,-1.6867184333333363,4.003762000000003
-8.551678333333335,-1.4441628666666695,4.555895000000003
-8.641041000000001,-1.201607300000003,5.108028000000004
-8.641041000000001,-1.201607300000003,5.108028000000004
-8.615509000000001,-1.1984158000000031,5.149517666666669
-8.589977,-1.1952243000000033,5.191007333333335
-8.564445,-1.1920328000000036,5.232497000000001
-8.382528,-1.6260795333333367,4.836748666666668
-8.200611000000002,-2.06012626666667,4.441000333333334
-8.018694000000004,-2.4941730000000035,4.0452520000000005
-8.018694000000005,-2.4941730000000035,4.0452520000000005
-7.441029000000005,-2.845240233333337,3.738866000000001
-6.863364000000005,-3.1963074666666706,3.4324800000000013
-6.2856990000000055,-3.547374700000004,3.1260940000000015
-6.2856990000000055,-3.547374700000004,3.1260940000000015
-6.2856990000000055,-3.547374700000004,3.1260940000000015
-6.237826100000006,-2.8516232666666705,2.9377943333333345
-6.189953200000005,-2.1558718333333364,2.7494946666666675
-6.142080300000004,-1.4601204000000034,2.561195000000001
-6.142080300000004,-1.4601204000000034,2.561195000000001
-6.668681200000005,-1.30692746666667,2.8643894000000008
-7.195282100000006,-1.1537345333333366,3.167583800000001
-7.721883000000006,-1.0005416000000034,3.470778200000001
-9.898499666666673,-1.792038633333337,2.9920501333333345
-12.07511633333334,-2.5835356666666702,2.513322066666668
-14.251733000000003,-3.3750327000000038,2.0345940000000016
-14.251733000000002,-3.3750327000000038,2.0345940000000016
-14.251733000000002,-3.3750327000000038,2.0345940000000016
-15.981537000000003,-3.4484376333333375,1.8239537000000012
-17.711341000000004,-3.521842566666671,1.613313400000001
-19.441145000000006,-3.5952475000000046,1.4026731000000006
-19.44114500000001,-3.595247500000005,1.4026731000000006
-16.80175800000001,-3.097370333333339,1.3356511666666673
-14.16237100000001,-2.599493166666672,1.268629233333334
-11.52298400000001,-2.1016160000000057,1.2016073000000007
-9.754881666666677,-1.823953766666672,1.0196906666666674
-7.986779333333343,-1.5462915333333387,0.837774033333334
-6.218677000000009,-1.2686293000000053,0.6558574000000007
-6.218677000000009,-1.2686293000000053,0.6558574000000007
-6.218677000000009,-1.2686293000000053,0.6558574000000007
-5.417605466666676,-1.2782038333333388,0.5888354800000006
-4.6165339333333435,-1.2877783666666722,0.5218135600000006
-3.8154624000000106,-1.2973529000000055,0.45479164000000055
-3.8154624000000106,-1.2973529000000055,0.45479164000000055
-4.038868766666678,-1.520759333333339,0.38776971333333393
-4.262275133333345,-1.7441657666666723,0.32074778666666726
-4.485681500000012,-1.9675722000000058,0.2537258600000006
-4.485681500000012,-1.9675722000000058,0.2537258600000006
-5.433563000000011,-2.0728923333333387,0.31436474000000053
-6.38144450000001,-2.1782124666666722,0.3750036200000005
-7.329326000000009,-2.2835326000000054,0.43564250000000043
-7.329326000000009,-2.2835326000000054,0.43564250000000043
-8.449549666666675,-2.3633206666666715,0.7835182000000005
-9.569773333333343,-2.4431087333333386,1.1313939000000006
-10.68999700000001,-2.5228968000000056,1.4792696000000005
-10.68999700000001,-2.5228968000000056,1.4792696000000005
-11.366599333333342,-3.1133280000000063,2.009061966666667
-12.043201666666677,-3.703759200000007,2.5388543333333335
-12.719804000000012,-4.294190400000008,3.0686467000000004
-12.719804000000016,-4.294190400000008,3.0686467000000004
-12.103840333333347,-3.8314199333333403,3.199499
-11.48787666666668,-3.3686494666666733,3.3303513
-10.871913000000012,-2.9058790000000063,3.4612035999999993
-10.871913000000012,-2.9058790000000063,3.461203599999999
-10.003819500000011,-2.5133220666666727,2.8133250333333315
-9.13572600000001,-2.120765133333339,2.1654464666666646
-8.26763250000001,-1.7282082000000052,1.5175678999999975
-8.26763250000001,-1.7282082000000052,1.5175678999999975
-8.149546466666678,-1.3707579333333386,1.8335283666666644
-8.031460433333345,-1.013307666666672,2.149488833333331
-7.913374400000014,-0.6558574000000053,2.4654492999999977
-7.913374400000014,-0.6558574000000053,2.4654492999999977
-8.229334933333346,-1.4760781000000052,2.5643864333333313
-8.545295466666678,-2.296298800000005,2.6633235666666653
-8.86125600000001,-3.1165195000000048,2.762260699999999
-8.86125600000001,-3.1165195000000048,2.762260699999999
-10.182545333333344,-4.255892166666672,2.1877870666666652
-11.503834666666679,-5.395264833333338,1.6133134333333317
-12.825124000000015,-6.534637500000005,1.0388397999999979
-12.825124000000015,-6.534637500000005,1.038839799999998
-14.791100333333347,-6.556978100000006,1.0101161333333313
-16.75707666666668,-6.579318700000005,0.9813924666666646
-18.72305300000001,-6.601659300000005,0.9526687999999979
-18.72305300000001,-6.601659300000004,0.9526687999999979
-16.616649666666678,-4.712279420000004,1.2909699333333313
-14.510246333333344,-2.8228995400000048,1.6292710666666645
-12.40384300000001,-0.9335196600000047,1.9675721999999982
-12.40384300000001,-0.9335196600000047,1.9675721999999982
-12.40384300000001,-0.9335196600000047,1.9675721999999982
-11.178299333333344,-0.8026673200000047,2.1718294666666647
-9.952755666666677,-0.6718149800000047,2.3760867333333318
-8.72721200000001,-0.5409626400000048,2.580343999999999
-7.7250746666666785,-0.7196877933333381,2.628216833333332
-6.722937333333346,-0.8984129466666714,2.6760896666666647
-5.720800000000014,-1.0771381000000047,2.7239624999999976
-5.720800000000014,-1.0771381000000047,2.7239624999999976
-5.13036876666668,-1.4122476666666712,2.056934766666665
-4.5399375333333465,-1.7473572333333378,1.3899070333333314
-3.9495063000000123,-2.0824668000000046,0.722879299999998
-3.9495063000000123,-2.082466800000004,0.722879299999998
-6.27293286666668,-2.334596933333337,0.509047454999998
-8.596359433333346,-2.58672706666667,0.295215609999998
-10.91978600000001,-2.838857200000003,0.081383764999998
-10.91978600000001,-2.838857200000003,0.081383764999998
-12.697463000000011,-2.6314084000000033,0.24415129333333133
-14.47514000000001,-2.4239596000000034,0.40691882166666465
-16.25281700000001,-2.2165108000000036,0.569686349999998
-16.25281700000001,-2.2165108000000036,0.5696863499999979
-14.612375333333345,-3.2282227000000034,1.3420342333333313
-12.97193366666668,-4.239934600000003,2.1143821166666648
-11.331492000000013,-5.251646500000002,2.8867299999999982
-11.331492000000017,-5.251646500000002,2.8867299999999982
-9.362324100000015,-4.479298566666668,2.842048666666665
-7.393156200000015,-3.706950633333335,2.797367333333332
-5.4239883000000155,-2.9346027000000015,2.752685999999999
-5.4239883000000155,-2.9346027000000015,2.752685999999999
-6.008036533333349,-3.1229024666666683,1.9388483999999988
-6.592084766666681,-3.311202233333335,1.1250107999999988
-7.176133000000014,-3.499502000000002,0.31117319999999865
-7.176133000000014,-3.499502000000002,0.31117319999999865
-6.604851000000014,-2.254809090000002,0.6622404333333319
-6.033569000000014,-1.010116180000002,1.0133076666666654
-5.462287000000014,0.23457672999999804,1.3643748999999987
-5.462287000000014,0.23457672999999804,1.364374899999999
-5.583564666666681,0.02074487999999804,2.328214033333332
-5.704842333333347,-0.19308697000000197,3.292053166666665
-5.826120000000014,-0.40691882000000196,4.2558922999999975
-5.826120000000014,-0.40691882000000196,4.255892299999997
-5.826120000000014,-0.40691882000000196,4.255892299999997
-8.54210366666668,-1.8941672133333352,4.20801943333333
-11.258087333333345,-3.381415606666668,4.160146566666664
-13.974071000000011,-4.868664000000002,4.112273699999997
-15.850684666666679,-4.900579333333336,3.5824813999999967
-17.727298333333344,-4.93249466666667,3.0526890999999963
-19.60391200000001,-4.9644100000000035,2.522896799999996
-19.60391200000001,-4.9644100000000035,2.5228967999999963
-17.299634666666673,-3.6239714000000034,2.5228967999999963
-14.995357333333338,-2.2835328000000037,2.5228967999999963
-12.691080000000005,-0.9430942000000035,2.5228967999999963
-12.691080000000005,-0.9430942000000035,2.5228967999999963
-12.691080000000005,-0.9430942000000035,2.5228967999999963
-11.325109333333337,-0.553728743333337,2.532471266666663
-9.95913866666667,-0.1643632866666703,2.54204573333333
-8.593168000000004,0.22500216999999637,2.551620199999997
-7.70592546666667,-0.14521415333333698,2.0984243999999967
-6.818682933333338,-0.5154304766666703,1.6452285999999965
-5.931440400000004,-0.8856468000000038,1.1920327999999965
-5.931440400000004,-0.8856468000000038,1.1920327999999965
-6.317614266666671,-0.9782009000000039,0.4516000999999963
-6.703788133333338,-1.070755000000004,-0.2888326000000038
-7.089962000000004,-1.163309100000004,-1.0292653000000038
-7.089962000000004,-1.163309100000004,-1.0292653000000038
-7.089962000000004,-1.163309100000004,-1.0292653000000038
-8.395294000000005,-1.4473544000000038,-0.9718179200000039
-9.700626000000005,-1.731399700000004,-0.9143705400000038
-11.005958000000005,-2.015445000000004,-0.8569231600000039
-11.005958000000005,-2.0154450000000046,-0.8569231600000039
-10.63893266666667,-2.7399201333333374,-0.5409626633333372
-10.271907333333338,-3.4643952666666706,-0.22500216666667053
-9.904882000000006,-4.188870400000003,0.09095832999999613
-9.215513900000005,-4.358020933333338,0.6271337199999961
-8.526145800000004,-4.5271714666666725,1.1633091099999961
-7.836777700000003,-4.6963220000000065,1.699484499999996
-7.836777700000003,-4.696322000000007,1.6994844999999958
-7.836777700000003,-4.696322000000007,1.6994844999999958
-7.508051133333336,-4.300573466666674,2.289915733333329
-7.179324566666669,-3.9048249333333405,2.880346966666662
-6.850598000000002,-3.5090764000000068,3.470778199999995
-6.850598000000002,-3.5090764000000068,3.470778199999995
-6.856981000000002,-2.8260910666666734,2.6537489999999955
-6.863364000000002,-2.1431057333333396,1.8367197999999956
-6.869747000000001,-1.4601204000000063,1.0196905999999955
-6.774001500000001,-1.3324596333333396,1.278203733333329
-6.678256000000001,-1.204798866666673,1.5367168666666624
-6.5825105000000015,-1.0771381000000062,1.7952299999999959
-6.582510500000002,-1.0771381000000062,1.7952299999999959
-6.582510500000002,-1.0771381000000062,1.7952299999999959
-7.3069856666666695,-1.4441628666666728,2.519705099999996
-8.031460833333336,-1.8111876333333397,3.2441801999999957
-8.755936000000004,-2.1782124000000063,3.968655299999996
-8.755936000000004,-2.1782124000000067,3.968655299999996
-11.350641333333336,-1.9771466666666733,4.022911199999997
-13.945346666666667,-1.7760809333333398,4.077167099999998
-16.540052,-1.5750152000000064,4.131422999999999
-17.152824,-2.0633178000000063,3.6526949333333314
-17.765596,-2.5516204000000067,3.1739668666666643
-18.378367999999995,-3.0399230000000066,2.695238799999997
-18.378367999999995,-3.0399230000000066,2.695238799999997
-18.378367999999995,-3.0399230000000066,2.695238799999997
-15.324083333333329,-3.22183963333334,2.264383566666664
-12.269798666666665,-3.4037562666666736,1.83352833333333
-9.215513999999997,-3.585672900000007,1.4026730999999966
-9.215513999999999,-3.585672900000007,1.4026730999999966
-8.277207266666665,-3.1037533666666737,1.3771409333333302
-7.33890053333333,-2.62183383333334,1.3516087666666639
-6.400593799999996,-2.1399143000000063,1.3260765999999973
-6.400593799999996,-2.139914300000006,1.326076599999997
-5.676118733333329,-1.8558690000000058,1.3803324666666636
-4.951643666666662,-1.5718237000000057,1.4345883333333302
-4.227168599999995,-1.2877784000000057,1.4888441999999966
-4.227168599999995,-1.2877784000000054,1.4888441999999966
-4.600576399999995,-1.3356512000000051,1.0867126466666635
-4.973984199999996,-1.3835240000000049,0.6845810933333301
-5.347391999999996,-1.4313968000000046,0.2824495399999967
-5.347391999999996,-1.4313968000000046,0.2824495399999967
-6.639957666666663,-1.680335333333338,0.2026615343333301
-7.93252333333333,-1.9292738666666711,0.12287352866666341
-9.225088999999997,-2.1782124000000045,0.04308552299999676
-9.225088999999995,-2.1782124000000045,0.04308552299999676
-10.348503999999995,-2.340979933333338,0.20904456199999677
-11.471918999999994,-2.5037474666666717,0.3750036009999968
-12.595333999999994,-2.6665150000000053,0.5409626399999968
-12.595333999999994,-2.6665150000000053,0.5409626399999968
-13.195339666666662,-3.540991533333338,0.8633061599999966
-13.795345333333328,-4.41546806666667,1.1856496799999965
-14.395350999999993,-5.289944600000003,1.5079931999999963
-14.395350999999991,-5.289944600000003,1.5079931999999963
-13.16661599999999,-5.015473733333337,1.6037387999999966
-11.93788099999999,-4.741002866666672,1.6994843999999967
-10.70914599999999,-4.466532000000005,1.7952299999999968
-10.70914599999999,-4.466532000000005,1.7952299999999968
-8.995299666666657,-3.770780733333339,2.251617399999997
-7.281453333333324,-3.0750294666666727,2.708004799999997
-5.567606999999989,-2.379278200000006,3.164392199999997
-5.567606999999989,-2.3792782000000066,3.164392199999997
-3.802696326666657,-1.7282081166666732,3.585672799999997
-2.0377856533333234,-1.0771380333333398,4.006953399999997
-0.27287497999999005,-0.42606795000000625,4.428233999999997
-0.27287497999999005,-0.42606795000000625,4.428233999999997
-0.5696863533333234,-0.6207506666666729,4.287807233333331
-0.8664977266666568,-0.8154333833333395,4.1473804666666645
-1.1633090999999902,-1.0101161000000063,4.006953699999998
-1.1633090999999902,-1.0101161000000063,4.006953699999998
-5.028239733333323,-1.3037359666666728,2.918645266666665
-8.893170366666658,-1.5973558333333395,1.8303368333333314
-12.75810099999999,-1.8909757000000063,0.7420283999999979
-12.758100999999991,-1.8909757000000063,0.7420283999999979
-14.708119999999994,-2.66013213333334,1.0611804333333312
-16.658138999999995,-3.4292885666666737,1.3803324666666645
-18.608158,-4.1984450000000075,1.6994844999999978
-18.608158,-4.1984450000000075,1.6994844999999976
-14.740035666666666,-3.534608700000008,1.7952300999999977
-10.871913333333334,-2.8707724000000083,1.8909756999999978
-7.0037910000000005,-2.206936100000008,1.9867212999999981
-7.0037910000000005,-2.2069361000000085,1.9867212999999981
-7.287836333333335,-2.047360133333342,1.5462915333333314
-7.571881666666669,-1.8877841666666753,1.1058617666666646
-7.855927000000002,-1.7282082000000087,0.665431999999998
-7.855927000000002,-1.7282082000000087,0.6654319999999979
-11.462344666666668,-2.8037504666666755,-0.32713076666666874
-15.068762333333337,-3.8792927333333416,-1.3196935333333355
-18.675180000000005,-4.954835000000007,-2.3122563000000023
-18.675180000000008,-4.954835000000007,-2.3122563000000027
-16.070899666666676,-5.101644866666674,-1.2271394666666693
-13.466619333333341,-5.2484547333333404,-0.14202263333333587
-10.862339000000006,-5.395264600000008,0.9430941999999974
-10.862339000000006,-5.395264600000009,0.9430941999999974
-10.070842000000006,-4.294190233333343,1.3643748333333308
-9.279345000000006,-3.193115866666677,1.785655466666664
-8.487848000000007,-2.0920415000000108,2.2069360999999974
-8.487848000000007,-2.0920415000000108,2.206936099999998
-8.07933343333334,-1.6037389000000104,1.9931042999999977
-7.670818866666675,-1.1154363000000103,1.7792724999999976
-7.262304300000008,-0.6271337000000102,1.5654406999999975
-7.262304300000008,-0.6271337000000102,1.5654406999999975
-7.262304300000008,-0.6271337000000102,1.5654406999999975
-6.7261288666666745,-0.8824553333333437,1.9005502999999975
-6.189953433333341,-1.137776966666677,2.2356598999999977
-5.653778000000007,-1.3930986000000105,2.5707694999999973
-4.852706466666675,-2.0122535333333436,2.4271510999999975
-4.051634933333342,-2.631408466666677,2.2835326999999976
-3.250563400000009,-3.2505634000000097,2.139914299999998
-3.250563400000009,-3.250563400000009,2.139914299999998
-4.434617366666675,-3.4229054666666756,2.155871866666664
-5.618671333333341,-3.5952475333333425,2.1718294333333303
-6.802725300000007,-3.7675896000000093,2.187786999999997
-6.802725300000007,-3.7675896000000093,2.1877869999999966
-6.802725300000007,-3.7675896000000093,2.1877869999999966
-9.978287533333342,-3.758015033333342,1.5271423466666632
-13.153849766666674,-3.7484404666666755,0.8664976933333298
-16.32941200000001,-3.738865900000009,0.2058530399999965
-17.42091200000001,-3.9399316000000084,-0.3622375400000035
-18.51241200000001,-4.140997300000008,-0.9303281200000035
-19.60391200000001,-4.3420630000000076,-1.4984187000000035
-19.60391200000001,-4.3420630000000076,-1.4984187000000035
-17.274102666666675,-3.416522233333341,-1.0133076410000035
-14.944293333333341,-2.4909814666666747,-0.5281965820000034
-12.614484000000006,-1.5654407000000081,-0.04308552300000342
-12.614484000000006,-1.5654407000000081,-0.04308552300000342
-12.614484000000006,-1.5654407000000081,-0.04308552300000342
-10.849573100000008,-1.9835298000000083,-0.01436184100000342
-9.08466220000001,-2.4016189000000083,0.014361840999996581
-7.31975130000001,-2.8197080000000088,0.04308552299999658
-6.375061366666675,-2.880346866666675,-0.27606649800000344
-5.430371433333342,-2.9409857333333416,-0.5952185190000033
-4.485681500000008,-3.001624600000008,-0.9143705400000033
-4.485681500000007,-3.001624600000008,-0.9143705400000032
-4.868664000000007,-2.9920500666666747,-0.9526687933333365
-5.251646500000006,-2.9824755333333415,-0.99096704666667
-5.6346290000000065,-2.9729010000000087,-1.0292653000000034
-5.6346290000000065,-2.9729010000000087,-1.0292653000000036
-5.6346290000000065,-2.9729010000000087,-1.0292653000000036
-7.4186886666666725,-2.7239624000000084,-0.9750094333333369
-9.202748333333338,-2.475023800000008,-0.9207535666666703
-10.986808000000005,-2.2260852000000084,-0.8664977000000036
-10.986808000000005,-2.2260852000000084,-0.8664977000000036
-11.015531666666675,-1.8239536666666745,-0.5218135300000036
-11.044255333333345,-1.4218221333333407,-0.17712936000000365
-11.072979000000013,-1.0196906000000072,0.1675548099999963
-10.364461666666681,-1.5845897333333407,1.2047988399999963
-9.655944333333348,-2.149488866666674,2.2420428699999957
-8.947427000000015,-2.714388000000007,3.279286899999996
-8.947427000000014,-2.714388000000007,3.2792868999999967
-8.947427000000014,-2.714388000000007,3.2792868999999967
-9.103811333333345,-3.4356715666666737,2.39842735333333
-9.260195666666675,-4.156955133333341,1.5175678066666636
-9.416580000000005,-4.878238700000008,0.6367082599999968
-9.416580000000005,-4.878238700000008,0.6367082599999968
-9.062321333333339,-4.153763533333341,0.7643690399999968
-8.708062666666672,-3.429288366666674,0.8920298199999968
-8.353804000000006,-2.7048132000000074,1.0196905999999968
-8.200611000000006,-2.1973615333333405,1.6739522333333303
-8.047418000000006,-1.6899098666666736,2.328213866666664
-7.894225000000007,-1.182458200000007,2.9824754999999974
-7.894225000000007,-1.182458200000007,2.9824754999999974
-7.894225000000007,-1.182458200000007,2.9824754999999974
-8.095290666666672,-1.354800300000007,3.1388599999999975
-8.29635633333334,-1.527142400000007,3.2952444999999977
-8.497422000000007,-1.6994845000000067,3.4516289999999983
-8.497422000000007,-1.6994845000000065,3.4516289999999983
-8.644232000000008,-1.7728894333333394,3.1675837666666644
-8.79104200000001,-1.8462943666666725,2.8835385333333305
-8.937852000000012,-1.9196993000000055,2.5994932999999967
-8.937852000000012,-1.9196993000000055,2.5994932999999962
-9.521900333333345,-2.1526803000000054,2.2484260333333297
-10.105948666666679,-2.3856613000000055,1.897358766666663
-10.68999700000001,-2.618642300000005,1.5462914999999962
-10.68999700000001,-2.618642300000005,1.546291499999996
-10.951701666666677,-2.7303454666666727,1.6133133999999956
-11.213406333333344,-2.8420486333333397,1.6803352999999952
-11.47511100000001,-2.9537518000000067,1.747357199999995
-11.605963333333344,-3.08141263333334,1.4154391333333285
-11.73681566666668,-3.2090734666666734,1.083521066666662
-11.867668000000014,-3.336734300000007,0.7516029999999955
-11.867668000000014,-3.336734300000007,0.7516029999999955
-11.280428000000013,-3.084604200000007,0.39415274666666217
-10.693188000000012,-2.8324741000000073,0.03670249333332887
-10.10594800000001,-2.5803440000000073,-0.32074776000000443
-10.10594800000001,-2.5803440000000073,-0.32074776000000443
-9.068704133333343,-2.1048075333333407,-0.0845752733333378
-8.031460266666677,-1.6292710666666739,0.15159721333332887
-6.994216400000011,-1.153734600000007,0.38776969999999555
-6.994216400000011,-1.153734600000007,0.38776969999999555
-6.994216400000011,-1.153734600000007,0.38776969999999555
-7.141026266666678,-1.345225800000007,0.4962813866666622
-7.287836133333346,-1.5367170000000072,0.6047930733333289
-7.434646000000012,-1.7282082000000072,0.7133047599999957
-7.2974106666666785,-1.7633149000000072,0.37181210666666226
-7.160175333333345,-1.7984216000000073,0.030319453333328934
-7.02294000000001,-1.8335283000000073,-0.3111732000000044
-7.02294000000001,-1.8335283000000073,-0.3111732000000044
-6.62400000000001,-1.699484466666674,-0.2696834466666711
-6.225060000000011,-1.5654406333333404,-0.2281936933333378
-5.826120000000011,-1.431396800000007,-0.18670394000000448
-5.826120000000011,-1.431396800000007,-0.18670394000000448
-5.762289666666678,-1.539908500000007,-0.18351241666667117
-5.6984593333333455,-1.6484202000000068,-0.1803208933333378
-5.634629000000012,-1.7569319000000068,-0.17712937000000448
-5.634629000000012,-1.7569319000000068,-0.17712937000000442
-6.809108333333345,-2.3250224666666734,0.26968345333332894
-7.983587666666678,-2.8931130333333397,0.7164962766666623
-9.158067000000012,-3.4612036000000064,1.1633090999999955
-9.15806700000001,-3.461203600000006,1.1633090999999955
-11.018723333333341,-3.745248966666672,1.4473543999999956
-12.879379666666672,-4.029294333333339,1.7313996999999957
-14.740036000000003,-4.313339700000005,2.0154449999999957
-14.740036000000003,-4.313339700000005,2.015444999999996
-13.342150000000006,-3.6558864666666717,3.0303484666666627
-11.944264000000006,-2.9984332333333383,4.045251933333329
-10.546378000000006,-2.340980000000005,5.060155399999996
-10.546378000000006,-2.340980000000005,5.060155399999996
-9.381473333333338,-1.9803382333333381,4.686747466666663
-8.21656866666667,-1.6196964666666716,4.31333953333333
-7.051664000000003,-1.2590547000000047,3.9399315999999978
-7.051664000000003,-1.2590547000000047,3.9399315999999978
-6.375061666666671,-1.4122477000000047,3.588864399999998
-5.698459333333338,-1.5654407000000046,3.237797199999998
-5.021857000000005,-1.7186337000000045,2.8867299999999982
-5.021857000000005,-1.7186337000000045,2.8867299999999982
-5.513351100000005,-1.9516146666666714,3.0558805666666653
-6.0048452000000045,-2.184595633333338,3.225031133333332
-6.496339300000003,-2.417576600000005,3.394181699999999
-6.496339300000003,-2.417576600000005,3.394181699999999
-7.29741086666667,-3.0271568666666724,3.3846071333333323
-8.098482433333336,-3.6367371333333396,3.375032566666665
-8.899554000000004,-4.246317400000007,3.3654579999999985
-11.963413000000003,-4.377169766666673,2.960134999999999
-15.027272000000004,-4.508022133333339,2.5548119999999983
-18.091131,-4.6388745000000045,2.1494889999999978
-18.091131,-4.6388745000000045,2.1494889999999978
-18.091131,-4.6388745000000045,2.1494889999999978
-17.37623066666666,-3.1292854813333384,1.9675722999999978
-16.66133033333333,-1.6196964626666717,1.7856555999999977
-15.946429999999998,-0.11010744400000494,1.6037388999999977
-15.946429999999998,-0.11010744400000494,1.6037388999999977
-13.686833999999998,-0.33670538266667166,1.9165078666666642
-11.427237999999997,-0.5633033213333384,2.2292768333333313
-9.167641999999999,-0.789901260000005,2.542045799999998
-7.916565999999999,-1.3548003066666718,1.8335283333333312
-6.665489999999998,-1.9196993533333389,1.1250108666666647
-5.414413999999998,-2.4845984000000056,0.416493399999998
-5.414413999999998,-2.484598400000006,0.416493399999998
-5.414413999999998,-2.484598400000006,0.416493399999998
-5.0633467666666645,-2.4048104333333398,0.1771293766666647
-4.71227953333333,-2.3250224666666734,-0.06223464666666865
-4.361212299999996,-2.245234500000007,-0.301598670000002
-4.361212299999996,-2.245234500000007,-0.301598670000002
-5.283561533333328,-2.1686380000000067,-0.429259480000002
-6.205910766666662,-2.0920415000000063,-0.556920290000002
-7.128259999999995,-2.0154450000000064,-0.6845811000000018
-7.750606333333329,-1.7345912000000066,-0.3526630000000019
-8.372952666666661,-1.4537374000000067,-0.02074490000000188
-8.995298999999997,-1.172883600000007,0.3111731999999981
-8.995298999999997,-1.172883600000007,0.3111731999999981
-8.995298999999997,-1.172883600000007,0.3111731999999981
-10.377227666666665,-1.8431028333333401,0.48670681333333143
-11.759156333333332,-2.513322066666673,0.6622404266666647
-13.141084999999999,-3.1835413000000066,0.8377740399999981
-11.83256133333333,-4.0963160333333395,1.7505488266666644
-10.524037666666663,-5.009090766666673,2.6633236133333313
-9.215513999999997,-5.921865500000007,3.576098399999998
-9.215513999999999,-5.921865500000007,3.576098399999998
-8.328271599999999,-4.843131733333341,3.1101363999999982
-7.441029199999998,-3.764397966666676,2.6441743999999985
-6.5537867999999975,-2.6856642000000086,2.1782123999999983
-6.5537867999999975,-2.6856642000000086,2.1782123999999983
-6.697405199999998,-2.1239566666666754,1.8462943333333317
-6.841023599999997,-1.5622491333333421,1.514376266666665
-6.984641999999997,-1.0005416000000087,1.1824581999999981
-6.984641999999997,-1.000541600000009,1.1824581999999981
-6.984641999999997,-1.000541600000009,1.1824581999999981
-7.485710666666663,-0.9941585466666756,1.6867183999999982
-7.98677933333333,-0.9877754933333422,2.190978599999998
-8.487847999999998,-0.9813924400000089,2.695238799999998
-10.29424833333333,-1.8750180933333425,3.167583766666665
-12.100648666666665,-2.7686437466666756,3.6399287333333317
-13.907048999999999,-3.6622694000000084,4.1122736999999985
-13.907048999999999,-3.6622694000000084,4.112273699999999
-13.942155666666665,-4.099507666666676,3.6143965666666653
-13.97726233333333,-4.536745933333343,3.1165194333333317
-14.012368999999998,-4.97398420000001,2.618642299999998
-14.012368999999998,-4.97398420000001,2.618642299999998
-14.012368999999998,-4.97398420000001,2.618642299999998
-13.31342633333333,-4.09312460000001,2.3569376333333314
-12.614483666666663,-3.2122650000000097,2.0952329666666647
-11.915540999999996,-2.3314054000000097,1.8335282999999982
-11.088936999999994,-1.9452314666666766,2.1111905333333314
-10.262332999999996,-1.5590575333333436,2.388852766666665
-9.435728999999997,-1.1728836000000105,2.6665149999999977
-9.435728999999998,-1.1728836000000105,2.6665149999999973
-9.435728999999998,-1.1728836000000105,2.6665149999999973
-8.315505499999999,-1.1026701666666772,2.615450666666664
-7.195282,-1.0324567333333439,2.564386333333331
-6.075058500000001,-0.9622433000000107,2.5133219999999974
-6.687830466666667,-1.0867126000000107,1.7154420033333306
-7.300602433333332,-1.2111819000000106,0.917562006666664
-7.913374399999999,-1.3356512000000107,0.11968200999999734
-7.913374399999998,-1.3356512000000107,0.11968200999999734
-9.66232743333333,-1.8111877000000112,0.06861768666666401
-11.41128046666666,-2.2867242000000116,0.017553363333330674
-13.160233499999991,-2.7622607000000126,-0.033510960000002664
-13.16023349999999,-2.7622607000000126,-0.033510960000002664
-12.352778666666657,-3.6239711333333458,0.359046026666664
-11.545323833333322,-4.485681566666679,0.7516030133333308
-10.73786899999999,-5.347392000000013,1.1441599999999976
-10.73786899999999,-5.347392000000013,1.1441599999999976
-8.762318333333322,-4.677172766666679,1.6420371333333306
-6.786767666666655,-4.006953533333346,2.139914266666664
-4.8112169999999885,-3.3367343000000127,2.637791399999997
-4.8112169999999885,-3.3367343000000127,2.6377913999999976
-4.8367489999999895,-2.91545366666668,1.964380643333331
-4.86228099999999,-2.4941730333333467,1.2909698866666646
-4.887812999999991,-2.0728924000000135,0.6175591299999978
-4.887812999999991,-2.0728924000000135,0.6175591299999978
-5.245263333333323,-1.8079962000000134,0.7611775199999977
-5.602713666666656,-1.5431000000000132,0.9047959099999977
-5.960163999999988,-1.278203800000013,1.0484142999999977
-7.125068999999989,-1.5526745333333463,1.2335224999999976
-8.289973999999988,-1.8271452666666796,1.4186306999999976
-9.45487899999999,-2.101616000000013,1.6037388999999973
-9.45487899999999,-2.101616000000013,1.6037388999999973
-11.631495666666657,-2.8931130000000125,1.9835297999999977
-13.808112333333325,-3.684610000000012,2.363320699999998
-15.984728999999993,-4.476107000000012,2.7431115999999984
-15.984728999999993,-4.476107000000012,2.7431115999999984
-14.781525666666658,-3.5186509666666788,2.3314054666666646
-13.578322333333324,-2.5611949333333457,1.919699333333331
-12.375118999999989,-1.6037389000000124,1.5079931999999971
-12.375118999999989,-1.6037389000000124,1.5079931999999971
-12.375118999999989,-1.6037389000000124,1.5079931999999971
-10.98680799999999,-1.0420313450000125,2.028211033333331
-9.59849699999999,-0.4803237900000126,2.5484288666666646
-8.210185999999991,0.08138376499998741,3.068646699999998
-7.425071866666657,-0.6016015566666792,2.5739610333333314
-6.639957733333323,-1.2845868783333458,2.0792753666666646
-5.854843599999989,-1.9675722000000126,1.584589699999998
-5.854843599999989,-1.9675722000000126,1.584589699999998
-5.315476733333323,-2.222893800000013,1.2845868333333315
-4.7761098666666575,-2.4782154000000127,0.9845839666666646
-4.236742999999991,-2.7335370000000125,0.6845810999999978
-4.236742999999991,-2.7335370000000125,0.6845810999999978
-6.0112283333333245,-2.8037504666666795,0.7228793333333313
-7.785713666666658,-2.873963933333346,0.7611775666666647
-9.560198999999992,-2.944177400000012,0.7994757999999981
-9.560198999999992,-2.9441774000000116,0.7994757999999981
-11.044255666666658,-3.3271597333333447,1.0196906666666647
-12.528312333333323,-3.7101420666666782,1.2399055333333313
-14.012368999999987,-4.093124400000011,1.460120399999998
-14.012368999999987,-4.093124400000011,1.460120399999998
-12.643206666666655,-4.080358366666677,2.028210999999998
-11.274044333333322,-4.067592333333344,2.596301599999998
-9.904881999999988,-4.054826300000012,3.164392199999998
-9.904881999999988,-4.054826300000012,3.164392199999998
-6.774000999999989,-3.3016275333333454,3.1229024666666647
-3.643119999999989,-2.5484287666666785,3.0814127333333317
-0.5122389999999886,-1.7952300000000119,3.039922999999998
-2.382469833333322,-1.5367168666666784,2.4175765333333317
-4.252700666666656,-1.278203733333345,1.7952300666666652
-6.122931499999988,-1.0196906000000114,1.1728835999999987
-6.122931499999988,-1.0196906000000114,1.172883599999999
-6.122931499999988,-1.0196906000000114,1.172883599999999
-10.415525999999987,-1.5462915000000115,0.42287636666666534
-14.708120499999987,-2.0728924000000117,-0.3271308666666681
-19.00071499999999,-2.5994933000000118,-1.0771381000000015
-16.974099666666657,-2.4877900666666783,-0.21861916666666806
-14.947484333333321,-2.376086833333345,0.6398997666666654
-12.920868999999987,-2.2643836000000115,1.4984186999999987
-12.920868999999987,-2.264383600000011,1.4984186999999987
-10.804891199999986,-2.2962987333333444,1.7952300666666652
-8.688913399999986,-2.328213866666678,2.092041433333332
-6.572935599999986,-2.3601290000000112,2.3888527999999987
-6.572935599999986,-2.3601290000000112,2.3888527999999987
-5.5899474666666515,-2.5388542000000114,1.4952271666666654
-4.606959333333318,-2.717579400000011,0.6016015333333322
-3.623971199999984,-2.896304600000011,-0.29202410000000106
-3.623971199999984,-2.896304600000011,-0.29202410000000106
-5.09845346666665,-2.7909844000000112,-0.5888354666666676
-6.572935733333317,-2.685664200000011,-0.8856468333333343
-8.047417999999984,-2.580344000000011,-1.182458200000001
-8.047417999999984,-2.580344000000011,-1.182458200000001
-10.131480666666649,-2.873963866666678,-0.2792580000000011
-12.215543333333317,-3.1675837333333448,0.6239421999999989
-14.299605999999985,-3.4612036000000117,1.527142399999999
-13.377256666666653,-3.298436066666678,2.644174499999999
-12.454907333333319,-3.1356685333333445,3.761206599999999
-11.532557999999986,-2.972901000000011,4.878238699999999
-11.532557999999986,-2.972901000000011,4.878238699999998
-11.532557999999986,-2.972901000000011,4.878238699999998
-9.301685333333317,-2.350554600000011,4.364403899999998
-7.07081266666665,-1.7282082000000105,3.8505690999999977
-4.839939999999983,-1.1058618000000104,3.3367342999999976
-3.933548399999982,-1.198415866666677,2.9888586333333307
-3.027156799999982,-1.2909699333333438,2.6409829666666638
-2.1207651999999815,-1.3835240000000102,2.293107299999997
-2.120765199999981,-1.3835240000000102,2.293107299999997
-4.0867414666666475,-1.8175707333333435,2.0537432666666633
-6.0527177333333135,-2.251617466666677,1.8143792333333302
-8.01869399999998,-2.6856642000000104,1.5750151999999968
-8.01869399999998,-2.6856642000000104,1.5750151999999968
-11.755964333333315,-3.6782269666666774,1.2590546999999968
-15.493234666666647,-4.670789733333344,0.9430941999999968
-19.23050499999998,-5.66335250000001,0.6271336999999967
-19.230504999999983,-5.663352500000009,0.6271336999999967
-16.24005066666665,-4.728237066666675,0.23457673333333004
-13.249596333333317,-3.793121633333342,-0.15798023333333658
-10.259141999999985,-2.8580062000000086,-0.5505372000000032
-10.259141999999986,-2.8580062000000086,-0.5505372000000032
-8.944235533333318,-2.5675779000000083,-0.00478726666666988
-7.62932906666665,-2.277149600000008,0.5409626666666635
-6.314422599999983,-1.9867213000000075,1.0867125999999967
-6.314422599999982,-1.9867213000000075,1.0867125999999967
-6.100590733333315,-2.704813333333341,1.0069245999999967
-5.886758866666649,-3.4229053666666744,0.9271365999999966
-5.672926999999983,-4.140997400000008,0.8473485999999966
-5.672926999999983,-4.140997400000008,0.8473485999999966
-6.834640333333316,-4.006953566666675,0.5409626666666633
-7.99635366666665,-3.872909733333342,0.23457673333332996
-9.158066999999983,-3.738865900000009,-0.07180920000000335
-9.158066999999983,-3.738865900000009,-0.07180920000000335
-12.640015333333317,-3.2697124000000084,-0.65266586666667
-16.121963666666648,-2.800558900000008,-1.2335225333333366
-19.603911999999983,-2.331405400000008,-1.8143792000000036
-19.603911999999983,-2.331405400000008,-1.8143792000000036
-17.248570333333316,-2.3665121333333414,-0.2250022000000035
-14.893228666666651,-2.4016188666666753,1.3643747999999967
-12.537886999999984,-2.4367256000000093,2.953751799999997
-12.537886999999984,-2.4367256000000093,2.953751799999997
-10.581484999999985,-2.369703666666676,2.49098143333333
-8.625082999999984,-2.3026817333333427,2.0282110666666635
-6.668680999999985,-2.235659800000009,1.565440699999997
-5.886758666666652,-2.4080018666666754,0.8728807999999969
-5.10483633333332,-2.580343933333342,0.18032089999999693
-4.322913999999987,-2.752686000000009,-0.5122390000000031
-4.322913999999987,-2.752686000000009,-0.5122390000000031
-4.322913999999987,-2.752686000000009,-0.5122390000000031
-4.290998866666652,-2.519705033333342,-0.3367053863333364
-4.259083733333319,-2.2867240666666753,-0.1611717726666697
-4.227168599999985,-2.0537431000000086,0.014361840999996952
-6.046335066666653,-2.433534066666675,0.17074632733333026
-7.86550153333332,-2.8133250333333417,0.3271308136666636
-9.684667999999988,-3.1931160000000083,0.48351529999999693
-9.684667999999988,-3.1931160000000083,0.4835152999999968
-11.631494999999987,-3.148434666666675,0.43883401666666355
-13.578321999999986,-3.103753333333342,0.3941527333333303
-15.525148999999985,-3.059072000000009,0.34947144999999696
-15.525148999999985,-3.059072000000009,0.34947144999999696
-15.19961433333332,-2.940985733333342,0.34627993333333035
-14.874079666666654,-2.822899466666675,0.3430884166666637
-14.54854499999999,-2.7048132000000087,0.339896899999997
-14.54854499999999,-2.7048132000000087,0.339896899999997
-12.908103333333324,-2.688855633333342,-0.10691593333333632
-11.26766166666666,-2.6728980666666757,-0.5537287666666697
-9.627219999999992,-2.6569405000000095,-1.000541600000003
-9.627219999999992,-2.6569405000000095,-1.000541600000003
-9.119768333333324,-2.4143850000000096,-0.5218135666666696
-8.612316666666656,-2.1718295000000096,-0.04308553333333628
-8.104864999999988,-1.92927400000001,0.43564249999999705
-8.104864999999986,-1.9292740000000101,0.43564249999999705
-8.455932333333319,-1.769697966666677,0.7643690666666636
-8.806999666666652,-1.6101219333333436,1.0930956333333304
-9.158066999999985,-1.4505459000000105,1.421822199999997
-9.387856333333318,-1.1888412666666772,1.0962871566666637
-9.617645666666652,-0.927136633333344,0.7707521133333302
-9.847434999999985,-0.6654320000000107,0.44521706999999683
-9.847434999999987,-0.6654320000000107,0.44521706999999683
-9.847434999999987,-0.6654320000000107,0.44521706999999683
-9.962329999999985,-0.927136633333344,0.41968490333333014
-10.077224999999986,-1.1888412666666772,0.3941527366666635
-10.192119999999985,-1.4505459000000105,0.36862056999999687
-10.192119999999985,-1.4505459000000105,0.36862056999999687
-10.105948666666652,-1.8877841666666775,0.2728749683333302
-10.01977733333332,-2.3250224333333445,0.17712936666666348
-9.933605999999987,-2.7622607000000112,0.08138376499999683
-9.933605999999989,-2.7622607000000112,0.08138376499999683
-9.26338699999999,-2.8771554000000106,0.3941527099999968
-8.593167999999991,-2.9920501000000104,0.7069216549999968
-7.922948999999993,-3.1069448000000097,1.0196905999999968
-7.922948999999993,-3.1069448000000097,1.0196905999999968
-7.233580533333327,-3.0271568666666764,1.75054873333333
-6.54421206666666,-2.9473689333333435,2.481406866666663
-5.854843599999993,-2.86758100000001,3.2122649999999964
-5.854843599999993,-2.86758100000001,3.2122649999999964
-6.72612856666666,-2.708004933333344,3.084604166666663
-7.597413533333327,-2.5484288666666775,2.9569433333333293
-8.468698499999993,-2.388852800000011,2.8292824999999957
-8.468698499999993,-2.388852800000011,2.8292824999999957
-8.535720499999991,-2.264383533333344,3.1516260999999957
-8.60274249999999,-2.1399142666666773,3.4739696999999956
-8.66976449999999,-2.0154450000000104,3.7963132999999956
-8.682530666666658,-2.1367227333333436,3.4963103999999956
-8.695296833333325,-2.2580004666666773,3.196307499999996
-8.708062999999994,-2.3792782000000106,2.8963045999999966
-8.708062999999994,-2.3792782000000106,2.8963045999999966
-8.277207766666658,-2.2101276333333435,2.9792841333333295
-7.846352533333324,-2.040977066666677,3.0622636666666625
-7.415497299999989,-1.8718265000000098,3.1452431999999955
-7.415497299999989,-1.8718265000000098,3.1452431999999955
-7.086770699999991,-1.8143791666666766,3.2537548666666622
-6.758044099999992,-1.7569318333333432,3.362266533333329
-6.429317499999994,-1.6994845000000096,3.470778199999996
-6.429317499999994,-1.6994845000000094,3.470778199999996
-6.429317499999994,-1.6994845000000094,3.470778199999996
-6.244209333333326,-1.935657000000009,3.2760954666666624
-6.059101166666657,-2.1718295000000087,3.081412733333329
-5.873992999999989,-2.4080020000000086,2.886729999999996
-6.614425666666655,-2.261192066666675,2.921836733333329
-7.354858333333321,-2.1143821333333417,2.956943466666662
-8.095290999999987,-1.9675722000000082,2.9920501999999956
-8.095290999999985,-1.9675722000000082,2.9920501999999956
-9.161258666666651,-1.9579976333333413,2.9984331999999956
-10.227226333333316,-1.9484230666666746,3.0048161999999956
-11.29319399999998,-1.9388485000000077,3.011199199999996
-11.29319399999998,-1.9388485000000077,3.011199199999996
-11.29319399999998,-1.9388485000000077,3.011199199999996
-12.978316666666649,-1.9771467000000078,2.6760895666666626
-14.663439333333315,-2.015444900000008,2.340979933333329
-16.348561999999983,-2.053743100000008,2.0058702999999958
-16.42196699999998,-2.130339600000008,1.6867182999999955
-16.49537199999998,-2.2069361000000076,1.3675662999999953
-16.56877699999998,-2.2835326000000076,1.0484142999999952
-16.56877699999998,-2.283532600000007,1.048414299999995
-16.56877699999998,-2.283532600000007,1.048414299999995
-14.277265499999979,-2.3888528333333405,0.9239450333333284
-11.98575399999998,-2.4941730666666735,0.7994757666666619
-9.694242499999984,-2.599493300000007,0.6750064999999953
-9.694242499999982,-2.599493300000007,0.6750064999999953
-8.127205999999982,-2.4877900666666735,0.7420284333333287
-6.560169499999982,-2.37608683333334,0.8090503666666621
-4.993132999999982,-2.2643836000000066,0.8760722999999956
-4.073975266666648,-1.9292739666666734,0.7962842866666621
-3.154817533333315,-1.59416433333334,0.7164962733333288
-2.2356597999999814,-1.2590547000000067,0.6367082599999955
-2.2356597999999814,-1.2590547000000065,0.6367082599999956
-2.2356597999999814,-1.2590547000000065,0.6367082599999956
-2.4271510333333146,-1.3835239666666732,0.6016015399999955
-2.6186422666666473,-1.50799323333334,0.5664948199999954
-2.81013349999998,-1.6324625000000064,0.5313880999999954
-2.81013349999998,-1.6324625000000064,0.5313880999999953
-4.1154651999999805,-2.216510666666673,0.5792608999999952
-5.4207968999999805,-2.8005588333333393,0.6271336999999951
-6.7261285999999805,-3.384607000000006,0.6750064999999951
-6.7261285999999805,-3.384607000000006,0.6750064999999951
-8.724020399999981,-3.349500300000006,0.8760722666666618
-10.721912199999982,-3.314393600000006,1.0771380333333285
-12.719803999999982,-3.279286900000006,1.2782037999999953
-12.719803999999982,-3.279286900000006,1.2782037999999953
-13.367682666666648,-3.33035123333334,2.1111905333333287
-14.015561333333315,-3.3814155666666736,2.944177266666662
-14.66343999999998,-3.4324799000000077,3.7771639999999955
-14.66343999999998,-3.4324799000000077,3.7771639999999955
-13.549599333333312,-3.518650933333341,4.1729126666666625
-12.435758666666645,-3.6048219666666745,4.56866133333333
-11.32191799999998,-3.6909930000000077,4.964409999999997
-11.321917999999982,-3.6909930000000077,4.964409999999997
-9.92084056666665,-3.2792869000000078,3.94631493333333
-8.519763133333317,-2.867580800000008,2.9282198666666637
-7.118685699999985,-2.455874700000008,1.9101247999999968
-7.118685699999985,-2.455874700000008,1.9101247999999968
-6.863364033333318,-2.376086733333341,1.7792724999999967
-6.608042366666651,-2.296298766666674,1.6484201999999966
-6.352720699999984,-2.216510800000007,1.5175678999999962
-6.352720699999984,-2.216510800000007,1.5175678999999962
-6.435700233333317,-2.3665122000000074,1.9931043999999964
-6.518679766666651,-2.5165136000000072,2.468640899999997
-6.601659299999985,-2.6665150000000075,2.9441773999999974
-6.601659299999985,-2.6665150000000075,2.9441773999999974
-7.3708155333333165,-3.065455033333341,3.266520933333331
-8.139971766666648,-3.464395066666674,3.588864466666665
-8.90912799999998,-3.8633351000000076,3.9112079999999985
-8.90912799999998,-3.8633351000000076,3.9112079999999985
-10.894253666666648,-3.955889200000007,3.5633323333333315
-12.879379333333317,-4.048443300000007,3.2154566666666646
-14.864504999999985,-4.140997400000007,2.8675809999999977
-14.864504999999985,-4.140997400000007,2.8675809999999977
-15.78685466666665,-3.3846071000000073,2.455874833333331
-16.709204333333314,-2.6282168000000077,2.0441686666666645
-17.631553999999984,-1.871826500000008,1.632462499999998
-17.631553999999984,-1.871826500000008,1.632462499999998
-15.56663999999998,-1.5909727666666749,1.6196964666666647
-13.501725999999978,-1.3101190333333415,1.6069304333333312
-11.436811999999977,-1.0292653000000078,1.5941643999999977
-11.436811999999975,-1.0292653000000078,1.5941643999999975
-10.182544766666641,-1.3165021000000077,1.7090590999999975
-8.92827753333331,-1.6037389000000075,1.8239537999999975
-7.674010299999977,-1.8909757000000074,1.9388484999999978
-7.674010299999977,-1.8909757000000074,1.9388484999999978
-6.58251033333331,-1.8207622666666738,1.6069303999999978
-5.491010366666644,-1.7505488333333403,1.2750122999999978
-4.399510399999978,-1.6803354000000068,0.9430941999999979
-4.399510399999978,-1.6803354000000068,0.9430941999999979
-4.881429933333312,-1.5750152333333405,0.12606506666666464
-5.363349466666644,-1.469695066666674,-0.6909640666666687
-5.845268999999977,-1.3643749000000076,-1.507993200000002
-5.845268999999976,-1.3643749000000078,-1.507993200000002
-6.876129999999978,-1.3005444666666748,-1.2399055233333354
-7.906990999999979,-1.2367140333333413,-0.9718178466666689
-8.937851999999978,-1.172883600000008,-0.7037301700000024
-8.93785199999998,-1.172883600000008,-0.7037301700000024
-10.105948666666645,-2.293107266666675,-0.37181208000000243
-11.27404533333331,-3.4133309333333415,-0.03989399000000241
-12.442141999999976,-4.533554600000008,0.2920240999999976
-12.442141999999976,-4.5335546000000075,0.2920240999999976
-11.54532466666664,-4.938877600000008,0.9079874999999977
-10.648507333333304,-5.344200600000008,1.5239508999999976
-9.751689999999972,-5.749523600000008,2.139914299999998
-9.751689999999972,-5.749523600000008,2.139914299999998
-9.324026166666638,-4.747386266666674,2.197361633333331
-8.896362333333304,-3.745248933333341,2.2548089666666646
-8.46869849999997,-2.7431116000000078,2.3122562999999983
-8.468698499999968,-2.7431116000000078,2.3122562999999983
-8.127205833333301,-2.2867242000000076,1.753740286666665
-7.785713166666635,-1.8303368000000078,1.1952242733333314
-7.444220499999967,-1.3739494000000079,0.6367082599999981
-7.444220499999967,-1.3739494000000079,0.6367082599999982
-7.527199999999968,-1.0420313133333412,1.4250137066666648
-7.610179499999968,-0.7101132266666745,2.2133191533333316
-7.6931589999999686,-0.3781951400000078,3.001624599999998
-7.6931589999999686,-0.37819514000000787,3.001624599999998
-8.289973666666635,-0.6462828266666746,3.745248733333332
-8.886788333333302,-0.9143705133333414,4.488872866666665
-9.483602999999968,-1.1824582000000081,5.2324969999999995
-9.483602999999968,-1.1824582000000081,5.232497
-12.2059693333333,-1.8750180666666747,5.0378143333333325
-14.928335666666632,-2.5675779333333417,4.8431316666666655
-17.650701999999963,-3.2601378000000083,4.648448999999998
-17.650701999999963,-3.2601378000000083,4.648448999999997
-16.3868603333333,-3.0558805333333416,3.4995017666666635
-15.123018666666633,-2.8516232666666745,2.3505545333333306
-13.859176999999969,-2.647366000000008,1.2016072999999976
-13.859176999999969,-2.6473660000000083,1.2016072999999976
-11.676176999999969,-1.935657000000008,1.495227133333331
-9.49317699999997,-1.223948000000008,1.7888469666666642
-7.31017699999997,-0.5122390000000081,2.0824667999999975
-7.31017699999997,-0.5122390000000081,2.082466799999997
-6.64634079999997,-0.888838400000008,1.7218250666666635
-5.98250459999997,-1.265437800000008,1.36118333333333
-5.318668399999971,-1.6420372000000079,1.0005415999999967
-5.318668399999971,-1.6420372000000079,1.0005415999999965
-5.612288166666637,-2.107999133333341,0.5377711666666632
-5.905907933333304,-2.573961066666674,0.07500073333332986
-6.1995276999999716,-3.0399230000000075,-0.3877697000000035
-6.1995276999999716,-3.0399230000000075,-0.3877697000000035
-7.7633727999999715,-3.090987333333341,-0.3015986533333368
-9.32721789999997,-3.1420516666666742,-0.21542760666667013
-10.891062999999972,-3.1931160000000074,-0.12925656000000343
-10.891062999999972,-3.1931160000000074,-0.12925656000000343
-11.58681399999997,-3.0080078000000072,0.3462799266666632
-12.28256499999997,-2.822899600000007,0.8218164133333298
-12.97831599999997,-2.637791400000007,1.2973528999999964
-12.97831599999997,-2.637791400000007,1.2973528999999964
-12.97831599999997,-2.637791400000007,1.2973528999999964
-11.893199333333301,-2.9154536666666737,1.8845925999999966
-10.808082666666635,-3.1931159333333405,2.471832299999997
-9.72296599999997,-3.4707782000000074,3.059071999999997
-8.902745433333303,-3.2218396333333406,2.7207708999999967
-8.082524866666636,-2.972901066666674,2.382469799999997
-7.262304299999969,-2.723962500000008,2.0441686999999966
-7.262304299999969,-2.7239625000000083,2.0441686999999966
-6.544212199999969,-2.1367227666666753,1.8239537999999964
-5.82612009999997,-1.549483033333342,1.6037388999999962
-5.10802799999997,-0.9622433000000088,1.383523999999996
-5.10802799999997,-0.9622433000000088,1.383523999999996
-5.10802799999997,-0.9622433000000088,1.383523999999996
-5.45271209999997,-1.1792666666666756,1.5750151999999964
-5.7973961999999695,-1.3962900333333421,1.7665063999999966
-6.142080299999969,-1.613313400000009,1.957997599999997
-7.977204199999968,-2.2835326666666758,2.2133192333333302
-9.812328099999968,-2.953751933333343,2.468640866666664
-11.647451999999967,-3.62397120000001,2.723962499999997
-11.647451999999967,-3.62397120000001,2.7239624999999976
-11.647451999999967,-3.62397120000001,2.7239624999999976
-14.088964666666635,-3.700567633333343,2.701621833333332
-16.530477333333305,-3.7771640666666766,2.679281166666666
-18.971989999999973,-3.85376050000001,2.6569404999999997
-16.530477333333305,-3.3207766666666765,2.5516203333333327
-14.088964666666635,-2.7877928333333433,2.446300166666666
-11.647451999999967,-2.25480900000001,2.3409799999999996
-11.647451999999967,-2.25480900000001,2.34098
-11.647451999999967,-2.25480900000001,2.34098
-9.761263999999967,-1.6899099200000098,2.4271511
-7.875075999999964,-1.1250108400000098,2.5133222000000006
-5.988887999999965,-0.56011176000001,2.5994933000000007
-5.988887999999965,-0.56011176000001,2.599493300000001
-5.120794333333298,-0.97181784000001,2.356937700000001
-4.252700666666631,-1.38352392000001,2.114382100000001
-3.384606999999965,-1.79523000000001,1.8718265000000012
-3.8537604999999644,-2.0154449000000105,1.460120420000001
-4.322913999999965,-2.2356598000000107,1.048414340000001
-4.792067499999965,-2.455874700000011,0.636708260000001
-4.792067499999964,-2.455874700000011,0.6367082600000009
-4.792067499999964,-2.455874700000011,0.6367082600000009
-6.748469333333297,-2.3537461333333436,0.34627993000000096
-8.70487116666663,-2.251617566666677,0.055851600000000924
-10.661272999999964,-2.14948900000001,-0.2345767299999991
-10.661272999999964,-2.1494890000000106,-0.2345767299999991
-12.403842999999961,-2.4303427333333443,-0.001595763333332408
-14.14641299999996,-2.711196466666678,0.23138520333333426
-15.888982999999959,-2.9920502000000107,0.46436617000000097
-15.888982999999959,-2.9920502000000107,0.46436617000000097
-14.899611666666624,-3.783547133333345,1.070754980000001
-13.910240333333292,-4.5750440666666785,1.6771437900000012
-12.920868999999959,-5.366541000000012,2.2835326000000014
-12.920868999999959,-5.366541000000012,2.2835326000000014
-10.584676333333293,-4.373978266666678,1.9420399666666677
-8.248483666666626,-3.381415533333344,1.6005473333333342
-5.91229099999996,-2.3888528000000107,1.259054700000001
-5.912290999999958,-2.3888528000000107,1.259054700000001
-5.152709199999959,-2.181404000000011,1.1569260666666674
-4.393127399999957,-1.9739552000000102,1.054797433333334
-3.633545599999957,-1.7665064000000104,0.9526688000000005
-3.633545599999957,-1.7665064000000104,0.9526688000000005
-3.7899301666666236,-1.728208166666677,1.1058617666666672
-3.94631473333329,-1.6899099333333438,1.2590547333333337
-4.102699299999957,-1.6516117000000106,1.4122477000000007
-4.102699299999958,-1.6516117000000106,1.4122477000000007
-5.385690399999958,-2.4973646000000103,2.066509366666667
-6.668681499999958,-3.34311750000001,2.720771033333334
-7.9516725999999585,-4.18887040000001,3.3750327000000007
-7.9516725999999585,-4.18887040000001,3.3750327000000007
-10.348504066666624,-4.160146700000009,2.889921566666667
-12.745335533333295,-4.131423000000009,2.4048104333333336
-15.142166999999963,-4.102699300000008,1.9196993000000002
-15.142166999999963,-4.102699300000008,1.9196993000000002
-16.6294153333333,-3.3239683333333425,1.3867154533333335
-18.116663666666636,-2.5452373666666768,0.8537316066666668
-19.60391199999997,-1.7665064000000106,0.32074776000000016
-19.603911999999973,-1.7665064000000106,0.32074776000000016
-17.076228333333308,-1.0196906900000107,0.82500794
-14.548544666666642,-0.27287498000001076,1.3292681199999998
-12.020860999999975,0.4739407299999892,1.8335283
-12.020860999999977,0.4739407299999892,1.8335283
-9.675093566666645,-0.24734281333334396,1.8814011
-7.3293261333333115,-0.9686263566666771,1.9292738999999999
-4.983558699999978,-1.6899099000000104,1.9771466999999996
-4.983558699999978,-1.68990990000001,1.9771466999999994
-4.1697210666666455,-1.9292739333333433,1.3484172433333328
-3.3558834333333123,-2.1686379666666764,0.7196877866666663
-2.542045799999979,-2.40800200000001,0.09095832999999957
-2.542045799999979,-2.40800200000001,0.09095832999999957
-2.6282168666666457,-2.4877900000000097,-0.33989688000000046
-2.714387933333312,-2.56757800000001,-0.7707520900000003
-2.8005589999999785,-2.64736600000001,-1.2016073000000003
-2.8005589999999785,-2.64736600000001,-1.2016073000000003
-4.195253333333312,-2.73992010000001,-1.035648256666667
-5.589947666666646,-2.8324742000000103,-0.8696892133333337
-6.98464199999998,-2.92502830000001,-0.7037301700000004
-6.98464199999998,-2.9250283000000095,-0.7037301700000004
-9.825094833333312,-3.027156866666676,-0.327130796666667
-12.665547666666646,-3.1292854333333424,0.04946857666666634
-15.506000499999978,-3.2314140000000093,0.4260679499999997
-15.506000499999978,-3.2314140000000093,0.4260679499999997
-15.515574999999979,-3.518650800000009,1.351608766666666
-15.525149499999978,-3.805887600000009,2.277149583333333
-15.534723999999978,-4.093124400000009,3.2026903999999994
-15.534723999999978,-4.093124400000009,3.2026903999999994
-13.664493333333311,-4.048443166666676,2.7718351999999995
-11.794262666666645,-4.003761933333343,2.3409799999999996
-9.924031999999977,-3.9590807000000097,1.9101247999999995
-9.924031999999977,-3.9590807000000097,1.9101247999999995
-8.832532099999977,-2.96013490000001,2.609067766666666
-7.741032199999977,-1.9611891000000103,3.308010733333333
-6.649532299999977,-0.9622433000000105,4.0069536999999995
-6.649532299999977,-0.9622433000000105,4.0069537
-6.199527866666643,-1.5750152000000102,4.140997566666666
-5.74952343333331,-2.18778710000001,4.275041433333332
-5.299518999999976,-2.80055900000001,4.409085299999997
-5.299518999999976,-2.80055900000001,4.4090852999999965
-5.238880099999975,-2.8420487666666765,4.571852699999996
-5.178241199999975,-2.8835385333333434,4.734620099999996
-5.117602299999974,-2.9250283000000104,4.897387499999996
-5.117602299999974,-2.9250283000000104,4.897387499999996
-5.439945999999973,-2.139914316666677,4.8271741999999955
-5.762289699999973,-1.3548003333333438,4.756960899999996
-6.084633399999973,-0.5696863500000106,4.686747599999996
-6.084633399999973,-0.5696863500000106,4.686747599999996
-8.45912426666664,-1.3005444666666777,4.329297266666662
-10.833615133333305,-2.0314025833333447,3.971846933333328
-13.208105999999972,-2.7622607000000117,3.6143965999999943
-13.208105999999972,-2.7622607000000117,3.6143965999999943
-15.340041333333305,-4.278232800000011,2.880346966666661
-17.471976666666638,-5.794204900000011,2.1462973333333273
-19.603911999999976,-7.31017700000001,1.412247699999994
-19.603911999999973,-7.31017700000001,1.412247699999994
-19.40922966666664,-5.621862833333343,0.7292623799999941
-19.214547333333307,-3.933548666666676,0.04627705999999413
-19.019864999999974,-2.24523450000001,-0.6367082600000059
-19.019864999999978,-2.2452345000000093,-0.6367082600000059
-16.951759666666646,-1.9356570333333423,-0.6909641066666726
-14.883654333333316,-1.6260795666666759,-0.7452199533333393
-12.815548999999985,-1.3165021000000092,-0.799475800000006
-12.815548999999985,-1.316502100000009,-0.799475800000006
-11.002765566666653,-1.495227233333342,-0.6175591533333392
-9.18998213333332,-1.6739523666666754,-0.4356425066666724
-7.377198699999986,-1.8526775000000084,-0.25372586000000574
-7.377198699999986,-1.8526775000000082,-0.2537258600000057
-7.255921033333319,-1.996295866666675,-0.7164963066666724
-7.134643366666652,-2.139914233333341,-1.1792667533333392
-7.013365699999986,-2.2835326000000076,-1.6420372000000059
-7.013365699999986,-2.283532600000007,-1.6420372000000059
-8.037843799999985,-1.6260794666666738,-2.5867271333333393
-9.062321899999985,-0.9686263333333404,-3.531417066666672
-10.086799999999984,-0.3111732000000069,-4.476107000000005
-10.086799999999986,-0.3111732000000069,-4.476107000000005
-9.783605666666654,-0.5122389800000069,-3.390990133333338
-9.48041133333332,-0.7133047600000069,-2.3058732666666715
-9.177216999999988,-0.914370540000007,-1.2207564000000046
-9.17721699999999,-0.914370540000007,-1.2207564000000048
-7.785713999999989,-1.5686321266666736,-0.4994728666666717
-6.394210999999989,-2.2228937133333404,0.2218106666666615
-5.002707999999989,-2.8771553000000067,0.9430941999999947
-5.002707999999989,-2.8771553000000067,0.9430941999999947
-4.450574999999988,-3.2984360000000064,1.632462533333328
-3.898441999999988,-3.7197167000000064,2.3218308666666614
-3.3463089999999878,-4.140997400000006,3.0111991999999943
-5.583564666666654,-3.7324828333333397,3.630354133333327
-7.82082033333332,-3.3239682666666734,4.24950906666666
-10.058075999999987,-2.915453700000007,4.868663999999993
-10.058075999999986,-2.915453700000007,4.868663999999993
-10.058075999999986,-2.915453700000007,4.868663999999993
-11.226172333333318,-2.38246983333334,5.1590923333333265
-12.394268666666653,-1.8494859666666728,5.44952066666666
-13.562364999999986,-1.3165021000000061,5.739948999999993
-12.531503999999986,-1.2909699333333393,5.84207756666666
-11.500642999999988,-1.2654377666666727,5.944206133333327
-10.469781999999988,-1.2399056000000062,6.046334699999993
-10.469781999999988,-1.2399056000000062,6.046334699999993
-10.469781999999988,-1.2399056000000062,6.046334699999993
-9.837860833333322,-1.3579918666666728,6.3144224666666595
-9.205939666666653,-1.4760781333333395,6.582510233333327
-8.574018499999987,-1.5941644000000064,6.850597999999994
-8.574018499999987,-1.5941644000000064,6.850597999999995
-9.00806533333332,-1.6260795666666727,6.378252999999996
-9.442112166666654,-1.6579947333333394,5.905907999999997
-9.876158999999987,-1.689909900000006,5.433562999999997
-10.658081666666654,-2.063317766666673,4.916536733333331
-11.44000433333332,-2.43672563333334,4.399510466666665
-12.221926999999987,-2.8101335000000063,3.882484199999998
-12.221926999999987,-2.8101335000000063,3.882484199999998
-11.53255833333332,-2.8101335000000063,3.285669966666665
-10.843189666666653,-2.8101335000000063,2.6888557333333316
-10.153820999999986,-2.8101335000000063,2.0920414999999983
-10.153820999999986,-2.8101335000000063,2.0920414999999983
-11.108085666666653,-2.832474100000006,1.7728894666666648
-12.06235033333332,-2.8548147000000057,1.4537374333333315
-13.016614999999987,-2.8771553000000054,1.1345853999999982
-13.016614999999987,-2.8771553000000054,1.1345853999999982
-12.391076999999987,-2.4782153333333388,0.8633061866666649
-11.765538999999984,-2.0792753666666726,0.5920269733333317
-11.140000999999984,-1.6803354000000057,0.3207477599999983
-11.140000999999984,-1.6803354000000057,0.3207477599999983
-10.428291999999985,-1.5207593666666723,0.33032232333333167
-9.716582999999986,-1.3611833333333392,0.339896886666665
-9.004873999999987,-1.201607300000006,0.3494714499999984
-9.004873999999987,-1.201607300000006,0.3494714499999984
-8.40486833333332,-1.5079932666666727,-0.011170333333334984
-7.804862666666655,-1.8143792333333393,-0.37181211666666836
-7.204856999999987,-2.120765200000006,-0.7324539000000018
-7.204856999999987,-2.120765200000006,-0.7324539000000018
-6.633574666666654,-2.040977200000006,-0.8696892666666685
-6.06229233333332,-1.961189200000006,-1.006924633333335
-5.491009999999986,-1.881401200000006,-1.1441600000000018
-5.491009999999986,-1.881401200000006,-1.1441600000000018
-5.717607999999987,-1.8111877333333393,-0.9782009500000018
-5.944205999999987,-1.7409742666666725,-0.8122419000000018
-6.170803999999987,-1.670760800000006,-0.6462828500000019
-6.170803999999987,-1.670760800000006,-0.6462828500000017
-6.183570199999988,-1.9452315333333392,-0.2409597833333351
-6.1963363999999865,-2.2197022666666726,0.16436328333333158
-6.209102599999986,-2.4941730000000057,0.5696863499999982
-6.2091025999999845,-2.4941730000000057,0.5696863499999982
-7.246346399999983,-2.7686437333333394,1.4345882999999986
-8.283590199999983,-3.0431144666666725,2.2994902499999985
-9.320833999999982,-3.3175852000000057,3.1643921999999987
-9.320833999999982,-3.3175852000000057,3.1643921999999987
-10.453823999999981,-3.333542800000006,3.783547133333332
-11.586813999999983,-3.349500400000006,4.402702066666665
-12.719803999999984,-3.365458000000006,5.021856999999998
-12.719803999999987,-3.365458000000006,5.021856999999997
-12.001711999999989,-3.3112021333333392,4.785684566666664
-11.28361999999999,-3.2569462666666724,4.54951213333333
-10.56552799999999,-3.2026904000000056,4.313339699999997
-10.565527999999992,-3.2026904000000056,4.313339699999997
-10.345312666666658,-2.714387833333339,4.099507799999997
-10.125097333333324,-2.2260852666666726,3.8856758999999967
-9.904881999999992,-1.7377827000000063,3.6718439999999966
-9.904881999999992,-1.7377827000000063,3.6718439999999966
-9.18679016666666,-1.9484230666666729,3.7260997999999965
-8.468698333333327,-2.159063433333339,3.7803555999999965
-7.750606499999994,-2.3697038000000057,3.8346113999999965
-7.750606499999994,-2.3697038000000057,3.8346113999999965
-7.115493999999995,-2.347363100000006,3.9526977333333293
-6.480381499999994,-2.3250224000000066,4.070784066666662
-5.845268999999994,-2.3026817000000066,4.188870399999995
-5.845268999999992,-2.3026817000000066,4.188870399999995
-6.614425666666659,-2.628216766666673,3.7133338333333286
-7.383582333333327,-2.953751833333339,3.237797266666662
-8.152738999999995,-3.2792869000000047,2.7622606999999952
-8.152738999999995,-3.2792869000000047,2.7622606999999952
-11.404897999999998,-3.758014933333339,1.935656979999995
-14.657057,-4.2367429666666725,1.1090532599999947
-17.909216,-4.715471000000007,0.2824495399999944
-17.909216,-4.715471000000007,0.2824495399999944
-16.983675,-3.6590778333333405,0.5569202933333277
-16.058134,-2.6026846666666743,0.8313910466666611
-15.132593,-1.5462915000000075,1.1058617999999945
-15.132593,-1.546291500000007,1.1058617999999945
-13.029381,-1.2622462100000071,1.6771438666666612
-10.926169000000002,-0.9782009200000069,2.248425933333328
-8.822957000000002,-0.6941556300000068,2.819707999999995
-8.822957000000002,-0.6941556300000068,2.819707999999995
-7.760181000000003,-0.9526687533333401,2.009061899999995
-6.697405000000003,-1.2111818766666733,1.1984157999999947
-5.634629000000004,-1.4696950000000066,0.38776969999999444
-5.634629000000004,-1.4696950000000066,0.38776969999999444
-5.305902333333337,-1.6452286000000065,0.08138376666666114
-4.97717566666667,-1.8207622000000068,-0.22500216666667217
-4.648449000000003,-1.9962958000000068,-0.5313881000000055
-4.648449000000003,-1.9962958000000068,-0.5313881000000054
-5.366541100000003,-2.0792753666666735,-0.32713081166667207
-6.0846332000000025,-2.1622549333333403,-0.12287352333333874
-6.802725300000002,-2.245234500000007,0.08138376499999456
-8.229334866666669,-2.1750210000000068,0.26968345999999455
-9.655944433333337,-2.104807500000007,0.4579831549999945
-11.082554000000004,-2.034594000000007,0.6462828499999945
-11.082554000000004,-2.034594000000007,0.6462828499999945
-11.899583000000002,-2.4845983333333397,0.7803266666666612
-12.716612000000003,-2.9346026666666734,0.9143704833333278
-13.533641000000003,-3.3846070000000066,1.0484142999999944
-13.533641000000003,-3.3846070000000075,1.0484142999999941
-11.883625000000004,-3.9558891666666747,1.6771437666666609
-10.233609000000005,-4.527171333333342,2.3058732333333274
-8.583593000000004,-5.0984535000000095,2.9346026999999943
-8.583593000000002,-5.0984535000000095,2.9346026999999943
-8.625083000000004,-4.622917000000009,2.242042853333328
-8.666573000000005,-4.147380500000009,1.5494830066666614
-8.708063000000005,-3.6718440000000085,0.8569231599999947
-8.708063000000005,-3.6718440000000085,0.8569231599999947
-7.929332000000005,-2.7846013666666747,0.8664977066666614
-7.150601000000004,-1.8973587333333413,0.8760722533333279
-6.371870000000004,-1.010116100000008,0.8856467999999946
-6.371870000000004,-1.010116100000008,0.8856467999999946
-6.039952000000004,-0.6590488923333414,1.6643777666666615
-5.708034000000005,-0.3079816846666747,2.4431087333333283
-5.376116000000006,0.04308552299999202,3.221839699999995
-5.376116000000006,0.04308552299999202,3.221839699999995
-6.876130333333339,-0.7643690513333413,3.3271597999999947
-8.37614466666667,-1.5718236256666749,3.432479899999995
-9.876159000000003,-2.3792782000000083,3.537799999999995
-9.876159000000003,-2.3792782000000083,3.537799999999995
-12.943210000000002,-3.355883466666675,2.9697094333333283
-16.010261000000003,-4.332488733333341,2.4016188666666616
-19.077312000000003,-5.309094000000008,1.833528299999995
-19.077312,-5.309094000000008,1.833528299999995
-16.948567999999998,-4.514405433333342,1.8431028666666613
-14.819823999999997,-3.7197168666666744,1.852677433333328
-12.691079999999998,-2.9250283000000077,1.8622519999999945
-12.691079999999998,-2.925028300000007,1.8622519999999945
-11.350641499999996,-2.35055463333334,1.9228908999999945
-10.010202999999997,-1.7760809666666733,1.9835297999999948
-8.669764499999998,-1.2016073000000065,2.044168699999995
-7.453795333333329,-1.3196935666666734,1.890975699999995
-6.237826166666662,-1.43777983333334,1.737782699999995
-5.021856999999995,-1.5558661000000067,1.584589699999995
-5.0218569999999945,-1.5558661000000067,1.584589699999995
-5.0218569999999945,-1.5558661000000067,1.584589699999995
-4.434617266666661,-1.47288653333334,1.4952271666666619
-3.847377533333327,-1.3899069666666735,1.405864633333329
-3.260137799999993,-1.3069274000000066,1.3165020999999955
-4.383552866666661,-1.4633119333333402,1.1026702333333287
-5.5069679333333275,-1.6196964666666736,0.8888383666666622
-6.630382999999994,-1.776081000000007,0.6750064999999955
-6.630382999999992,-1.7760810000000073,0.6750064999999955
-9.145300999999991,-1.6548032333333407,0.03989396666666226
-11.66021899999999,-1.5335254666666742,-0.595218566666671
-14.17513699999999,-1.4122477000000078,-1.2303311000000041
-14.17513699999999,-1.4122477000000078,-1.2303311000000041
-13.961304999999989,-2.4845984666666747,-0.7739436933333375
-13.747472999999987,-3.556949233333341,-0.31755628666667085
-13.533640999999987,-4.629300000000007,0.13883111999999576
-13.533640999999983,-4.629300000000007,0.13883111999999576
-12.02724366666665,-4.96121813333334,0.7739436466666625
-10.520846333333315,-5.293136266666672,1.4090561733333293
-9.014448999999983,-5.625054400000006,2.044168699999996
-9.014448999999985,-5.625054400000006,2.044168699999996
-8.175079099999985,-4.756960933333339,1.3643748933333295
-7.335709199999985,-3.8888674666666723,0.6845810866666628
-6.496339299999984,-3.020774000000005,0.004787279999996101
-6.496339299999984,-3.020774000000005,0.0047872799999961
-6.18357036666665,-2.6473660666666716,0.011170320666662766
-5.870801433333317,-2.2739581333333385,0.017553361333329433
-5.558032499999984,-1.9005502000000052,0.0239364019999961
-5.558032499999984,-1.9005502000000056,0.0239364019999961
-5.918674333333318,-1.3260765900000056,0.6941556013333293
-6.279316166666651,-0.7516029800000056,1.3643748006666625
-6.639957999999985,-0.17712937000000548,2.0345939999999954
-6.639957999999985,-0.17712937000000548,2.0345939999999954
-7.6133716666666515,-0.8984129133333388,2.899495999999995
-8.586785333333317,-1.619696456666672,3.7643979999999946
-9.560198999999985,-2.3409800000000054,4.629299999999994
-9.560198999999987,-2.3409800000000054,4.6292999999999935
-9.560198999999987,-2.3409800000000054,4.6292999999999935
-11.902774999999986,-2.759069166666672,4.16014656666666
-14.245350999999985,-3.1771583333333386,3.690993133333327
-16.587926999999983,-3.595247500000006,3.221839699999993
-16.530479666666654,-3.375032566666673,2.759069233333326
-16.473032333333318,-3.1548176333333395,2.296298766666659
-16.415584999999986,-2.9346027000000063,1.8335282999999922
-16.415584999999986,-2.9346027000000063,1.8335282999999922
-13.396406666666651,-2.593110066666673,1.7601233333333255
-10.377228333333319,-2.2516174333333394,1.6867183666666588
-7.358049999999984,-1.9101248000000057,1.613313399999992
-7.358049999999984,-1.9101248000000057,1.613313399999992
-6.541020799999984,-1.677143833333339,1.6037388333333256
-5.723991599999984,-1.4441628666666722,1.5941642666666587
-4.906962399999984,-1.2111819000000053,1.5845896999999918
-4.906962399999983,-1.2111819000000053,1.5845896999999916
-4.6835559333333165,-1.2750123000000055,1.220756416666658
-4.46014946666665,-1.3388427000000054,0.8569231333333248
-4.236742999999983,-1.4026731000000054,0.49308984999999145
-4.236742999999983,-1.4026731000000054,0.49308984999999145
-5.561223999999982,-1.664377733333339,0.26330040666665816
-6.885704999999983,-1.9260823666666724,0.033510963333324796
-8.210185999999982,-2.187787000000006,-0.19627848000000855
-8.21018599999998,-2.187787000000006,-0.19627848000000855
-10.543186999999982,-2.3186393333333393,-0.3909612066666752
-12.876187999999983,-2.4494916666666726,-0.585643933333342
-15.209188999999983,-2.580344000000006,-0.7803266600000085
-15.209188999999983,-2.580344000000006,-0.7803266600000085
-14.191093999999984,-3.189924433333339,-0.16117174000000845
-13.172998999999983,-3.799504866666672,0.4579831799999916
-12.154903999999982,-4.409085300000005,1.0771380999999918
-12.154903999999982,-4.409085300000005,1.0771380999999918
-10.019777199999984,-4.275041433333338,1.8431029666666587
-7.884650399999984,-4.140997566666672,2.609067833333326
-5.749523599999985,-4.006953700000007,3.3750326999999927
-5.644203399999984,-3.789930266666673,2.2500217999999923
-5.538883199999984,-3.57290683333334,1.1250108999999922
-5.433562999999984,-3.3558834000000064,0.0
-5.433562999999984,-3.3558834000000064,0.0
-5.433562999999984,-3.3558834000000064,0.0
-5.506967999999984,-2.5931101000000063,0.247342799999992
-5.580372999999984,-1.8303368000000066,0.494685599999992
-5.653777999999984,-1.0675635000000068,0.742028399999992
-6.3718699999999835,-1.0324567666666733,1.246288599999992
-7.089961999999983,-0.9973500333333399,1.750548799999992
-7.808053999999983,-0.9622433000000065,2.2548089999999923
-7.808053999999983,-0.9622433000000065,2.2548089999999923
-10.268716333333316,-1.76012333333334,3.298435999999992
-12.72937866666665,-2.5580033666666737,4.3420629999999925
-15.190040999999985,-3.355883400000007,5.385689999999992
-15.190040999999985,-3.355883400000007,5.385689999999992
-16.016644333333318,-2.8228995666666736,5.267603899999993
-16.84324766666665,-2.28991573333334,5.149517799999994
-17.669850999999984,-1.7569319000000068,5.031431699999994
-17.669850999999984,-1.7569319000000068,5.031431699999994
-14.912377666666648,-1.5941643666666732,3.9590808666666604
-12.154904333333313,-1.4313968333333396,2.886730033333327
-9.397430999999978,-1.2686293000000062,1.8143791999999925
-9.397430999999978,-1.2686293000000062,1.8143791999999925
-8.612316999999978,-0.8792638266666728,1.7728894333333256
-7.827202999999979,-0.4898983533333394,1.7313996666666585
-7.0420889999999785,-0.10053288000000611,1.6899098999999913
-7.0420889999999785,-0.10053288000000611,1.689909899999991
-6.234634333333311,-0.7164962533333396,1.294161416666658
-5.427179666666643,-1.3324596266666728,0.8984129333333247
-4.619724999999977,-1.9484230000000062,0.5026644499999916
-5.028239666666644,-2.079275333333339,0.1069159333333249
-5.436754333333311,-2.2101276666666725,-0.2888325833333418
-5.845268999999977,-2.340980000000006,-0.6845811000000084
-5.845268999999976,-2.340980000000006,-0.6845811000000084
-7.578264333333308,-2.2643835333333393,-1.0260737333333418
-9.311259666666642,-2.1877870666666728,-1.367566366666675
-11.044254999999973,-2.1111906000000062,-1.7090590000000085
-11.044254999999973,-2.1111906000000062,-1.7090590000000085
-11.111276999999975,-2.727153966666673,-1.0069245800000086
-11.178298999999974,-3.343117333333339,-0.3047901600000085
-11.245320999999974,-3.9590807000000052,0.3973442599999915
-11.24532099999997,-3.9590807000000052,0.3973442599999915
-11.612345833333302,-4.498447566666672,1.0484144066666583
-11.979370666666634,-5.03781443333334,1.6994845533333252
-12.346395499999966,-5.577181300000007,2.350554699999992
-12.346395499999966,-5.577181300000007,2.3505546999999924
-11.299576999999966,-4.626108366666673,1.8941672799999925
-10.252758499999965,-3.6750354333333397,1.4377798599999927
-9.205939999999964,-2.723962500000006,0.9813924399999926
-9.205939999999964,-2.723962500000006,0.9813924399999926
-9.205939999999964,-2.723962500000006,0.9813924399999926
-7.2367720666666315,-1.6931014766666728,2.1622548599999925
-5.267604133333299,-0.6622404533333395,3.3431172799999924
-3.298436199999965,0.3686205699999938,4.523979699999992
-2.219702347999965,0.06861767999999385,5.009090799999991
-1.1409684959999649,-0.23138521000000611,5.49420189999999
-0.06223464399996489,-0.5313881000000061,5.9793129999999906
-0.06223464399996489,-0.5313881000000061,5.9793129999999906
-2.248425962666631,-2.2803412000000067,4.4090850999999915
-4.4346172813332965,-4.029294300000008,2.8388571999999925
-6.620808599999964,-5.778247400000008,1.2686292999999933
-6.620808599999964,-5.778247400000008,1.2686292999999933
-6.620808599999964,-5.778247400000008,1.2686292999999933
-10.948509733333298,-4.986750300000007,0.29840713333332664
-15.276210866666633,-4.195253200000006,-0.6718150333333401
-19.60391199999997,-3.4037561000000056,-1.6420372000000067
-17.350698999999967,-2.5133220333333384,-0.45160013333334
-15.097485999999963,-1.6228879666666713,0.7388369333333267
-12.844272999999964,-0.7324539000000047,1.9292739999999933
-12.844272999999964,-0.7324539000000044,1.9292739999999935
-12.844272999999964,-0.7324539000000044,1.9292739999999935
-12.844272999999964,-0.7324539000000044,1.9292739999999935
-12.844272999999964,-0.7324539000000044,1.9292739999999935
-12.844272999999964,-0.7324539000000044,1.9292739999999935
-12.263416333333296,-1.4090561666666714,1.1377769766666603
-11.682559666666629,-2.0856584333333386,0.34627995333332695
-11.101702999999963,-2.762260700000006,-0.4452170700000064
-11.101702999999963,-2.762260700000006,-0.4452170700000064
-12.716611999999962,-2.8867299666666724,-0.45160010333333966
-14.331520999999961,-3.0111992333333384,-0.45798313666667295
-15.946429999999962,-3.135668500000005,-0.4643661700000063
-15.946429999999962,-3.135668500000005,-0.4643661700000063
-14.794291333333296,-3.4771612333333386,-0.32393928766667296
-13.64215266666663,-3.818653966666672,-0.18351240533333957
-12.490013999999965,-4.160146700000006,-0.04308552300000623
-12.490013999999965,-4.160146700000005,-0.04308552300000623
-11.54213266666663,-3.930357200000005,-0.01755336200000623
-10.594251333333295,-3.7005677000000046,0.00797879899999377
-9.64636999999996,-3.4707782000000047,0.03351095999999377
-9.64636999999996,-3.4707782000000047,0.03351095999999377
-9.64636999999996,-3.4707782000000047,0.03351095999999377
-9.64636999999996,-3.4707782000000047,0.03351095999999377
-9.64636999999996,-3.4707782000000047,0.03351095999999377
-7.833586433333292,-2.873963933333338,0.0718092033333271
-6.020802866666625,-2.2771496666666717,0.11010744666666045
-4.208019299999959,-1.6803354000000053,0.1484056899999938
-4.20801929999996,-1.6803354000000053,0.1484056899999938
-5.854843866666626,-1.8303368000000055,-0.0015957633333395598
-7.501668433333292,-1.9803382000000056,-0.15159721666667292
-9.148492999999958,-2.1303396000000054,-0.3015986700000063
-9.148492999999958,-2.1303396000000054,-0.30159867000000634
-11.507025999999959,-2.2101276666666716,-0.5441542133333397
-13.865558999999957,-2.289915733333338,-0.786709756666673
-16.224091999999956,-2.3697038000000044,-1.0292653000000063
-15.566638999999958,-2.5165137000000044,-0.4196849333333395
-14.909185999999957,-2.663323600000004,0.18989543333332717
-14.251732999999959,-2.810133500000004,0.7994757999999939
-14.251732999999959,-2.810133500000004,0.7994757999999939
-13.07406199999996,-2.899496000000004,-0.03031943333333938
-11.89639099999996,-2.988858500000004,-0.8601146666666727
-10.718719999999962,-3.078221000000004,-1.689909900000006
-10.718719999999962,-3.078221000000004,-1.689909900000006
-10.080415999999964,-2.653748900000004,-1.3356511666666726
-9.442111999999964,-2.229276800000004,-0.9813924333333394
-8.803807999999963,-1.8048047000000038,-0.6271337000000061
-8.803807999999963,-1.8048047000000038,-0.6271337000000061
-8.360186766666628,-1.8462944666666707,-0.1643632866666728
-7.916565533333294,-1.8877842333333372,0.2984071266666605
-7.47294429999996,-1.9292740000000037,0.7611775399999937
-7.472944299999959,-1.9292740000000037,0.7611775399999937
-7.610179766666626,-1.7441658000000035,0.3686205599999937
-7.747415233333292,-1.5590576000000034,-0.023936420000006287
-7.884650699999959,-1.3739494000000032,-0.4164934000000063
-7.884650699999959,-1.3739494000000032,-0.4164934000000063
-8.325080466666625,-1.5048017333333366,-0.22819370333333966
-8.76551023333329,-1.63565406666667,-0.039894006666672976
-9.205939999999956,-1.7665064000000033,0.1484056899999937
-9.205939999999956,-1.7665064000000033,0.1484056899999937
-9.783604999999957,-2.0728923333333364,0.16436328666666036
-10.361269999999957,-2.37927826666667,0.18032088333332705
-10.938934999999958,-2.6856642000000037,0.1962784799999937
-10.938934999999958,-2.6856642000000037,0.1962784799999937
-11.194256666666625,-2.7367285333333373,0.5473456866666605
-11.449578333333292,-2.7877928666666705,0.8984128933333272
-11.70489999999996,-2.8388572000000036,1.249480099999994
-11.70489999999996,-2.8388572000000036,1.249480099999994
-11.70489999999996,-2.8388572000000036,1.249480099999994
-10.415525899999958,-2.8292826333333374,2.149488833333327
-9.126151799999958,-2.8197080666666707,3.049497566666661
-7.836777699999956,-2.810133500000004,3.949506299999994
-7.7378406666666235,-2.5228966666666706,3.617588133333328
-7.63890363333329,-2.2356598333333375,3.2856699666666613
-7.539966599999957,-1.9484230000000038,2.9537517999999943
-7.539966599999957,-1.9484230000000038,2.9537517999999943
-7.568690166666624,-2.0473601666666705,2.708004799999994
-7.5974137333332905,-2.146297333333337,2.462257799999994
-7.626137299999957,-2.245234500000004,2.2165107999999942
-7.626137299999957,-2.245234500000004,2.2165107999999942
-8.18146153333329,-2.7846013666666707,2.0633178333333273
-8.736785766666623,-3.3239682333333374,1.9101248666666606
-9.292109999999955,-3.863335100000004,1.7569318999999937
-9.292109999999953,-3.863335100000004,1.7569318999999937
-8.96976666666662,-3.678226933333337,1.5622491333333273
-8.647423333333286,-3.49311876666667,1.3675663666666609
-8.325079999999952,-3.308010600000003,1.1728835999999945
-8.325079999999952,-3.308010600000003,1.1728835999999945
-8.325079999999952,-3.308010600000003,1.1728835999999945
-8.325079999999952,-3.308010600000003,1.1728835999999945
-8.325079999999952,-3.308010600000003,1.1728835999999945
-8.325079999999952,-3.308010600000003,1.1728835999999945
-7.606987999999952,-2.5580033666666697,1.894167166666661
-6.888895999999953,-1.8079961333333365,2.6154507333333274
-6.170803999999953,-1.0579889000000031,3.336734299999994
-6.41974256666662,-1.7026760000000032,3.0016246666666606
-6.668681133333286,-2.347363100000003,2.666515033333327
-6.917619699999952,-2.992050200000003,2.3314053999999937
-6.917619699999952,-2.992050200000003,2.3314053999999937
-7.626137133333287,-2.9186452333333364,2.0473601333333273
-8.33465456666662,-2.8452402666666696,1.7633148666666607
-9.043171999999954,-2.771835300000003,1.4792695999999943
-9.043171999999956,-2.771835300000003,1.4792695999999943
-9.043171999999956,-2.771835300000003,1.4792695999999943
-11.899582666666623,-2.573961000000003,1.2750122999999942
-14.755993333333288,-2.376086700000003,1.0707549999999941
-17.612403999999955,-2.178212400000003,0.8664976999999942
-17.612403999999955,-2.178212400000003,0.8664976999999942
-17.612403999999955,-2.178212400000003,0.8664976999999942
-17.612403999999955,-2.178212400000003,0.8664976999999942
-17.612403999999955,-2.178212400000003,0.8664976999999942
-14.168753666666623,-2.21012766666667,0.8984128999999941
-10.725103333333289,-2.242042933333336,0.930328099999994
-7.2814529999999555,-2.2739582000000027,0.962243299999994
-7.2814529999999555,-2.2739582000000023,0.962243299999994
-6.3335716666666215,-2.127148233333336,0.582452409999994
-5.385690333333289,-1.9803382666666691,0.20266151999999404
-4.437808999999956,-1.8335283000000027,-0.17712937000000598
-4.437808999999957,-1.8335283000000027,-0.17712937000000598
-3.738865999999957,-1.8590604666666692,-0.138831128000006
-3.0399229999999573,-1.8845926333333358,-0.10053288600000598
-2.3409799999999574,-1.9101248000000026,-0.06223464400000598
-2.3409799999999574,-1.9101248000000026,-0.06223464400000598
-3.017582233333291,-1.6771438333333357,-0.07500072266667264
-3.694184466666624,-1.4441628666666688,-0.0877668013333393
-4.370786699999957,-1.2111819000000021,-0.10053288000000597
-4.370786699999957,-1.2111819000000021,-0.10053288000000597
-4.370786699999957,-1.2111819000000021,-0.10053288000000597
-5.206964999999958,-1.4282052666666687,-0.1930869666666726
-6.043143299999958,-1.6452286333333355,-0.2856410533333393
-6.879321599999958,-1.8622520000000022,-0.37819514000000587
-9.387856399999958,-2.3186393333333353,-0.20904457333333923
-11.89639119999996,-2.7750266666666685,-0.03989400666667257
-14.40492599999996,-3.2314140000000013,0.12925655999999408
-14.40492599999996,-3.231414000000001,0.12925655999999408
-15.451744666666627,-4.223976866666668,0.8186249399999941
-16.498563333333294,-5.2165397333333345,1.5079933199999942
-17.54538199999996,-6.209102600000001,2.1973616999999943
-17.54538199999996,-6.209102600000001,2.1973616999999943
-17.54538199999996,-6.209102600000001,2.1973616999999943
-14.248541666666625,-5.411222533333334,2.459066299999994
-10.95170133333329,-4.613342466666668,2.720770899999994
-7.654860999999955,-3.8154624000000017,2.982475499999994
-6.872938666666621,-2.4941730366666683,2.92502816666666
-6.091016333333287,-1.1728836733333352,2.8675808333333266
-5.309093999999953,0.14840568999999806,2.8101334999999934
-5.309093999999953,0.14840568999999806,2.8101334999999934
-5.149517899999952,0.03031944666666474,3.132476999999993
-4.9899417999999525,-0.08776679666666859,3.454820499999993
-4.830365699999953,-0.20585304000000193,3.7771639999999933
-4.830365699999953,-0.2058530400000019,3.7771639999999933
-4.830365699999953,-0.2058530400000019,3.7771639999999933
-6.917620133333284,-1.3420342266666685,4.073975399999994
-9.004874566666617,-2.478215413333335,4.370786799999994
-11.09212899999995,-3.6143966000000023,4.667598199999994
-13.92938999999995,-3.726099833333335,3.6622693666666613
-16.76665099999995,-3.8378030666666683,2.656940533333328
-19.60391199999995,-3.9495063000000017,1.6516116999999941
-19.603911999999955,-3.9495063000000017,1.6516116999999941
-18.119855333333287,-2.6218338800000023,1.7537403333333277
-16.635798666666624,-1.2941614600000022,1.8558689666666612
-15.151741999999958,0.03351095999999772,1.9579975999999946
-15.151741999999958,0.03351095999999772,1.9579975999999946
-15.151741999999958,0.03351095999999772,1.9579975999999946
