accx,accy,accz
2.580344,4.0069537,8.439975
2.580344,4.0069537,8.439975
2.5452373333333336,3.9367402333333334,8.424017333333333
2.510130666666667,3.8665267666666665,8.408059666666668
2.475024,3.7963132999999996,8.392102
2.4750240000000003,3.7963132999999996,8.392102000000001
2.4686409,3.7133337666666666,8.404868333333333
2.4622578,3.6303542333333336,8.417634666666665
2.4558747,3.5473747000000007,8.430400999999996
2.4558746999999994,3.5473747000000007,8.430400999999994
2.5324711999999994,3.560140766666667,8.526146333333328
2.609067699999999,3.572906833333334,8.621891666666661
2.6856641999999984,3.5856729000000005,8.717636999999995
2.6856641999999984,3.5856729000000005,8.717636999999995
2.7207709333333323,3.5378001,8.672955666666661
2.7558776666666662,3.4899272999999997,8.628274333333326
2.7909843999999997,3.4420544999999994,8.583592999999992
2.7909844000000006,3.4420544999999994,8.583592999999992
2.7558776666666667,3.362266466666666,8.481464333333323
2.7207709333333328,3.282478433333333,8.379335666666655
2.6856641999999993,3.2026904,8.277206999999988
2.7048133333333326,3.030348333333333,8.114439666666653
2.7239624666666664,2.8580062666666666,7.951672333333321
2.7431116,2.6856641999999997,7.788904999999989
2.7431116,2.6856641999999997,7.78890499999999
2.7526861666666664,2.6920471999999998,7.686776333333323
2.7622607333333327,2.6984302000000002,7.584647666666655
2.771835299999999,2.7048132000000003,7.482518999999987
2.771835299999999,2.7048132000000003,7.482518999999987
2.771835299999999,2.7048132000000003,7.482518999999987
2.902687599999999,2.4271509666666673,7.345283566666654
3.033539899999999,2.149488733333334,7.208048133333321
3.1643921999999995,1.871826500000001,7.070812699999988
3.282478466666666,1.7952300666666676,6.818682666666654
3.400564733333333,1.718633633333334,6.56655263333332
3.5186509999999998,1.6420372000000008,6.314422599999985
3.5186509999999998,1.6420372000000008,6.3144225999999835
3.5186509999999998,1.6420372000000008,6.3144225999999835
3.9495063333333325,0.8090504133333342,6.346337733333317
4.3803616666666665,-0.023936373333332577,6.378252866666649
4.811217,-0.8569231599999992,6.410167999999982
4.811217,-0.8569231599999992,6.410167999999982
5.261221200000001,-1.1473515066666662,6.537828799999983
5.711225400000001,-1.4377798533333328,6.665489599999984
6.161229600000001,-1.7282081999999994,6.793150399999985
6.537828900000001,-1.8622519999999996,6.592084699999984
6.914428200000001,-1.9962957999999995,6.391018999999983
7.291027500000001,-2.1303395999999997,6.189953299999982
7.291027500000001,-2.1303395999999997,6.189953299999982
7.859118000000002,-2.5388542,5.609096666666649
8.427208500000004,-2.9473687999999996,5.028240033333316
8.995299000000005,-3.3558833999999997,4.447383399999983
8.995299000000005,-3.3558833999999997,4.447383399999983
8.995299000000005,-3.3558833999999997,4.447383399999983
9.68466766666667,-3.9558892666666665,4.147380499999983
10.374036333333336,-4.555895133333333,3.8473775999999824
11.063405000000003,-5.155901,3.5473746999999825
11.063405000000003,-5.155901,3.5473746999999825
11.092128333333335,-5.015474,3.3399258999999826
11.120851666666667,-4.8750469999999995,3.132477099999982
11.149574999999999,-4.73462,2.9250282999999815
10.964466999999999,-4.412276533333333,2.4909815333333145
10.779359,-4.089933066666667,2.056934766666648
10.594251,-3.767589600000001,1.6228879999999817
10.594251,-3.767589600000001,1.622887999999982
10.594251,-3.767589600000001,1.622887999999982
10.744252333333334,-3.643120300000001,1.297352949999982
10.894253666666666,-3.5186510000000006,0.9718178999999819
11.044255,-3.3941817000000007,0.6462828499999819
11.044255,-3.3941817000000007,0.6462828499999819
10.731485999999999,-3.544183133333334,0.45798315499998193
10.418717,-3.6941845666666673,0.26968345999998194
10.105947999999998,-3.8441860000000005,0.08138376499998194
10.144246333333333,-3.7739725333333336,-0.014361836666684724
10.182544666666667,-3.7037590666666667,-0.11010743833335139
10.220843000000002,-3.6335455999999997,-0.20585304000001803
10.220843000000002,-3.6335455999999997,-0.20585304000001803
10.220843000000002,-3.6335455999999997,-0.20585304000001803
10.354886666666667,-3.352691866666667,-0.2154276033333514
10.488930333333334,-3.0718381333333338,-0.22500216666668474
10.622974,-2.790984400000001,-0.2345767300000181
10.622974,-2.7909844000000015,-0.2345767300000181
10.520845666666666,-2.730345500000002,-0.062234640000018104
10.418717333333333,-2.6697066000000027,0.1101074499999819
10.316589,-2.609067700000003,0.2824495399999819
10.316589,-2.6090677000000024,0.28244953999998196
10.284673666666668,-1.8750180733333355,0.41968490333331526
10.252758333333334,-1.1409684466666685,0.5569202666666486
10.220843000000002,-0.4069188200000018,0.6941556299999819
10.220843000000002,-0.4069188200000018,0.6941556299999819
10.019777333333336,-0.8058588466666685,0.3590460199999819
9.818711666666667,-1.2047988733333352,0.023936409999981922
9.617646,-1.6037389000000022,-0.3111732000000181
9.617646,-1.6037389000000022,-0.3111732000000181
9.563390333333333,-1.6611862666666688,-0.4739407333333514
9.509134666666666,-1.7186336333333354,-0.6367082666666847
9.454878999999998,-1.776081000000002,-0.799475800000018
9.454878999999998,-1.776081000000002,-0.799475800000018
9.557007666666665,-1.846294433333335,-0.6430913100000181
9.659136333333334,-1.9165078666666684,-0.48670682000001797
9.761265000000002,-1.9867213000000017,-0.3303223300000179
9.761265000000002,-1.9867213000000017,-0.3303223300000179
9.860202000000001,-1.9260824333333348,-0.16755480333335124
9.959139,-1.8654435666666682,-0.004787276666684566
10.058076,-1.8048047000000016,0.1579802499999821
10.058076,-1.8048047000000016,0.1579802499999821
10.003820166666666,-1.795230133333335,0.05266008333331542
9.949564333333333,-1.7856555666666682,-0.05266008333335124
9.895308499999999,-1.7760810000000014,-0.1579802500000179
9.895308499999999,-1.7760810000000014,-0.1579802500000179
9.834669333333332,-1.7377827333333347,-0.13563961000001792
9.774030166666668,-1.699484466666668,-0.11329897000001793
9.713391000000001,-1.6611862000000013,-0.09095833000001795
9.713391000000001,-1.6611862000000013,-0.09095833000001796
9.805945333333334,-1.6707607666666677,-0.12606504666668464
9.898499666666666,-1.680335333333334,-0.16117176333335134
9.991053999999998,-1.6899099000000002,-0.19627848000001802
9.991053999999998,-1.6899099,-0.19627848000001802
9.987862666666665,-1.7090589999999999,-0.22500216666668468
9.984671333333331,-1.7282080999999998,-0.25372585333335135
9.981479999999998,-1.7473571999999997,-0.28244954000001793
9.93041533333333,-1.7154420333333331,-0.25053434000001795
9.879350666666666,-1.6835268666666667,-0.21861914000001795
9.828285999999999,-1.6516117000000001,-0.18670394000001797
9.828285999999999,-1.6516117000000001,-0.18670394000001797
9.828285999999999,-1.6516117000000001,-0.18670394000001797
9.825094333333332,-1.6484202000000001,-0.15159721500001797
9.821902666666666,-1.6452286999999999,-0.11649049000001795
9.818711,-1.6420371999999999,-0.08138376500001794
9.818711,-1.6420371999999999,-0.08138376500001794
9.8442435,-1.6196965333333333,-0.055851603333351284
9.869776,-1.5973558666666667,-0.030319441666684616
9.895308499999999,-1.5750152000000002,-0.004787280000017953
9.879350666666667,-1.5494830333333336,0.0047872806666487125
9.863392833333336,-1.5239508666666668,0.014361841333315377
9.847435000000004,-1.4984187000000002,0.023936401999982048
9.847435000000006,-1.4984187000000002,0.023936401999982048
9.847435000000006,-1.4984187000000002,0.023936401999982048
9.86339283333334,-1.527142366666667,-0.007978798666684621
9.879350666666673,-1.5558660333333336,-0.039893999333351284
9.895308500000008,-1.5845897000000004,-0.07180920000001796
9.895308500000008,-1.5845897000000004,-0.07180920000001795
9.924032333333342,-1.616504933333334,-0.07180920000001795
9.952756166666674,-1.6484201666666671,-0.07180920000001795
9.981480000000007,-1.6803354000000006,-0.07180920000001795
9.981480000000007,-1.6803354000000006,-0.07180920000001795
9.911266333333343,-1.7090590666666674,-0.04627704000001794
9.841052666666677,-1.737782733333334,-0.020744880000017937
9.770839000000011,-1.7665064000000008,0.0047872799999820635
9.770839000000011,-1.7665064000000008,0.004787279999982063
9.754881333333344,-1.7760809333333343,0.030319441666648725
9.738923666666677,-1.7856554666666675,0.05585160333331538
9.722966000000008,-1.795230000000001,0.08138376499998205
9.722966000000008,-1.795230000000001,0.08138376499998205
9.77083900000001,-1.8271452333333345,0.06861768433331539
9.81871200000001,-1.8590604666666677,0.05585160366664873
9.86658500000001,-1.8909757000000011,0.043085522999982064
9.86658500000001,-1.8909757000000011,0.043085522999982064
9.876159500000009,-1.9133163333333345,0.03031944199998207
9.885734000000008,-1.935656966666668,0.01755336099998207
9.895308500000008,-1.9579976000000014,0.004787279999982068
9.895308500000008,-1.9579976000000014,0.004787279999982067
9.895308500000008,-1.9260824000000012,0.0015957599999820674
9.895308500000008,-1.894167200000001,-0.0015957600000179324
9.895308500000008,-1.8622520000000007,-0.004787280000017932
9.895308500000008,-1.8622520000000007,-0.004787280000017932
9.914457666666676,-1.8175707333333342,-0.011170320666684599
9.933606833333343,-1.7728894666666675,-0.017553361333351263
9.95275600000001,-1.728208200000001,-0.02393640200001793
9.95275600000001,-1.728208200000001,-0.02393640200001793
9.955947333333343,-1.6962929666666675,-0.03989400133335127
9.959138666666677,-1.6643777333333343,-0.055851600666684605
9.96233000000001,-1.6324625000000008,-0.07180920000001793
9.96233000000001,-1.6324625000000008,-0.07180920000001793
9.93998950000001,-1.590972733333334,-0.07819224333335124
9.91764900000001,-1.5494829666666672,-0.08457528666668457
9.895308500000008,-1.5079932000000005,-0.09095833000001789
9.895308500000008,-1.5079932000000005,-0.09095833000001789
9.901691333333341,-1.4984186666666675,-0.09734136800001787
9.908074166666674,-1.4888441333333342,-0.10372440600001787
9.914457000000008,-1.4792696000000012,-0.11010744400001786
9.914457000000008,-1.4792696000000012,-0.11010744400001786
9.876158666666676,-1.495227200000001,-0.08776680366668453
9.837860333333344,-1.5111848000000008,-0.0654261633333512
9.79956200000001,-1.5271424000000007,-0.04308552300001787
9.79956200000001,-1.5271424000000007,-0.04308552300001787
9.812328333333342,-1.5462915000000008,-0.030319442000017873
9.825094666666674,-1.5654406000000007,-0.017553361000017875
9.837861000000006,-1.5845897000000007,-0.0047872800000178725
9.837861000000006,-1.5845897000000004,-0.004787280000017872
9.869776000000005,-1.616504933333334,-0.014361840000017874
9.901691000000005,-1.6484201666666671,-0.02393640000001787
9.933606000000006,-1.6803354000000006,-0.033510960000017874
9.933606000000006,-1.6803354000000006,-0.033510960000017874
9.943180666666676,-1.7058675666666672,-0.0430855213333512
9.952755333333343,-1.7313997333333342,-0.05266008266668454
9.96233000000001,-1.7569319000000012,-0.06223464400001787
9.943180666666677,-1.7569319000000014,-0.055851603666684534
9.924031333333344,-1.7569319000000014,-0.0494685633333512
9.90488200000001,-1.7569319000000014,-0.04308552300001787
9.90488200000001,-1.7569319000000014,-0.04308552300001787
9.895307666666676,-1.7441658333333347,-0.046277042000017865
9.885733333333343,-1.7313997666666683,-0.04946856100001786
9.87615900000001,-1.7186337000000016,-0.05266008000001785
9.87615900000001,-1.7186337000000016,-0.05266008000001785
9.879350666666676,-1.7026760666666683,-0.05585160133335119
9.882542333333342,-1.6867184333333352,-0.059043122666684524
9.885734000000008,-1.6707608000000018,-0.06223464400001786
9.885734000000008,-1.6707608000000018,-0.06223464400001786
9.882542333333342,-1.6579947000000017,-0.04308552266668453
9.879350666666676,-1.6452286000000018,-0.023936401333351193
9.87615900000001,-1.6324625000000017,-0.004787280000017859
9.87615900000001,-1.6324625000000017,-0.004787280000017858
9.866584333333345,-1.6260794666666685,0.004787280666648808
9.857009666666679,-1.619696433333335,0.014361841333315474
9.847435000000013,-1.6133134000000018,0.023936401999982145
9.847435000000015,-1.6133134000000018,0.023936401999982145
9.872967333333348,-1.6228880000000017,0.015957601333315478
9.898499666666682,-1.6324626000000018,0.007978800666648812
9.924032000000015,-1.6420372000000016,0.0
9.904883000000016,-1.6452287000000017,0.0015957599999821461
9.885734000000017,-1.648420200000002,0.003191519999982146
9.866585000000018,-1.651611700000002,0.004787279999982146
9.86658500000002,-1.651611700000002,0.004787279999982146
9.86658500000002,-1.651611700000002,0.004787279999982146
9.879350666666687,-1.6579947333333351,-0.004787280666684521
9.892116333333353,-1.6643777666666686,-0.014361841333351187
9.90488200000002,-1.6707608000000018,-0.023936402000017856
9.898499333333353,-1.6611862666666684,-0.014361841333351189
9.892116666666686,-1.651611733333335,-0.004787280666684524
9.885734000000019,-1.6420372000000016,0.004787279999982142
9.885734000000019,-1.6420372000000016,0.004787279999982142
9.87935100000002,-1.638845633333335,0.0031915199999821425
9.87296800000002,-1.6356540666666683,0.0015957599999821426
9.86658500000002,-1.6324625000000017,0.0
9.86658500000002,-1.6324625000000017,0.0
9.879350666666687,-1.6133134000000018,0.017553359999982143
9.892116333333353,-1.5941643000000019,0.03510671999998214
9.90488200000002,-1.575015200000002,0.052660079999982144
9.90488200000002,-1.575015200000002,0.052660079999982144
9.90488200000002,-1.575015200000002,0.052660079999982144
9.908073666666686,-1.571823700000002,0.07500072333331548
9.911265333333352,-1.5686322000000017,0.09734136666664882
9.914457000000018,-1.5654407000000017,0.11968200999998214
9.908074166666685,-1.5782067666666684,0.12287352666664882
9.901691333333352,-1.5909728333333348,0.12606504333331547
9.895308500000018,-1.6037389000000015,0.12925655999998212
9.895308500000018,-1.6037389000000015,0.12925655999998212
9.895308500000018,-1.6069304000000015,0.14202264333331546
9.895308500000018,-1.6101219000000018,0.15478872666664878
9.895308500000018,-1.6133134000000018,0.1675548099999821
9.895308500000018,-1.6133134000000018,0.1675548099999821
9.904883000000018,-1.619696433333335,0.1356396066666488
9.914457500000017,-1.6260794666666685,0.10372440333331545
9.924032000000016,-1.6324625000000017,0.07180919999998213
9.924032000000015,-1.6324625000000017,0.07180919999998213
9.911266000000015,-1.6388455666666684,0.03670247999998212
9.898500000000016,-1.6452286333333352,0.0015957599999821225
9.885734000000017,-1.651611700000002,-0.03351096000001788
9.885734000000019,-1.651611700000002,-0.03351096000001788
9.860201666666685,-1.654803200000002,-0.0015957586666845436
9.834669333333352,-1.6579947000000022,0.030319442666648794
9.80913700000002,-1.6611862000000022,0.06223464399998213
9.80913700000002,-1.6611862000000022,0.06223464399998213
9.831477666666686,-1.6739523000000018,0.09095832599998215
9.853818333333352,-1.6867184000000017,0.11968200799998215
9.87615900000002,-1.6994845000000014,0.14840568999998216
9.879350666666687,-1.705867566666668,0.13244808666664884
9.882542333333353,-1.7122506333333345,0.1164904833333155
9.885734000000019,-1.718633700000001,0.10053287999998217
9.885734000000019,-1.718633700000001,0.10053287999998217
9.885734000000019,-1.718633700000001,0.10053287999998217
9.866584666666684,-1.6931015333333344,0.06702191999998218
9.847435333333351,-1.6675693666666678,0.03351095999998217
9.828286000000018,-1.642037200000001,0.0
9.841052333333351,-1.6388456333333343,-0.03670248133335116
9.853818666666685,-1.6356540666666677,-0.07340496266668449
9.86658500000002,-1.632462500000001,-0.11010744400001782
9.86658500000002,-1.632462500000001,-0.11010744400001782
9.879350666666687,-1.6356540666666677,-0.11010744400001782
9.892116333333353,-1.6388456333333343,-0.11010744400001782
9.90488200000002,-1.642037200000001,-0.11010744400001782
9.90488200000002,-1.642037200000001,-0.11010744400001782
9.908073666666686,-1.6356541333333345,-0.07819224300001781
9.911265333333352,-1.629271066666668,-0.04627704200001781
9.914457000000018,-1.6228880000000017,-0.014361841000017805
9.914457000000018,-1.622888000000002,-0.014361841000017805
9.892116333333353,-1.6037389000000022,0.01436183933331553
9.869775666666689,-1.5845898000000023,0.043085519666648864
9.847435000000024,-1.5654407000000023,0.0718091999999822
9.847435000000024,-1.5654407000000023,0.0718091999999822
9.860201333333356,-1.5718237000000024,0.0718091999999822
9.872967666666687,-1.5782067000000026,0.0718091999999822
9.885734000000019,-1.5845897000000029,0.0718091999999822
9.885734000000019,-1.5845897000000029,0.0718091999999822
9.892116666666686,-1.6133134000000027,0.06861768133331553
9.898499333333353,-1.6420371000000025,0.06542616266664886
9.90488200000002,-1.6707608000000025,0.06223464399998219
9.90488200000002,-1.6707608000000025,0.06223464399998219
9.882541666666688,-1.6803353666666692,0.06861768433331551
9.860201333333356,-1.689909933333336,0.07500072466664885
9.837861000000023,-1.699484500000003,0.08138376499998218
9.837861000000023,-1.699484500000003,0.08138376499998218
9.844244000000023,-1.7026760000000027,0.07819224333331552
9.850627000000022,-1.7058675000000025,0.07500072166664885
9.857010000000022,-1.7090590000000023,0.0718091999999822
9.857010000000022,-1.7090590000000023,0.0718091999999822
9.863393000000022,-1.731399666666669,0.06861768133331553
9.869776000000021,-1.7537403333333355,0.06542616266664886
9.87615900000002,-1.776081000000002,0.06223464399998219
9.87615900000002,-1.776081000000002,0.06223464399998219
9.869776000000021,-1.776081000000002,0.09414984599998218
9.863393000000022,-1.776081000000002,0.12606504799998217
9.857010000000022,-1.776081000000002,0.15798024999998217
9.857010000000022,-1.776081000000002,0.15798024999998214
9.904882666666687,-1.776081000000002,0.19308697333331545
9.952755333333352,-1.776081000000002,0.22819369666664877
10.000628000000019,-1.776081000000002,0.26330041999998205
10.000628000000019,-1.776081000000002,0.26330041999998205
10.010202666666684,-1.7186336333333354,0.3015986599999821
10.01977733333335,-1.6611862666666688,0.3398968999999821
10.029352000000015,-1.6037389000000022,0.37819513999998217
10.029352000000014,-1.6037389000000022,0.3781951399999823
10.04530966666668,-1.5048017333333357,0.37181209333331555
10.06126733333335,-1.4058645666666691,0.3654290466666488
10.077225000000016,-1.3069274000000026,0.35904599999998216
10.077225000000018,-1.3069274000000026,0.35904599999998216
9.975096333333353,-1.3388426333333359,0.3015986466666489
9.872967666666687,-1.3707578666666693,0.2441512933333155
9.770839000000022,-1.4026731000000028,0.18670393999998217
9.770839000000022,-1.402673100000003,0.18670393999998217
9.678284666666686,-1.530333900000003,0.12925657366664886
9.585730333333352,-1.6579947000000026,0.07180920733331551
9.493176000000018,-1.7856555000000025,0.014361840999982167
9.493176000000018,-1.7856555000000025,0.014361840999982167
9.544240666666683,-1.820762233333336,0.08138376066664883
9.59530533333335,-1.8558689666666695,0.1484056803333155
9.646370000000017,-1.890975700000003,0.21542759999998215
9.646370000000017,-1.890975700000003,0.21542759999998218
9.675093666666683,-1.999487400000003,0.18351240333331553
9.70381733333335,-2.1079991000000025,0.15159720666664886
9.732541000000017,-2.2165108000000022,0.11968200999998223
9.700625666666683,-2.3122563666666687,0.03989400333331555
9.668710333333351,-2.408001933333335,-0.039894003333351115
9.636795000000019,-2.5037475000000016,-0.11968201000001778
9.636795000000019,-2.5037475000000016,-0.11968201000001778
9.636795000000019,-2.5037475000000016,-0.11968201000001778
9.671901666666685,-2.471832333333335,0.0015957599999822103
9.70700833333335,-2.439917166666669,0.1228735299999822
9.742115000000018,-2.408002000000002,0.2441512999999822
9.742115000000018,-2.408002000000002,0.2441512999999822
9.71658300000002,-2.3218310000000018,0.3781951499999822
9.691051000000021,-2.2356600000000015,0.5122389999999822
9.665519000000023,-2.1494890000000013,0.6462828499999822
9.681476333333356,-2.0697009333333347,0.7324538799999822
9.697433666666688,-1.989912866666668,0.8186249099999823
9.713391000000021,-1.9101248000000013,0.9047959399999823
9.713391000000021,-1.9101248000000013,0.9047959399999823
9.713391000000021,-1.9101248000000013,0.9047959399999823
9.783604666666685,-1.8526774333333347,0.946285726666649
9.85381833333335,-1.795230066666668,0.9877755133333156
9.924032000000016,-1.7377827000000015,1.0292652999999823
9.924032000000015,-1.7377827000000015,1.0292652999999823
10.048501333333347,-1.6579947000000015,0.9207535899999822
10.17297066666668,-1.5782067000000015,0.8122418799999823
10.297440000000012,-1.4984187000000013,0.7037301699999823
10.29744000000001,-1.4984187000000013,0.7037301699999823
10.820849333333344,-1.5303339333333348,0.3813866399999823
11.344258666666677,-1.5622491666666682,0.05904310999998227
11.86766800000001,-1.5941644000000015,-0.26330042000001774
11.86766800000001,-1.5941644000000015,-0.26330042000001774
13.211298000000012,-1.651611733333335,-0.7037301800000177
14.554928000000011,-1.7090590666666685,-1.1441599400000177
15.89855800000001,-1.766506400000002,-1.5845897000000175
14.551736333333343,-1.2909699000000021,-1.2973529000000175
13.204914666666674,-0.8154334000000022,-1.0101161000000176
11.858093000000006,-0.3398969000000022,-0.7228793000000177
11.858093000000006,-0.3398969000000022,-0.7228793000000179
10.536803666666673,-0.13563960666666888,-0.7771351333333513
9.21551433333334,0.06861768666666446,-0.8313909666666847
7.8942250000000085,0.2728749799999978,-0.885646800000018
7.8942250000000085,0.27287497999999777,-0.885646800000018
8.548486666666676,-0.16436328000000225,-1.1409684333333514
9.202748333333345,-0.6016015400000022,-1.3962900666666849
9.857010000000011,-1.0388398000000023,-1.6516117000000181
9.857010000000011,-1.0388398000000023,-1.6516117000000181
9.566581666666679,-1.003733086666669,-1.3962900666666849
9.276153333333346,-0.9686263733333357,-1.1409684333333514
8.985725000000011,-0.9335196600000023,-0.885646800000018
8.985725000000011,-0.9335196600000023,-0.885646800000018
8.478273333333343,-1.003733106666669,-0.5601117566666848
7.970821666666676,-1.0739465533333359,-0.23457671333335137
7.463370000000007,-1.1441600000000027,0.09095832999998199
7.463370000000007,-1.1441600000000027,0.09095832999998199
7.463370000000007,-1.1441600000000027,0.09095832999998199
7.594222333333342,-1.0739465533333359,0.35585448666664865
7.725074666666676,-1.003733106666669,0.6207506433333153
7.855927000000011,-0.9335196600000023,0.8856467999999821
8.51338000000001,-0.4962813933333357,1.0005415666666486
9.170833000000009,-0.05904312666666911,1.1154363333333155
9.828286000000007,0.3781951399999975,1.2303310999999821
9.828286000000007,0.3781951399999975,1.2303310999999821
10.846381000000008,0.10372440333333084,0.9622433833333156
11.864476000000009,-0.1707463333333358,0.694155666666649
12.882571000000008,-0.4452170700000025,0.42606794999998243
12.882571000000008,-0.4452170700000025,0.42606794999998243
12.882571000000008,-0.4452170700000025,0.42606794999998243
13.814495000000008,-0.8792637800000026,0.1324480866666491
14.746419000000008,-1.3133104900000026,-0.16117177666668422
15.678343000000007,-1.7473572000000024,-0.4547916400000176
14.344287333333341,-1.9292739000000025,-0.4611746700000176
13.010231666666675,-2.1111906000000022,-0.46755770000001756
11.676176000000007,-2.293107300000002,-0.4739407300000176
11.676176000000007,-2.293107300000002,-0.4739407300000176
11.676176000000007,-2.293107300000002,-0.4739407300000176
10.070841566666674,-1.8686350666666687,-0.32713080666668426
8.465507133333341,-1.4441628333333352,-0.18032088333335095
6.8601727000000094,-1.019690600000002,-0.03351096000001761
6.8601727000000094,-1.0196906000000021,-0.03351096000001761
7.4378378000000085,-1.125010800000002,-0.2696834400000176
8.015502900000008,-1.2303310000000023,-0.5058559200000176
8.593168000000007,-1.3356512000000025,-0.7420284000000176
8.312314166666674,-1.329268166666669,-0.7420284000000176
8.03146033333334,-1.3228851333333358,-0.7420284000000176
7.750606500000007,-1.3165021000000026,-0.7420284000000176
7.750606500000007,-1.3165021000000026,-0.7420284000000176
7.750606500000007,-1.3165021000000026,-0.7420284000000176
7.383581766666674,-1.418630733333336,-0.7037301666666842
7.016557033333341,-1.5207593666666694,-0.6654319333333508
6.649532300000008,-1.622888000000003,-0.6271337000000173
6.649532300000008,-1.6228880000000032,-0.6271337000000173
7.192090533333341,-1.7090590666666696,-0.764369066666684
7.734648766666674,-1.7952301333333363,-0.9016044333333507
8.277207000000008,-1.8814012000000027,-1.0388398000000174
10.31658833333334,-1.6675693333333361,-0.8537316333333506
12.355969666666676,-1.4537374666666694,-0.6686234666666838
14.39535100000001,-1.2399056000000028,-0.4835153000000172
14.39535100000001,-1.2399056000000028,-0.48351530000001713
15.097485666666676,-0.7420284466666697,-0.48989835000001714
15.799620333333342,-0.2441512933333363,-0.49628140000001714
16.501755000000006,0.253725859999997,-0.5026644500000171
16.501755000000006,0.253725859999997,-0.5026644500000171
13.833644000000007,-0.007978793333336268,-0.4356425233333505
11.165533000000005,-0.2696834466666696,-0.36862059666668384
8.497422000000006,-0.5313881000000029,-0.30159867000001717
8.497422000000006,-0.5313881000000028,-0.3015986700000172
8.159121000000004,-0.9813924666666695,-0.44840858000001727
7.820820000000004,-1.4313968333333362,-0.5952184900000173
7.4825190000000035,-1.8814012000000029,-0.7420284000000171
7.4825190000000035,-1.8814012000000029,-0.7420284000000171
8.232526333333336,-1.728208200000003,-0.41968487666668386
8.98253366666667,-1.575015200000003,-0.09734135333335052
9.732541000000003,-1.4218222000000031,0.22500216999998282
9.732541000000005,-1.4218222000000031,0.22500216999998282
8.877213433333338,-0.984583948000003,0.8122418799999828
8.021885866666672,-0.547345696000003,1.3994815899999828
7.1665583000000055,-0.11010744400000301,1.986721299999983
7.1665583000000055,-0.11010744400000301,1.986721299999983
7.217622633333339,-0.5856439293333363,1.6579947333333163
7.268686966666674,-1.0611804146666697,1.3292681666666495
7.319751300000007,-1.5367169000000034,1.000541599999983
7.319751300000007,-1.5367169000000034,1.000541599999983
8.602742533333341,-1.7186335333333365,0.7069217366666495
9.885733766666675,-1.90055016666667,0.4133018733333162
11.16872500000001,-2.0824668000000037,0.11968200999998284
11.16872500000001,-2.0824668000000037,0.11968200999998284
12.107031666666673,-2.12395656666667,0.15478872999998283
13.04533833333334,-2.1654463333333367,0.18989544999998284
13.983645000000008,-2.206936100000003,0.22500216999998282
13.98364500000001,-2.206936100000003,0.22500216999998282
14.05705000000001,-2.315447800000003,0.1324480866666495
14.130455000000007,-2.4239595000000027,0.039894003333316164
14.203860000000006,-2.532471200000003,-0.05266008000001717
14.203860000000006,-2.532471200000003,-0.05266008000001717
14.203860000000006,-2.532471200000003,-0.05266008000001717
12.228309000000008,-2.3537460666666696,0.14521415999998286
10.252758000000007,-2.1750209333333363,0.3430883999999829
8.277207000000006,-1.9962958000000033,0.5409626399999828
8.098482000000008,-1.7218250666666701,0.5569202599999828
7.919757000000008,-1.4473543333333367,0.5728778799999829
7.741032000000008,-1.1728836000000036,0.5888354999999829
7.741032000000008,-1.1728836000000036,0.5888354999999829
7.741032000000008,-1.1728836000000036,0.5888354999999829
8.018694166666673,-1.2813953000000036,0.3303223533333162
8.296356333333339,-1.3899070000000033,0.07180920666664954
8.574018500000005,-1.498418700000003,-0.1867039400000171
8.216568333333337,-1.4345882666666698,-0.12446929333335044
7.859118166666671,-1.3707578333333366,-0.06223464666668377
7.501668000000005,-1.306927400000003,0.0
7.501668000000005,-1.306927400000003,0.0
7.453795333333338,-1.380332400000003,-0.23457672333335045
7.405922666666672,-1.453737400000003,-0.4691534466666838
7.358050000000007,-1.5271424000000027,-0.7037301700000173
7.358050000000008,-1.5271424000000027,-0.7037301700000173
7.358050000000008,-1.5271424000000027,-0.7037301700000173
8.749552666666675,-1.4665035000000028,-0.8473485800000171
10.141055333333343,-1.405864600000003,-0.990966990000017
11.53255800000001,-1.3452257000000032,-1.1345854000000168
13.048530333333344,-1.0739465000000032,-1.1569260333333504
14.564502666666677,-0.8026673000000031,-1.1792666666666838
16.08047500000001,-0.531388100000003,-1.2016073000000171
16.08047500000001,-0.531388100000003,-1.2016073000000171
16.08047500000001,-0.531388100000003,-1.2016073000000171
14.526204666666677,-0.237768250000003,-1.1601175666666839
12.971934333333344,0.05585159999999697,-1.1186278333333506
11.417664000000011,0.34947144999999696,-1.077138100000017
11.417664000000011,0.34947144999999696,-1.077138100000017
10.208077666666677,0.004787266666663663,-1.016499200000017
8.998491333333343,-0.33989691666666966,-0.9558603000000169
7.7889050000000095,-0.6845811000000029,-0.8952214000000168
8.379336333333342,-0.6398998000000029,-0.8122418833333501
8.969767666666675,-0.5952185000000029,-0.7292623666666834
9.560199000000006,-0.550537200000003,-0.6462828500000167
9.560199000000006,-0.550537200000003,-0.6462828500000167
9.560199000000006,-0.550537200000003,-0.6462828500000167
8.893171133333338,-0.5122389666666697,-0.17074634666668334
8.226143266666671,-0.4739407333333363,0.30479015666664994
7.559115400000004,-0.435642500000003,0.7803266599999832
7.559115400000003,-0.435642500000003,0.7803266599999832
7.278261600000003,-0.623942200000003,0.8441570733333165
6.997407800000002,-0.8122419000000031,0.9079874866666499
6.716554000000002,-1.000541600000003,0.9718178999999831
6.716554000000002,-1.000541600000003,0.9718178999999831
7.699542333333336,-1.0579889333333365,0.7867097333333164
8.68253066666667,-1.11543626666667,0.6016015666666497
9.665519000000003,-1.1728836000000034,0.4164933999999829
9.665519000000005,-1.1728836000000036,0.4164933999999829
11.465536333333338,-1.2750122666666701,0.24095978533331622
13.265553666666671,-1.3771409333333366,0.06542617066664953
15.065571000000006,-1.4792696000000032,-0.11010744400001714
15.065571000000006,-1.4792696000000032,-0.11010744400001714
15.004932333333338,-1.2622462333333366,0.027127927333316204
14.944293666666672,-1.0452228666666699,0.16436329866664953
14.883655000000005,-0.8281995000000032,0.30159866999998286
14.883655000000005,-0.8281995000000032,0.30159866999998286
13.19534033333334,-0.9271366000000031,0.3909612299999829
11.507025666666673,-1.026073700000003,0.4803237899999829
9.818711000000008,-1.125010800000003,0.5696863499999829
9.818711000000008,-1.125010800000003,0.5696863499999828
8.941043200000008,-1.054797380000003,0.5281965899999829
8.063375400000007,-0.9845839600000031,0.4867068299999828
7.185707600000008,-0.9143705400000032,0.44521706999998284
7.185707600000008,-0.9143705400000032,0.44521706999998284
7.3069854000000065,-1.1090532600000031,0.18989545999998284
7.428263200000006,-1.3037359800000032,-0.06542615000001716
7.549541000000005,-1.498418700000003,-0.32074776000001715
7.549541000000005,-1.498418700000003,-0.3207477600000172
7.6006053333333385,-1.52395086666667,-0.3813866566666839
7.651669666666673,-1.5494830333333365,-0.4420255533333506
7.702734000000007,-1.575015200000003,-0.5026644500000172
7.702734000000007,-1.575015200000003,-0.5026644500000171
7.61656283333334,-1.594164300000003,-0.5122390000000171
7.530391666666674,-1.613313400000003,-0.5218135500000171
7.444220500000007,-1.6324625000000028,-0.531388100000017
7.444220500000007,-1.6324625000000028,-0.531388100000017
8.937852000000007,-1.6260794666666696,-0.6781980333333504
10.431483500000006,-1.6196964333333363,-0.8250079666666837
11.925115000000005,-1.613313400000003,-0.971817900000017
11.925115000000005,-1.613313400000003,-0.971817900000017
13.488960000000006,-1.4313967666666698,-0.9367111666666837
15.052805000000006,-1.2494801333333365,-0.9016044333333504
16.616650000000007,-1.0675635000000032,-0.866497700000017
16.61665000000001,-1.0675635000000032,-0.866497700000017
15.075145666666677,-0.5633033100000032,-0.7771351333333504
13.533641333333343,-0.059043120000003224,-0.6877725666666836
11.992137000000008,0.44521706999999683,-0.5984100000000169
11.992137000000008,0.44521706999999683,-0.5984100000000169
9.968713166666676,0.26968345833333013,-0.6207506666666837
7.945289333333345,0.09414984666666348,-0.6430913333333503
5.921865500000011,-0.08138376500000317,-0.665432000000017
5.921865500000011,-0.08138376500000317,-0.665432000000017
6.975067166666677,-0.6207506766666698,-0.764369100000017
8.028268833333344,-1.1601175883333366,-0.863306200000017
9.08147050000001,-1.6994845000000034,-0.9622433000000169
9.081470500000009,-1.6994845000000034,-0.9622433000000169
8.832532000000008,-1.4218222333333366,-0.5952184933333503
8.583593500000006,-1.14415996666667,-0.22819368666668363
8.334655000000005,-0.8664977000000031,0.13883111999998302
8.334655000000005,-0.8664977000000031,0.13883111999998302
7.900608200000005,-0.7962842666666697,0.5409626466666497
7.466561400000006,-0.7260708333333364,0.9430941733333165
7.032514600000006,-0.655857400000003,1.3452256999999832
7.032514600000006,-0.655857400000003,1.3452256999999832
7.600605400000006,-0.6845810666666697,1.578206699999983
8.168696200000007,-0.7133047333333365,1.811187699999983
8.736787000000007,-0.7420284000000033,2.044168699999983
8.736787000000007,-0.7420284000000033,2.044168699999983
10.62297500000001,-1.35480026666667,1.284586889999983
12.509163000000008,-1.967572133333337,0.5250050799999829
14.395351000000007,-2.5803440000000033,-0.23457673000001714
14.395351000000005,-2.5803440000000037,-0.23457673000001714
14.87088766666667,-2.5324712000000034,-0.18670393000001714
15.346424333333337,-2.484598400000003,-0.13883113000001712
15.821961000000002,-2.4367256000000026,-0.09095833000001712
15.821961000000002,-2.436725600000002,-0.09095833000001712
13.533641333333335,-2.3569376333333354,0.23776824666664953
11.245321666666669,-2.2771496666666686,0.5664948233333161
8.957002000000005,-2.1973617000000014,0.8952213999999827
8.957002000000003,-2.1973617000000014,0.8952213999999827
8.248484333333336,-2.1175736666666682,0.5281965866666494
7.539966666666667,-2.037785633333335,0.16117177333331603
6.831448999999999,-1.9579976000000017,-0.20585304000001728
6.831448999999999,-1.9579976000000017,-0.20585304000001728
7.137834833333333,-1.983529733333335,-0.4037272933333506
7.444220666666666,-2.009061866666668,-0.601601546666684
7.7506065,-2.0345940000000016,-0.7994758000000174
7.7506065,-2.0345940000000016,-0.7994758000000174
7.989970499999999,-1.913316266666668,-0.729262366666684
8.229334499999998,-1.7920385333333346,-0.6590489333333506
8.468698499999999,-1.6707608000000012,-0.5888355000000173
8.468698499999997,-1.6707608000000012,-0.5888355000000173
8.36656983333333,-1.7154421000000013,-0.6239422100000173
8.264441166666662,-1.7601234000000012,-0.6590489200000172
8.162312499999993,-1.8048047000000011,-0.6941556300000172
8.162312499999993,-1.8048047000000011,-0.6941556300000172
9.40062233333333,-1.7505488666666678,-0.9782009200000172
10.638932166666663,-1.6962930333333344,-1.2622462100000174
11.877241999999997,-1.642037200000001,-1.5462915000000175
11.877241999999997,-1.642037200000001,-1.5462915000000172
13.166615999999998,-1.1377769866666678,-1.3133105333333506
14.455989999999998,-0.6335167733333343,-1.0803295666666837
15.745363999999997,-0.12925656000000108,-0.8473486000000169
15.745363999999997,-0.12925656000000108,-0.8473486000000167
13.980453666666664,0.23138522666666558,-0.6047930700000167
12.215543333333331,0.5920270133333322,-0.3622375400000168
10.450632999999998,0.9526687999999989,-0.11968201000001681
10.450633,0.9526687999999989,-0.11968201000001681
9.237855233333333,0.6909641366666656,-0.4739407400000168
8.025077466666668,0.42925947333333214,-0.8281994700000167
6.8122997000000005,0.1675548099999988,-1.1824582000000168
6.8122997000000005,0.16755480999999883,-1.1824582000000168
6.8122997000000005,0.16755480999999883,-1.1824582000000168
7.702734133333333,-0.6207506933333345,-1.4633120000000164
8.593168566666666,-1.4090561966666681,-1.7441658000000162
9.483602999999999,-2.1973617000000014,-2.025019600000016
8.94104433333333,-1.8016131666666684,-1.3579918673333495
8.398485666666664,-1.4058646333333351,-0.6909641346666832
7.855926999999997,-1.0101161000000018,-0.023936402000016493
7.855926999999997,-1.0101161000000018,-0.023936402000016493
7.833586333333329,-0.31117320000000176,1.2494801653333167
7.811245666666662,0.3877696999999983,2.5228967326666503
7.788904999999995,1.0867125999999985,3.7963132999999836
7.788904999999995,1.0867125999999985,3.7963132999999836
7.648478099999994,0.14202266666666516,2.8452402666666505
7.508051199999993,-0.8026672666666682,1.8941672333333173
7.367624299999991,-1.7473572000000015,0.9430941999999839
7.367624299999991,-1.7473572000000015,0.9430941999999839
9.627220533333325,-2.280341133333335,-0.03670246666668279
11.886816766666657,-2.813325066666668,-1.0164991333333495
14.14641299999999,-3.3463090000000015,-1.9962958000000162
14.14641299999999,-3.3463090000000015,-1.9962958000000157
14.404925999999989,-2.7048134000000013,-1.2845868266666824
14.663438999999988,-2.0633178000000014,-0.5728778533333493
14.921951999999985,-1.4218222000000011,0.1388311199999841
14.921951999999985,-1.4218222000000011,0.1388311199999841
13.281510666666653,-1.3196935666666676,0.34947145666665075
11.64106933333332,-1.2175649333333343,0.5601117933333174
10.000627999999987,-1.1154363000000007,0.770752129999984
10.000627999999987,-1.1154363000000007,0.770752129999984
9.659135499999989,-1.4058646333333342,0.04946855333331731
9.31764299999999,-1.6962929666666675,-0.6718150233333494
8.97615049999999,-1.986721300000001,-1.393098600000016
8.97615049999999,-1.986721300000001,-1.393098600000016
8.86763899999999,-1.970763700000001,-1.316502100000016
8.75912749999999,-1.9548061000000008,-1.2399056000000162
8.650615999999987,-1.9388485000000006,-1.1633091000000162
8.650615999999987,-1.9388485000000006,-1.1633091000000162
8.593168333333322,-1.7920385666666674,-1.0196907000000162
8.535720666666656,-1.6452286333333344,-0.8760723000000162
8.478272999999989,-1.498418700000001,-0.7324539000000163
8.478272999999989,-1.498418700000001,-0.7324539000000163
8.318696999999988,-1.5558660666666677,-0.7452199766666828
8.159120999999987,-1.6133134333333343,-0.7579860533333495
7.999544999999986,-1.670760800000001,-0.770752130000016
7.999544999999986,-1.670760800000001,-0.770752130000016
7.910182566666653,-1.8750180666666676,-0.8186249333333494
7.820820133333321,-2.0792753333333343,-0.8664977366666827
7.731457699999988,-2.283532600000001,-0.9143705400000162
7.731457699999988,-2.2835326000000014,-0.9143705400000162
8.883596466666654,-2.4526832000000014,-0.8250079766666829
10.035735233333321,-2.6218338000000014,-0.7356454133333497
11.187873999999988,-2.7909844000000015,-0.6462828500000163
11.187873999999988,-2.7909844000000015,-0.6462828500000163
12.269799333333323,-2.9537519000000017,-0.5984100500000163
13.351724666666655,-3.1165194000000014,-0.5505372500000164
14.433649999999988,-3.279286900000001,-0.5026644500000165
14.433649999999988,-3.279286900000001,-0.5026644500000165
13.259170666666655,-3.0877956666666684,-0.5058559666666831
12.084691333333323,-2.8963044333333356,-0.5090474833333497
10.910211999999989,-2.7048132000000025,-0.5122390000000164
10.910211999999989,-2.7048132000000025,-0.5122390000000164
9.713391766666655,-2.1431056666666692,-0.6239422000000164
8.516571533333321,-1.5813981333333358,-0.7356454000000164
7.3197512999999885,-1.0196906000000023,-0.8473486000000164
7.3197512999999885,-1.0196906000000023,-0.8473486000000164
8.503805199999988,-1.1313938333333358,-1.2271395000000165
9.687859099999988,-1.2430970666666692,-1.6069304000000164
10.871912999999987,-1.3548003000000026,-1.9867213000000163
10.871912999999987,-1.3548003000000026,-1.9867213000000163
10.354886666666653,-1.3516087666666694,-1.8750181000000163
9.83786033333332,-1.3484172333333362,-1.7633149000000163
9.320833999999985,-1.345225700000003,-1.6516117000000163
9.320833999999985,-1.345225700000003,-1.6516117000000163
8.746360499999987,-1.4154391666666697,-1.2558631900000163
8.17188699999999,-1.4856526333333362,-0.8601146800000162
7.59741349999999,-1.555866100000003,-0.4643661700000163
7.59741349999999,-1.555866100000003,-0.46436617000001634
7.421879899999991,-1.546291533333336,-0.4037272933333497
7.246346299999992,-1.5367169666666693,-0.34308841666668305
7.070812699999993,-1.5271424000000025,-0.2824495400000164
7.070812699999993,-1.5271424000000025,-0.28244954000001643
7.380390133333325,-1.5813982333333358,-0.13244809000001645
7.689967566666657,-1.635654066666669,0.01755335999998355
7.99954499999999,-1.689909900000002,0.16755480999998354
7.99954499999999,-1.6899099000000017,0.1675548099999836
8.414442666666657,-1.9835297666666687,0.26649192999998356
8.829340333333326,-2.277149633333335,0.36542904999998366
9.24423799999999,-2.570769500000002,0.46436616999998365
9.24423799999999,-2.570769500000002,0.46436616999998365
9.397430999999992,-2.8994960333333353,0.37819512666665034
9.550623999999994,-3.2282225666666684,0.29202408333331703
9.703816999999995,-3.556949100000002,0.20585303999998364
9.703816999999995,-3.556949100000002,0.2058530399999836
10.418717333333328,-3.5154593666666685,0.059043116666650276
11.13361766666666,-3.473969633333335,-0.08776680666668306
11.848517999999993,-3.432479900000002,-0.23457673000001641
11.848517999999993,-3.432479900000002,-0.23457673000001641
11.902773999999994,-3.627162600000002,-0.41649337333334974
11.957029999999994,-3.821845300000002,-0.598410016666683
12.011285999999993,-4.016528000000002,-0.7803266600000164
12.011285999999993,-4.016528000000002,-0.7803266600000164
11.484684999999994,-3.633545666666669,-0.9718178733333497
10.958083999999994,-3.2505633333333357,-1.1633090866666829
10.431482999999995,-2.8675810000000026,-1.3548003000000162
10.431482999999995,-2.8675810000000026,-1.3548003000000162
9.691050666666662,-2.727154100000003,-1.396290066666683
8.95061833333333,-2.5867272000000026,-1.4377798333333498
8.210185999999995,-2.4463003000000025,-1.4792696000000165
8.210185999999995,-2.446300300000002,-1.4792696000000165
7.744223899999995,-2.206936266666669,-1.332459666666683
7.278261799999996,-1.9675722333333356,-1.1856497333333496
6.812299699999996,-1.7282082000000025,-1.038839800000016
6.812299699999996,-1.7282082000000025,-1.038839800000016
7.195282133333329,-1.776080966666669,-1.2079903666666827
7.578264566666662,-1.8239537333333358,-1.3771409333333497
7.961246999999996,-1.8718265000000025,-1.5462915000000166
7.961246999999996,-1.8718265000000025,-1.5462915000000166
8.637849333333328,-1.9707636666666692,-1.6101219000000164
9.314451666666661,-2.069700833333336,-1.6739523000000165
9.991053999999993,-2.1686380000000027,-1.7377827000000163
9.991053999999993,-2.168638000000003,-1.7377827000000163
10.868721999999993,-1.8494859666666699,-1.5367169333333497
11.746389999999993,-1.5303339333333366,-1.3356511666666833
12.624057999999993,-1.211181900000003,-1.1345854000000164
12.624057999999993,-1.2111819000000033,-1.1345854000000166
13.05810466666666,-1.1122447800000035,-1.0356482800000169
13.492151333333327,-1.0133076600000035,-0.936711160000017
13.926197999999994,-0.9143705400000037,-0.8377740400000171
13.926197999999994,-0.9143705400000037,-0.8377740400000171
12.03043533333333,-0.9909670266666705,-0.3494714600000171
10.134672666666665,-1.0675635133333372,0.13883111999998285
8.238909999999999,-1.1441600000000038,0.6271336999999828
8.23891,-1.1441600000000038,0.6271336999999827
9.317643666666667,-1.2877784000000039,0.19627846666664941
10.396377333333335,-1.4313968000000037,-0.2345767666666839
11.475111000000004,-1.5750152000000037,-0.6654320000000172
11.475111000000004,-1.5750152000000037,-0.6654320000000172
11.076171000000002,-1.3260766333333371,-0.3941527700000172
10.677231,-1.0771380666666703,-0.12287354000001723
10.278291000000001,-0.8281995000000038,0.1484056899999828
10.278291,-0.8281995000000038,0.1484056899999828
9.521900666666665,-0.7771351666666703,0.2984071266666494
8.765510333333333,-0.7260708333333369,0.44840856333331613
8.00912,-0.6750065000000034,0.5984099999999828
8.647423999999999,-0.9430942000000034,0.3047901533333161
9.285728,-1.2111819000000035,0.011170306666649457
9.924032,-1.4792696000000032,-0.2824495400000172
9.924032,-1.4792696000000032,-0.28244954000001715
9.924032,-1.4792696000000032,-0.28244954000001715
11.222980666666666,-1.383524000000003,-0.24734281666668387
12.521929333333333,-1.287778400000003,-0.21223609333335056
13.820877999999999,-1.1920328000000027,-0.17712937000001724
13.836835666666666,-1.1473515000000025,-0.03351096000001722
13.85279333333333,-1.1026702000000026,0.11010744999998279
13.868750999999996,-1.0579889000000027,0.2537258599999828
13.868750999999994,-1.0579889000000027,0.2537258599999828
12.394268666666662,-1.2590546666666695,0.24415129666664948
10.91978633333333,-1.4601204333333364,0.2345767333333161
9.445303999999997,-1.6611862000000033,0.22500216999998277
9.445303999999995,-1.6611862000000033,0.22500216999998277
9.324026166666663,-1.7154420333333364,-0.1388311200000172
9.20274833333333,-1.7696978666666696,-0.5026644100000172
9.081470499999996,-1.8239537000000026,-0.8664977000000172
9.081470499999996,-1.8239537000000026,-0.8664977000000172
9.174024666666662,-1.7473572666666692,-1.1122447666666837
9.266578833333329,-1.670760833333336,-1.3579918333333503
9.359132999999995,-1.5941644000000024,-1.6037389000000168
9.359132999999995,-1.5941644000000021,-1.6037389000000168
9.135726333333329,-1.5431000666666688,-1.447354400000017
8.912319666666662,-1.4920357333333356,-1.290969900000017
8.688912999999994,-1.4409714000000022,-1.1345854000000168
8.688912999999994,-1.4409714000000022,-1.1345854000000168
8.596358999999994,-1.488844166666669,-1.1728836333333506
8.503804999999995,-1.5367169333333355,-1.211181866666684
8.411250999999995,-1.5845897000000022,-1.2494801000000175
8.411250999999995,-1.5845897000000022,-1.2494801000000175
9.633603333333328,-1.195224266666669,-1.3611833000000173
10.855955666666661,-0.8058588333333355,-1.472886500000017
12.078307999999994,-0.4164934000000022,-1.5845897000000166
12.078307999999994,-0.4164934000000022,-1.5845897000000164
12.770867999999995,-0.046277056666668814,-1.322885066666683
13.463427999999995,0.32393928666666455,-1.0611804333333497
14.155987999999995,0.6941556299999979,-0.7994758000000165
14.155987999999995,0.6941556299999979,-0.7994758000000165
12.442141666666663,0.9079874866666646,-0.7005386833333498
10.728295333333328,1.1218193433333312,-0.6016015666666831
9.014448999999994,1.335651199999998,-0.5026644500000165
9.014448999999994,1.335651199999998,-0.5026644500000165
8.526146333333328,1.035648299999998,-0.681389566666683
8.03784366666666,0.735645399999998,-0.8601146833333496
7.549540999999993,0.43564249999999816,-1.038839800000016
8.23571766666666,-0.24415130000000182,-1.0547974000000162
8.921894333333329,-0.9239451000000019,-1.0707550000000163
9.608070999999997,-1.6037389000000017,-1.0867126000000165
9.608070999999997,-1.6037389000000017,-1.0867126000000165
9.400622333333331,-1.109053270000002,-0.42606793333334986
9.193173666666665,-0.6143676400000019,0.23457673333331683
8.985724999999997,-0.11968201000000193,0.8952213999999835
8.985724999999997,-0.11968201000000193,0.8952213999999835
8.810191666666663,-0.07978800666666859,1.3579917999999838
8.634658333333329,-0.03989400333333526,1.820762199999984
8.459124999999995,0.0,2.283532599999984
8.459124999999995,0.0,2.283532599999984
9.084662666666661,-0.46436620000000195,1.801613079999984
9.710200333333328,-0.928732400000002,1.3196935599999842
10.335737999999994,-1.3930986000000019,0.8377740399999842
10.335737999999994,-1.3930986000000019,0.8377740399999842
11.781496666666662,-1.7952301666666683,0.569686346666651
13.22725533333333,-2.197361733333335,0.30159865333331765
14.673013999999997,-2.599493300000002,0.03351095999998429
14.673013999999997,-2.599493300000002,0.03351095999998429
14.251733333333329,-2.676089700000002,0.295215606666651
13.83045266666666,-2.752686100000002,0.5569202533333176
13.409171999999993,-2.8292825000000015,0.8186248999999842
13.409171999999993,-2.8292825000000015,0.8186248999999842
11.832560999999993,-2.513322066666668,0.7643690666666508
10.255949999999993,-2.197361633333335,0.7101132333333174
8.679338999999993,-1.881401200000002,0.655857399999984
8.679338999999993,-1.881401200000002,0.655857399999984
8.513379999999993,-1.804804700000002,0.33670537666665074
8.347420999999992,-1.728208200000002,0.017553353333317385
8.181461999999991,-1.6516117000000021,-0.30159867000001594
8.181461999999991,-1.6516117000000021,-0.30159867000001594
8.181461999999991,-1.6516117000000021,-0.30159867000001594
8.136780666666656,-1.7090590333333353,-0.4516001133333493
8.092099333333321,-1.7665063666666685,-0.6016015566666827
8.047417999999988,-1.8239537000000017,-0.7516030000000159
7.935714799999988,-1.664377700000002,-0.719687800000016
7.824011599999989,-1.5048017000000022,-0.687772600000016
7.712308399999991,-1.3452257000000023,-0.655857400000016
7.712308399999991,-1.3452257000000023,-0.655857400000016
8.302739933333324,-1.3899070000000024,-0.7260708333333494
8.893171466666656,-1.4345883000000024,-0.7962842666666828
9.48360299999999,-1.4792696000000023,-0.8664977000000161
9.483602999999988,-1.4792696000000023,-0.8664977000000161
9.483602999999988,-1.4792696000000023,-0.8664977000000161
10.852764666666653,-1.1313939000000024,-0.8888383533333495
12.22192633333332,-0.7835182000000023,-0.9111790066666828
13.591087999999985,-0.4356425000000023,-0.9335196600000161
13.712365999999983,0.10053286666666437,-0.7133047666666829
13.833643999999984,0.636708233333331,-0.4930898733333495
13.954921999999982,1.1728835999999978,-0.27287498000001625
13.954921999999982,1.1728835999999976,-0.27287498000001625
11.84213566666665,0.9973500166666643,-0.400535786666683
9.729349333333316,0.821816433333331,-0.5281965933333496
7.616562999999984,0.6462828499999976,-0.6558574000000162
7.616562999999984,0.6462828499999976,-0.6558574000000162
8.165504666666651,0.16436329999999755,-0.9877755000000161
8.714446333333319,-0.3175562500000025,-1.3196936000000161
9.263387999999985,-0.7994758000000024,-1.651611700000016
9.263387999999985,-0.7994758000000024,-1.651611700000016
9.387856999999984,-1.1984158000000023,-1.421822233333349
9.512325999999986,-1.5973558000000023,-1.1920327666666823
9.636794999999985,-1.9962958000000022,-0.9622433000000156
9.636794999999985,-1.9962958000000022,-0.9622433000000156
9.113385666666652,-1.4537373900000023,-0.08138373333334896
8.589976333333318,-0.9111789800000024,0.7994758333333176
8.066566999999985,-0.3686205700000024,1.6803353999999844
8.066566999999985,-0.3686205700000024,1.6803353999999844
7.852735233333319,-0.4260679266666691,1.7856555333333175
7.638903466666652,-0.48351528333333577,1.8909756666666508
7.425071699999986,-0.5409626400000024,1.9962957999999842
7.425071699999986,-0.5409626400000024,1.9962957999999837
9.16445013333332,-0.770752126666669,1.645228599999984
10.903828566666652,-1.0005416133333356,1.294161399999984
12.643206999999984,-1.2303311000000023,0.9430941999999839
12.643206999999984,-1.2303311000000023,0.9430941999999839
13.476193666666651,-1.3516088666666688,0.9686263333333173
14.309180333333316,-1.4728866333333352,0.9941584666666504
15.142166999999981,-1.594164400000002,1.0196905999999837
15.142166999999981,-1.5941644000000015,1.0196905999999837
14.076199333333316,-1.626079566666668,1.099478633333317
13.01023166666665,-1.6579947333333347,1.1792666666666507
11.944263999999984,-1.689909900000001,1.259054699999984
11.944263999999984,-1.689909900000001,1.259054699999984
10.763401666666653,-1.7888470333333348,0.8186249186666507
9.582539333333319,-1.8877841666666686,0.3781951373333173
8.401676999999987,-1.9867213000000021,-0.062234644000016104
8.430400666666655,-1.9452315333333354,-0.1994700060000161
8.459124333333321,-1.9037417666666687,-0.33670536800001605
8.487847999999987,-1.8622520000000018,-0.473940730000016
8.487847999999987,-1.8622520000000018,-0.473940730000016
8.487847999999987,-1.8622520000000018,-0.473940730000016
8.299548333333322,-1.7696979000000017,-0.5409626533333494
8.111248666666656,-1.677143800000002,-0.6079845766666827
7.922948999999991,-1.5845897000000022,-0.6750065000000162
7.81762879999999,-1.4409713333333354,-0.687772586666683
7.7123085999999885,-1.2973529666666688,-0.7005386733333497
7.606988399999987,-1.1537346000000022,-0.7133047600000165
7.606988399999987,-1.1537346000000024,-0.7133047600000166
8.08252493333332,-1.2686293000000024,-1.00054157333335
8.558061466666652,-1.3835240000000024,-1.2877783866666836
9.033597999999985,-1.4984187000000027,-1.575015200000017
9.033597999999985,-1.4984187000000027,-1.575015200000017
9.033597999999985,-1.4984187000000027,-1.575015200000017
10.737869666666654,-1.2877783666666691,-1.651611700000017
12.442141333333323,-1.0771380333333358,-1.728208200000017
14.14641299999999,-0.8664977000000024,-1.804804700000017
13.983645666666655,-0.41649336666666903,-1.2782038566666836
13.82087833333332,0.033510966666664276,-0.7516030133333501
13.658110999999986,0.4835152999999976,-0.22500217000001665
13.658110999999986,0.4835152999999976,-0.22500217000001665
11.596388766666655,0.7069217333333309,-0.1515972066666833
9.534666533333322,0.9303281666666643,-0.07819224333334997
7.47294429999999,1.1537345999999977,-0.00478728000001664
7.47294429999999,1.153734599999998,-0.004787280000016639
7.47294429999999,1.153734599999998,-0.004787280000016639
8.32508019999999,0.5664948666666645,-0.28883257333335
9.177216099999988,-0.020744866666668898,-0.5728778666666834
10.029351999999987,-0.6079846000000023,-0.8569231600000168
10.029351999999985,-0.6079846000000023,-0.8569231600000168
9.847435666666652,-0.8952214000000023,-0.7611775566666834
9.665519333333318,-1.1824582000000021,-0.66543195333335
9.483602999999984,-1.4696950000000022,-0.5696863500000168
8.803808833333315,-1.1505430000000023,0.0303194666666499
8.124014666666648,-0.8313910000000023,0.6303252833333165
7.4442204999999815,-0.5122390000000024,1.2303310999999832
7.4442204999999815,-0.5122390000000023,1.2303310999999832
7.4442204999999815,-0.5122390000000023,1.2303310999999832
7.5367746666666475,-0.6909641000000022,1.2303310999999832
7.629328833333314,-0.8696892000000022,1.2303310999999832
7.72188299999998,-1.0484143000000021,1.2303310999999832
7.72188299999998,-1.0484143000000021,1.2303310999999832
9.266578666666646,-1.1186277666666689,1.0324568199999833
10.811274333333314,-1.1888412333333356,0.8345825399999832
12.35596999999998,-1.259054700000002,0.6367082599999833
13.501725999999982,-1.5431000000000024,0.4867068199999833
14.647481999999982,-1.8271453000000024,0.33670537999998323
15.793237999999983,-2.1111906000000027,0.18670393999998317
15.793237999999983,-2.1111906000000027,0.18670393999998317
15.793237999999983,-2.1111906000000027,0.18670393999998317
14.676205999999985,-2.1399143000000027,0.2377682599999832
13.559173999999985,-2.1686380000000027,0.2888325799999832
12.442141999999984,-2.1973617000000023,0.3398968999999831
12.442141999999984,-2.1973617000000023,0.3398968999999831
10.871913899999987,-2.184595566666669,0.33032233333331645
9.301685799999985,-2.1718294333333357,0.3207477666666498
7.731457699999987,-2.159063300000002,0.3111731999999831
8.025077466666653,-2.015444933333336,0.12925655666664976
8.31869723333332,-1.871826566666669,-0.05266008666668357
8.612316999999985,-1.728208200000002,-0.23457673000001691
8.612316999999985,-1.728208200000002,-0.23457673000001691
8.612316999999985,-1.728208200000002,-0.23457673000001691
8.341037866666653,-1.5526745666666688,-0.32713082000001686
8.069758733333321,-1.3771409333333355,-0.41968491000001684
7.798479599999989,-1.201607300000002,-0.5122390000000169
7.798479599999989,-1.201607300000002,-0.5122390000000169
7.744223733333321,-1.0643719533333353,-0.5218135466666834
7.689967866666653,-0.9271366066666687,-0.5313880933333501
7.6357119999999865,-0.789901260000002,-0.5409626400000168
7.6357119999999865,-0.789901260000002,-0.5409626400000168
7.900608333333319,-0.9622433066666688,-0.8250079600000167
8.165504666666655,-1.1345853533333352,-1.1090532800000168
8.43040099999999,-1.3069274000000017,-1.3930986000000167
8.430400999999991,-1.3069274000000017,-1.3930986000000167
9.515517666666657,-1.4345882333333349,-1.32288513333335
10.600634333333323,-1.562249066666668,-1.2526716666666833
11.685750999999991,-1.6899099000000009,-1.1824582000000168
11.685750999999991,-1.6899099000000006,-1.1824582000000168
12.943209999999993,-1.5303339000000005,-0.9590518000000167
14.200668999999996,-1.3707579000000003,-0.7356454000000167
15.458127999999997,-1.2111819000000004,-0.5122390000000168
15.458127999999997,-1.2111819000000006,-0.5122390000000167
13.94534733333333,-0.6686234666666673,-0.2601089000000167
12.432566666666665,-0.12606503333333396,-0.007978800000016717
10.919785999999997,0.41649339999999935,0.24415129999998328
9.745306666666664,0.03670249999999934,0.20266153666664996
8.570827333333332,-0.3430884000000007,0.16117177333331664
7.396347999999999,-0.7228793000000007,0.11968200999998331
7.396347999999999,-0.7228793000000007,0.11968200999998331
7.396347999999999,-0.7228793000000007,0.11968200999998331
8.098482333333331,-1.3835239333333342,-0.3143647266666833
8.800616666666667,-2.044168566666668,-0.74841146333335
9.502751,-2.7048132000000007,-1.1824582000000168
9.282536333333335,-2.337788433333334,-0.6973471400000166
9.062321666666667,-1.9707636666666672,-0.21223608000001662
8.842107000000002,-1.6037389000000004,0.27287497999998334
8.842107000000004,-1.6037389000000004,0.27287497999998334
8.22614346666667,-1.4282053000000003,0.7739436533333167
7.610179933333337,-1.2526717000000005,1.2750123266666498
6.9942164000000036,-1.0771381000000007,1.7760809999999834
6.9942164000000036,-1.0771381000000007,1.7760809999999836
7.342092266666671,-1.2845869000000005,1.5782067333333167
7.689968133333338,-1.4920357000000004,1.38033246666665
8.037844000000005,-1.6994845000000003,1.1824581999999835
8.037844000000005,-1.6994844999999998,1.1824581999999833
9.435729666666672,-1.7505488333333332,1.1888412333333165
10.83361533333334,-1.8016131666666666,1.19522426666665
12.231501000000007,-1.8526774999999998,1.2016072999999832
13.265553333333338,-1.922890933333333,1.0803295466666498
14.299605666666672,-1.9931043666666663,0.9590517933333166
15.333658000000005,-2.0633177999999996,0.8377740399999833
15.333658000000005,-2.0633177999999996,0.8377740399999833
15.036847000000003,-2.1526803333333326,0.5218135453333167
14.740036000000003,-2.2420428666666656,0.20585305066664997
14.443225000000004,-2.331405399999999,-0.11010744400001671
14.443225000000004,-2.331405399999999,-0.11010744400001671
12.39426866666667,-2.423959499999999,-0.1292565660000167
10.34531233333334,-2.5165135999999997,-0.14840568800001672
8.296356000000008,-2.6090677,-0.16755481000001674
8.296356000000008,-2.6090677,-0.16755481000001674
8.714445333333341,-1.9867212666666667,-0.2633004200000168
9.132534666666674,-1.3643748333333334,-0.35904603000001684
9.550624000000004,-0.7420283999999998,-0.4547916400000169
9.550624000000004,-0.7420283999999998,-0.4547916400000169
9.33998366666667,-0.8760722666666664,-0.5601118033333502
9.129343333333338,-1.010116133333333,-0.6654319666666834
8.918703000000006,-1.1441599999999996,-0.7707521300000169
8.918703000000006,-1.1441599999999994,-0.7707521300000169
8.392102200000005,-1.1696921333333323,-0.8122418866666835
7.8655014000000065,-1.1952242666666655,-0.8537316433333503
7.338900600000006,-1.2207563999999989,-0.8952214000000169
7.338900600000006,-1.2207563999999989,-0.8952214000000169
6.8857047333333385,-1.4154391666666661,-1.0005415666666837
6.432508866666672,-1.610121933333333,-1.1058617333333502
5.979313000000005,-1.8048047,-1.211181900000017
5.979313000000005,-1.8048047,-1.2111819000000172
5.979313000000005,-1.8048047,-1.2111819000000172
6.786767666666672,-1.5271424333333332,-1.1856497333333504
7.594222333333339,-1.2494801666666664,-1.1601175666666839
8.401677000000007,-0.9718178999999996,-1.1345854000000173
9.914457666666673,-0.8409655666666662,-0.9494772333333504
11.42723833333334,-0.7101132333333329,-0.7643690666666837
12.940019000000007,-0.5792608999999995,-0.5792609000000171
12.940019000000007,-0.5792608999999995,-0.5792609000000172
13.744282000000005,-0.7707521333333328,-0.4356424966666837
14.548545000000006,-0.9622433666666663,-0.29202409333335033
15.352808000000008,-1.1537345999999997,-0.148405690000017
15.35280800000001,-1.1537346,-0.148405690000017
14.210243666666676,-1.3994816333333333,-0.011170320000016989
13.06767933333334,-1.645228666666667,0.126065049999983
11.925115000000005,-1.8909757000000003,0.263300419999983
11.925115000000005,-1.8909757000000003,0.26330041999998294
10.71233733333334,-1.7250166666666669,0.5792609133333163
9.499559666666675,-1.5590576333333335,0.8952214066666496
8.28678200000001,-1.3930986,1.2111818999999828
8.28678200000001,-1.3930986,1.2111818999999828
8.998491000000008,-1.1377769666666666,1.2399055666666496
9.710200000000007,-0.8824553333333333,1.2686292333333162
10.421909000000007,-0.6271336999999999,1.297352899999983
10.421909000000007,-0.6271336999999999,1.297352899999983
10.010202666666673,-0.5601117833333333,1.30692746666665
9.598496333333342,-0.49308986666666677,1.3165020333333166
9.18679000000001,-0.42606795000000014,1.3260765999999835
8.561252333333343,-0.6941556666666667,1.19522428666665
7.9357146666666765,-0.9622433833333334,1.0643719733333166
7.31017700000001,-1.2303311,0.9335196599999831
7.31017700000001,-1.2303311,0.9335196599999831
7.080387533333343,-1.3548003666666666,0.8058588399999831
6.850598066666676,-1.479269633333333,0.6781980199999831
6.62080860000001,-1.6037388999999997,0.5505371999999831
6.620808600000011,-1.6037388999999997,0.5505371999999831
7.555924066666679,-1.4250137666666667,0.6175591333333165
8.491039533333348,-1.2462886333333334,0.68458106666665
9.426155000000016,-1.0675635000000003,0.7516029999999834
9.426155000000016,-1.0675635000000003,0.7516029999999834
10.674039000000015,-1.0005415666666668,0.7771351666666501
11.921923000000014,-0.9335196333333334,0.8026673333333166
13.169807000000013,-0.8664977,0.8281994999999833
13.169807000000013,-0.8664977,0.8281994999999833
13.06448716666668,-0.9590518000000001,0.8601146899999833
12.959167333333347,-1.0516059000000002,0.8920298799999834
12.853847500000015,-1.1441600000000003,0.9239450699999834
12.853847500000015,-1.1441600000000003,0.9239450699999834
12.040009666666682,-1.485652666666667,0.9399026799999834
11.226171833333348,-1.8271453333333338,0.9558602899999835
10.412334000000016,-2.1686380000000005,0.9718178999999836
10.412334000000016,-2.168638000000001,0.9718178999999836
10.310205333333348,-2.2165107666666675,0.566494833333317
10.20807666666668,-2.264383533333334,0.16117176666665026
10.105948000000012,-2.312256300000001,-0.2441513000000164
10.105948000000012,-2.312256300000001,-0.2441513000000164
10.054884000000014,-2.175020933333334,-0.512238966666683
10.003820000000013,-2.0377855666666673,-0.7803266333333497
9.952756000000015,-1.9005502000000007,-1.0484143000000163
9.952756000000015,-1.9005502000000007,-1.0484143000000161
9.780413666666682,-1.951614500000001,-1.4122476333333494
9.60807133333335,-2.0026788000000013,-1.7760809666666828
9.435729000000016,-2.0537431000000015,-2.139914300000016
9.435729000000018,-2.0537431000000015,-2.139914300000016
9.027214666666683,-2.117573566666668,-2.3505546333333496
8.618700333333349,-2.181404033333335,-2.5611949666666827
8.210186000000016,-2.245234500000002,-2.7718353000000158
8.210186000000014,-2.245234500000002,-2.7718353000000158
8.07933346666668,-2.1494888666666685,-2.838857200000016
7.948480933333346,-2.053743233333335,-2.9058791000000164
7.817628400000012,-1.9579976000000017,-2.9729010000000167
7.817628400000012,-1.9579976000000017,-2.9729010000000167
7.951672266666679,-1.7984216000000017,-2.7016217666666833
8.085716133333346,-1.6388456000000016,-2.43034253333335
8.219760000000013,-1.4792696000000014,-2.159063300000016
8.219760000000015,-1.4792696000000014,-2.159063300000016
8.43678366666668,-1.4984187000000013,-1.9133162666666828
8.653807333333345,-1.5175678000000012,-1.6675692333333494
8.87083100000001,-1.5367169000000012,-1.421822200000016
8.87083100000001,-1.5367169000000012,-1.421822200000016
9.142110000000011,-1.6037388333333347,-1.1728836333333492
9.413389000000015,-1.6707607666666682,-0.9239450666666826
9.684668000000016,-1.7377827000000015,-0.6750065000000159
10.389994000000016,-1.6324625333333351,-0.6016015466666826
11.095320000000015,-1.5271423666666688,-0.5281965933333493
11.800646000000015,-1.4218222000000023,-0.454791640000016
11.800646000000015,-1.4218222000000023,-0.454791640000016
11.800646000000015,-1.4218222000000023,-0.454791640000016
11.778305166666682,-1.5016102000000024,-0.27606650500001595
11.755964333333347,-1.5813982000000024,-0.09734137000001596
11.733623500000014,-1.6611862000000024,0.08138376499998405
11.733623500000014,-1.6611862000000024,0.08138376499998405
11.018723166666682,-1.8303368000000022,0.11649048999998406
10.30382283333335,-1.9994874000000022,0.15159721499998405
9.588922500000017,-2.1686380000000023,0.18670393999998405
10.137863666666682,-2.2292769000000026,-0.07500070666668261
10.686804833333348,-2.289915800000003,-0.3367053533333493
11.235746000000013,-2.350554700000003,-0.598410000000016
11.235746000000013,-2.350554700000003,-0.598410000000016
11.235746000000013,-2.350554700000003,-0.598410000000016
10.565527000000015,-1.9452316000000032,-0.28244951666668267
9.895308000000016,-1.5399085000000028,0.033510966666650654
9.225089000000018,-1.1345854000000026,0.349471449999984
9.22508900000002,-1.1345854000000026,0.349471449999984
8.679339000000018,-1.1601175666666694,0.4069188333333173
8.133589000000018,-1.185649733333336,0.4643662166666506
7.5878390000000175,-1.2111819000000026,0.5218135999999839
7.5878390000000175,-1.2111819000000026,0.521813599999984
7.801671000000019,-1.4633120000000028,0.295215649999984
8.01550300000002,-1.715442100000003,0.06861769999998397
8.229335000000022,-1.967572200000003,-0.157980250000016
8.229335000000022,-1.967572200000003,-0.157980250000016
8.867639000000024,-1.89735876666667,0.011170316666650656
9.505943000000023,-1.8271453333333367,0.18032088333331733
10.144247000000023,-1.7569319000000034,0.34947144999998403
10.144247000000023,-1.7569319000000039,0.34947144999998403
11.060213333333358,-1.8782096666666703,0.20585304499998403
11.976179666666694,-1.9994874333333368,0.06223463999998402
12.892146000000027,-2.120765200000004,-0.08138376500001598
12.89214600000003,-2.1207652000000037,-0.08138376500001598
12.576185333333365,-2.3026818000000033,-0.2409597633333493
12.260224666666701,-2.4845984000000034,-0.40053576166668264
11.944264000000038,-2.666515000000003,-0.560111760000016
11.944264000000038,-2.6665150000000026,-0.560111760000016
11.727240666666702,-2.468640800000003,-1.0196906733333495
11.510217333333367,-2.270766600000003,-1.4792695866666827
11.293194000000033,-2.072892400000003,-1.938848500000016
11.293194000000033,-2.072892400000003,-1.938848500000016
10.319780333333368,-2.184595600000003,-1.9324654333333493
9.346366666666702,-2.2962988000000024,-1.9260823666666829
8.372953000000036,-2.408002000000002,-1.9196993000000164
8.372953000000036,-2.408002000000002,-1.9196993000000167
7.964438466666702,-2.009061966666669,-1.6069303466666838
7.555923933333368,-1.6101219333333354,-1.2941613933333505
7.147409400000034,-1.211181900000002,-0.9813924400000172
7.147409400000034,-1.2111819000000021,-0.9813924400000172
7.147409400000034,-1.2111819000000021,-0.9813924400000172
7.935714933333368,-1.3962900666666689,-1.2016073600000172
8.724020466666701,-1.5813982333333356,-1.4218222800000173
9.512326000000035,-1.7665064000000024,-1.6420372000000174
10.284674000000033,-1.7952301000000022,-1.6260796000000175
11.057022000000032,-1.823953800000002,-1.6101220000000174
11.829370000000031,-1.852677500000002,-1.5941644000000172
11.829370000000031,-1.8526775000000015,-1.594164400000017
12.464482333333365,-1.2047988900000015,-1.265437800000017
13.099594666666698,-0.5569202800000016,-0.9367112000000168
13.734707000000034,0.09095832999999846,-0.6079846000000169
13.734707000000034,0.09095832999999846,-0.6079846000000169
13.734707000000034,0.09095832999999846,-0.6079846000000169
14.130455333333366,0.3303223533333318,-0.7579860333333501
14.526203666666698,0.5696863766666651,-0.9079874666666834
14.921952000000031,0.8090503999999985,-1.0579889000000167
12.936826666666697,0.7675606333333319,-0.8026673000000167
10.951701333333363,0.7260708666666652,-0.5473457000000167
8.96657600000003,0.6845810999999986,-0.2920241000000167
8.966576000000028,0.6845810999999986,-0.2920241000000167
9.13253500000003,0.6558573999999986,-0.4324509866666834
9.29849400000003,0.6271336999999986,-0.57287787333335
9.46445300000003,0.5984099999999986,-0.7133047600000166
9.464453000000033,0.5984099999999986,-0.7133047600000166
9.464453000000033,0.5984099999999986,-0.7133047600000166
9.582539000000033,0.537771133333332,-0.5409626666666834
9.700625000000032,0.4771322666666653,-0.36862057333335
9.818711000000034,0.4164933999999986,-0.19627848000001666
8.797424766666701,0.23457674666666528,0.14840569333331669
7.776138533333369,0.05266009333333196,0.49308986666664995
6.754852300000035,-0.12925656000000138,0.8377740399999833
6.754852300000035,-0.12925656000000138,0.8377740399999833
6.8665555333333685,-0.3973442600000014,0.7643690699999833
6.978258766666702,-0.6654319600000015,0.6909640999999832
7.089962000000035,-0.9335196600000014,0.6175591299999833
7.089962000000035,-0.9335196600000014,0.6175591299999832
8.14635533333337,-0.9877754733333348,0.5664948099999831
9.202748666666702,-1.042031286666668,0.5154304899999831
10.259142000000034,-1.0962871000000014,0.46436616999998304
10.259142000000034,-1.0962871000000012,0.46436616999998304
10.259142000000034,-1.0962871000000012,0.46436616999998304
11.433621000000036,-1.0771380000000013,0.5505372133333163
12.608100000000036,-1.0579889000000013,0.6367082566666497
13.782579000000036,-1.0388398000000014,0.7228792999999829
14.066624666666703,-1.1409684333333348,0.6558573999999828
14.350670333333369,-1.2430970666666683,0.5888354999999829
14.634716000000035,-1.3452257000000019,0.5218135999999828
14.634716000000035,-1.3452257000000019,0.5218135999999828
13.14108433333337,-1.6388455333333354,0.4260679766666495
11.647452666666704,-1.9324653666666685,0.3303223533333161
10.153821000000038,-2.2260852000000018,0.23457672999998272
10.153821000000038,-2.2260852000000018,0.23457672999998272
10.153821000000038,-2.2260852000000018,0.23457672999998272
9.604879666666704,-1.9165077666666683,-0.02712791333335059
9.055938333333371,-1.6069303333333351,-0.2888325566666839
8.506997000000036,-1.2973529000000015,-0.5505372000000173
8.545295333333371,-1.2750123000000013,-0.7867097000000173
8.583593666666706,-1.2526717000000014,-1.0228822000000173
8.62189200000004,-1.2303311000000015,-1.2590547000000176
8.621892000000042,-1.2303311000000015,-1.2590547000000176
8.449549666666709,-1.2335226000000015,-1.140968446666684
8.277207333333376,-1.2367141000000015,-1.0228821933333505
8.104865000000043,-1.2399056000000017,-0.9047959400000173
8.104865000000043,-1.2399056000000017,-0.9047959400000173
8.104865000000043,-1.2399056000000017,-0.9047959400000173
7.763372533333375,-1.3356512000000016,-0.8537316266666838
7.421880066666708,-1.4313968000000015,-0.8026673133333504
7.080387600000041,-1.5271424000000013,-0.751603000000017
7.080387600000041,-1.5271424000000013,-0.7516030000000168
7.750606733333374,-1.5335254333333348,-1.0547974000000169
8.420825866666707,-1.5399084666666683,-1.3579918000000168
9.09104500000004,-1.5462915000000015,-1.661186200000017
10.587868000000041,-1.010116118666668,-1.4601204333333502
12.084691000000042,-0.47394073733333464,-1.2590546666666833
13.581514000000043,0.062234643999998784,-1.0579889000000164
13.581514000000046,0.062234643999998784,-1.0579889000000164
13.581514000000046,0.062234643999998784,-1.0579889000000164
14.02832666666671,0.12287352933333211,-0.8601146566666831
14.475139333333374,0.18351241466666543,-0.6622404133333497
14.921952000000038,0.24415129999999874,-0.4643661700000164
14.921952000000038,0.24415129999999874,-0.4643661700000165
13.035764000000038,-0.05266008333333458,-0.1867039233333498
11.149576000000039,-0.3494714666666679,0.09095832333331687
9.26338800000004,-0.6462828500000012,0.36862056999998355
9.183599666666707,-0.6590489333333346,0.3462799366666502
9.103811333333374,-0.671815016666668,0.32393930333331683
9.02402300000004,-0.6845811000000013,0.30159866999998347
9.02402300000004,-0.6845811000000013,0.30159866999998347
9.02402300000004,-0.6845811000000013,0.30159866999998347
9.359132666666705,-0.8186249333333345,0.4101103466666501
9.694242333333372,-0.952668766666668,0.5186220233333168
10.02935200000004,-1.0867126000000014,0.6271336999999834
10.029352000000042,-1.0867126000000014,0.6271336999999834
9.043172233333376,-1.0547974133333347,0.9622432999999834
8.05699246666671,-1.022882226666668,1.2973528999999833
7.070812700000044,-0.9909670400000014,1.6324624999999833
7.12506866666671,-1.1696921600000012,1.44735436666665
7.179324633333376,-1.3484172800000012,1.2622462333333166
7.233580600000042,-1.527142400000001,1.0771380999999833
7.233580600000042,-1.527142400000001,1.0771380999999833
7.233580600000042,-1.527142400000001,1.0771380999999833
8.53891206666671,-1.472886566666668,0.8856468833333168
9.844243533333378,-1.4186307333333348,0.6941556666666502
11.149575000000047,-1.3643749000000016,0.5026644499999835
11.149575000000047,-1.364374900000002,0.5026644499999834
12.416608666666713,-1.4409714000000022,0.41649339999998336
13.683642333333381,-1.5175679000000024,0.33032234999998333
14.95067600000005,-1.5941644000000028,0.24415129999998333
14.95067600000005,-1.5941644000000028,0.24415129999998333
14.226201000000048,-1.6707608333333361,0.28883257999998335
13.501726000000048,-1.7473572666666695,0.33351385999998334
12.777251000000048,-1.823953700000003,0.3781951399999833
12.777251000000048,-1.823953700000003,0.3781951399999833
11.36021600000005,-1.8973587000000032,0.25691737366664996
9.94318100000005,-1.9707637000000033,0.13563960733331662
8.526146000000052,-2.0441687000000033,0.014361840999983297
8.526146000000052,-2.0441687000000037,0.014361840999983297
8.484656333333387,-1.9675722000000038,-0.06542616266668337
8.443166666666722,-1.8909757000000038,-0.14521416633335002
8.401677000000054,-1.8143792000000039,-0.22500217000001668
8.401677000000056,-1.8143792000000039,-0.22500217000001668
8.337846666666723,-1.709059033333337,-0.26968344666668337
8.27401633333339,-1.6037388666666705,-0.31436472333335
8.210186000000057,-1.4984187000000038,-0.3590460000000167
8.210186000000057,-1.4984187000000038,-0.3590460000000167
8.171887666666722,-1.3611833333333372,-0.2537258410000167
8.133589333333388,-1.2239479666666704,-0.14840568200001672
8.095291000000053,-1.0867126000000038,-0.043085523000016744
8.095291000000051,-1.0867126000000038,-0.043085523000016744
8.48465666666672,-1.121819333333337,-0.15159720533335005
8.874022333333388,-1.15692606666667,-0.2601088876666834
9.263388000000054,-1.1920328000000033,-0.3686205700000167
9.263388000000056,-1.1920328000000031,-0.3686205700000167
10.645316000000056,-1.1186278333333364,-0.40691881333334995
12.027244000000055,-1.0452228666666696,-0.4452170566666833
13.409172000000055,-0.971817900000003,-0.4835153000000167
13.409172000000055,-0.971817900000003,-0.4835153000000167
13.798537666666723,-0.5313881166666697,-0.4516001000000167
14.18790333333339,-0.09095833333333636,-0.41968490000001674
14.577269000000058,0.34947144999999696,-0.3877697000000168
14.577269000000058,0.34947144999999696,-0.3877697000000168
12.362353766666724,0.5569202666666636,-0.4707492200000168
10.147438533333391,0.7643690833333302,-0.5537287400000169
7.932523300000057,0.9718178999999969,-0.6367082600000169
7.932523300000057,0.9718178999999969,-0.6367082600000169
7.852735200000057,0.3398969099999969,-0.7930927733333503
7.772947100000057,-0.29202408000000313,-0.9494772866666835
7.693159000000058,-0.9239450700000033,-1.1058618000000167
7.693159000000058,-0.9239450700000033,-1.1058618000000167
8.455932666666724,-1.188841280000003,-1.0292653000000167
9.218706333333389,-1.4537374900000029,-0.9526688000000166
9.981480000000055,-1.7186337000000027,-0.8760723000000167
9.981480000000055,-1.7186337000000027,-0.8760723000000167
9.419772000000053,-1.3516088433333362,-0.1388311333333501
8.858064000000054,-0.9845839866666696,0.5984100333333165
8.296356000000053,-0.617559130000003,1.3356511999999832
8.296356000000051,-0.6175591300000028,1.3356511999999832
7.897416133333386,-0.6398997866666695,1.5877812999999834
7.49847626666672,-0.6622404433333361,1.8399113999999832
7.099536400000054,-0.6845811000000027,2.0920414999999832
7.099536400000055,-0.6845811000000027,2.092041499999983
8.647423600000055,-0.9877755333333361,1.6962929799999824
10.195310800000057,-1.2909699666666692,1.3005444599999822
11.743198000000056,-1.5941644000000024,0.9047959399999823
11.743198000000056,-1.5941644000000021,0.9047959399999823
12.81235733333339,-1.900550266666669,0.7420284266666489
13.881516666666725,-2.2069361333333357,0.5792609133333154
14.950676000000058,-2.5133220000000023,0.41649339999998203
14.950676000000058,-2.5133220000000023,0.41649339999998203
14.187902666666725,-2.5133220000000023,0.560111799999982
13.425129333333393,-2.5133220000000023,0.7037301999999818
12.66235600000006,-2.5133220000000023,0.8473485999999818
12.66235600000006,-2.5133220000000023,0.8473485999999818
11.353833000000058,-2.4335340666666685,0.6175591499999818
10.045310000000057,-2.353746133333335,0.3877696999999818
8.736787000000056,-2.2739582000000023,0.15798024999998184
8.736787000000056,-2.2739582000000023,0.15798024999998186
8.704871666666724,-1.8909757333333357,0.0845752853333152
8.67295633333339,-1.507993266666669,0.011170320666648526
8.641041000000058,-1.1250108000000025,-0.06223464400001814
8.641041000000058,-1.1250108000000025,-0.06223464400001814
8.401677000000058,-1.160117566666669,-0.15478872933335144
8.16231300000006,-1.1952243333333357,-0.24734281466668476
7.9229490000000595,-1.2303311000000023,-0.33989690000001804
7.763372833333392,-1.2271395333333357,-0.44202555000001803
7.6037966666667245,-1.223947966666669,-0.544154200000018
7.444220500000057,-1.2207564000000024,-0.646282850000018
7.444220500000057,-1.2207564000000024,-0.6462828500000181
7.444220500000057,-1.2207564000000024,-0.6462828500000181
7.954863833333391,-1.3707578666666695,-0.8984129333333514
8.465507166666725,-1.5207593333333367,-1.1505430166666846
8.97615050000006,-1.6707608000000036,-1.4026731000000179
8.97615050000006,-1.6707608000000036,-1.4026731000000179
10.338929333333391,-1.6069304000000038,-1.3611833333333514
11.701708166666725,-1.5431000000000037,-1.3196935666666847
13.064487000000057,-1.4792696000000038,-1.2782038000000182
13.064487000000057,-1.4792696000000038,-1.2782038000000184
13.718748666666722,-0.8569231666666705,-1.1026702000000184
14.373010333333388,-0.2345767333333372,-0.9271366000000185
15.027272000000053,0.38776969999999616,-0.7516030000000186
15.027272000000053,0.38776969999999616,-0.7516030000000186
12.975125000000054,0.5824524333333294,-0.6079845866666853
10.922978000000052,0.7771351666666627,-0.46436617333335195
8.87083100000005,0.971817899999996,-0.3207477600000186
8.870831000000052,0.971817899999996,-0.3207477600000186
8.880405333333387,0.5888354766666627,-0.4260679266666853
8.889979666666724,0.20585305333332937,-0.531388093333352
8.899554000000059,-0.17712937000000398,-0.6367082600000187
8.899554000000059,-0.17712937000000398,-0.6367082600000187
9.21551433333339,-0.5473457133333374,-0.5856439400000186
9.531474666666723,-0.9175620566666708,-0.5345796200000186
9.847435000000054,-1.2877784000000043,-0.4835153000000185
9.847435000000052,-1.2877784000000043,-0.48351530000001847
9.18679046666672,-1.115436310000004,0.07180919999998152
8.526145933333387,-0.9430942200000039,0.6271336999999816
7.865501400000055,-0.7707521300000039,1.1824581999999817
7.865501400000056,-0.7707521300000039,1.1824581999999815
7.351666600000056,-0.8505401200000039,1.239905566666648
6.837831800000056,-0.930328110000004,1.2973529333333147
6.323997000000055,-1.010116100000004,1.3548002999999813
6.323997000000055,-1.010116100000004,1.3548002999999813
7.632520333333389,-1.195224300000004,1.0260737233333146
8.941043666666722,-1.380332500000004,0.697347146666648
10.249567000000056,-1.5654407000000037,0.3686205699999814
10.249567000000056,-1.5654407000000037,0.3686205699999814
11.91554033333339,-1.7122505666666707,0.2058530433333147
13.581513666666723,-1.8590604333333374,0.04308551666664804
15.247487000000056,-2.0058703000000038,-0.11968201000001862
15.247487000000056,-2.0058703000000038,-0.11968201000001862
14.580459666666725,-1.9324653666666702,0.014361839999981382
13.913432333333391,-1.8590604333333367,0.14840568999998138
13.24640500000006,-1.7856555000000032,0.2824495399999814
13.246405000000061,-1.7856555000000032,0.28244953999998135
11.77830566666673,-1.5494830333333365,0.17074633333331468
10.310206333333396,-1.3133105666666698,0.059043126666648016
8.842107000000064,-1.0771381000000033,-0.05266008000001865
8.842107000000064,-1.0771381000000033,-0.05266008000001865
8.842107000000064,-1.0771381000000033,-0.05266008000001865
8.915512000000065,-0.9079875166666698,-0.20266153666668532
8.988917000000066,-0.7388369333333363,-0.35266299333335205
9.062322000000067,-0.5696863500000029,-0.5026644500000188
8.9921083333334,-0.5345796233333363,-0.738836933333352
8.921894666666732,-0.49947289666666955,-0.9750094166666852
8.851681000000065,-0.46436617000000285,-1.2111819000000184
8.851681000000065,-0.46436617000000285,-1.2111819000000184
8.328271666666732,-0.33670536833333625,-1.080329566666685
7.804862333333399,-0.20904456666666957,-0.9494772333333517
7.281453000000066,-0.08138376500000288,-0.8186249000000183
7.281453000000066,-0.08138376500000288,-0.8186249000000183
7.281453000000066,-0.08138376500000288,-0.8186249000000183
7.610179500000065,-0.06223464400000289,-0.984583966666685
7.938906000000064,-0.043085523000002894,-1.1505430333333515
8.267632500000063,-0.023936402000002893,-1.316502100000018
9.84424366666673,-0.08138376133333622,-1.4154392000000178
11.420854833333395,-0.13883112066666956,-1.5143763000000179
12.997466000000061,-0.1962784800000029,-1.6133134000000178
12.99746600000006,-0.1962784800000029,-1.6133134000000178
13.715558000000058,0.05904312999999712,-1.4601204666666845
14.433650000000057,0.31436473999999714,-1.306927533333351
15.151742000000056,0.5696863499999971,-1.1537346000000177
15.151742000000056,0.569686349999997,-1.1537346000000177
13.345341666666721,0.6813895466666637,-1.0579889666666844
11.538941333333389,0.7930927433333305,-0.9622433333333511
9.732541000000055,0.9047959399999971,-0.8664977000000178
9.732541000000055,0.9047959399999971,-0.8664977000000178
9.732541000000055,0.9047959399999971,-0.8664977000000178
9.391048333333389,0.6239421746666638,-0.9686263333333511
9.049555666666725,0.34308840933333046,-1.0707549666666845
8.70806300000006,0.062234643999997195,-1.1728836000000176
8.93785233333339,-0.12287352066666947,-1.0005415333333512
9.167641666666723,-0.30798168533333614,-0.8281994666666844
9.397431000000054,-0.4930898500000029,-0.6558574000000177
9.397431000000054,-0.4930898500000029,-0.6558574000000177
8.941043666666722,-0.5313881000000028,-0.13883113333335098
8.48465633333339,-0.5696863500000028,0.3781951333333156
8.028269000000058,-0.6079846000000028,0.8952213999999823
8.028269000000058,-0.6079846000000028,0.8952213999999823
8.028269000000058,-0.6079846000000028,0.8952213999999823
7.511242666666725,-0.6686234866666695,1.0707549999999821
6.994216333333391,-0.7292623733333362,1.2462885999999822
6.477190000000057,-0.7899012600000029,1.4218221999999823
7.3676243333333895,-0.8377740600000029,1.370757899999982
8.258058666666722,-0.8856468600000028,1.319693599999982
9.148493000000057,-0.9335196600000027,1.2686292999999818
9.148493000000055,-0.9335196600000027,1.2686292999999818
10.495314333333388,-1.0899041400000027,1.0292652666666484
11.84213566666672,-1.2462886200000025,0.7899012333333152
13.188957000000054,-1.4026731000000023,0.5505371999999819
13.188957000000054,-1.4026731000000023,0.5505371999999819
13.188957000000054,-1.4026731000000023,0.5505371999999819
13.488959666666721,-1.6675693000000027,0.38138664099998193
13.788962333333387,-1.9324655000000028,0.21223608199998192
14.088965000000053,-2.197361700000003,0.04308552299998195
12.796399333333389,-2.4239595666666696,-0.08457528466668472
11.503833666666722,-2.6505574333333364,-0.2122360923333514
10.211268000000056,-2.877155300000003,-0.33989690000001804
10.211268000000057,-2.877155300000003,-0.33989690000001804
9.876158666666724,-2.66332346666667,-0.5090474666666847
9.541049333333392,-2.4494916333333365,-0.6781980333333514
9.205940000000059,-2.2356598000000036,-0.847348600000018
9.20594000000006,-2.2356598000000036,-0.8473486000000179
9.20594000000006,-2.2356598000000036,-0.8473486000000179
9.314451666666727,-1.9675721333333367,-0.8377740333333513
9.422963333333394,-1.6994844666666697,-0.8281994666666849
9.531475000000063,-1.4313968000000028,-0.8186249000000183
9.531475000000063,-1.4313968000000028,-0.8186249000000183
9.31764300000006,-1.3484172666666696,-0.7484114666666849
9.103811000000059,-1.2654377333333364,-0.6781980333333516
8.889979000000059,-1.182458200000003,-0.6079846000000182
8.363378333333394,-1.2367140333333364,-0.6430913200000182
7.8367776666667295,-1.2909698666666698,-0.6781980400000182
7.310177000000063,-1.3452257000000032,-0.7133047600000181
7.310177000000063,-1.3452257000000032,-0.7133047600000181
7.310177000000063,-1.3452257000000032,-0.7133047600000181
7.5527326666667305,-1.4441628666666697,-0.9239450733333516
7.795288333333397,-1.5431000333333362,-1.134585386666685
8.037844000000064,-1.6420372000000028,-1.3452257000000187
8.037844000000064,-1.6420372000000028,-1.3452257000000187
8.816574666666732,-1.6962930333333361,-1.252671633333352
9.595305333333398,-1.7505488666666695,-1.1601175666666854
10.374036000000062,-1.804804700000003,-1.0675635000000188
11.283619333333396,-1.903741800000003,-0.9718178866666852
12.19320266666673,-2.002678900000003,-0.8760722733333518
13.102786000000066,-2.101616000000003,-0.7803266600000184
13.102786000000066,-2.101616000000003,-0.7803266600000184
13.102786000000066,-2.101616000000003,-0.7803266600000184
13.21129766666673,-2.2292768000000027,-0.7516029833333517
13.319809333333398,-2.3569376000000024,-0.7228793066666851
13.428321000000066,-2.4845984000000025,-0.6941556300000183
11.845327000000063,-2.0888499000000027,-0.384578176666685
10.262333000000064,-1.6931014000000026,-0.07500072333335166
8.679339000000065,-1.2973529000000028,0.2345767299999817
8.679339000000065,-1.2973529000000028,0.2345767299999817
8.874022000000066,-1.3867155000000029,0.15638448666664836
9.068705000000065,-1.476078100000003,0.07819224333331502
9.263388000000065,-1.5654407000000028,0.0
9.263388000000065,-1.5654407000000028,0.0
9.158067666666733,-1.6165050333333362,-0.059043123333351655
9.052747333333402,-1.6675693666666696,-0.11808624666668499
8.94742700000007,-1.7186337000000027,-0.17712937000001835
8.94742700000007,-1.7186337000000027,-0.17712937000001835
8.42720920000007,-1.5909728666666696,0.04627703666664832
7.9069914000000665,-1.4633120333333363,0.269683443333315
7.3867736000000646,-1.335651200000003,0.4930898499999817
7.3867736000000646,-1.335651200000003,0.4930898499999817
7.600605400000066,-1.4441628666666697,0.307981685333315
7.814437200000067,-1.5526745333333365,0.1228735206666483
8.028269000000067,-1.6611862000000033,-0.06223464400001836
8.028269000000067,-1.6611862000000033,-0.06223464400001836
8.216568666666733,-1.721825100000003,-0.01117031933335169
8.404868333333399,-1.782464000000003,0.03989400533331498
8.593168000000064,-1.8431029000000028,0.09095832999998166
8.593168000000064,-1.8431029000000028,0.09095832999998166
8.736786333333399,-1.8048046666666695,0.320747773333315
8.880404666666733,-1.7665064333333362,0.5505372166666483
9.024023000000065,-1.728208200000003,0.7803266599999817
9.024023000000065,-1.728208200000003,0.7803266599999817
8.864447000000064,-1.5750152333333363,1.003733073333315
8.704871000000063,-1.4218222666666696,1.2271394866666483
8.545295000000062,-1.2686293000000026,1.4505458999999814
8.545295000000062,-1.2686293000000026,1.4505458999999814
9.145300666666726,-1.3675664333333362,1.428205266666648
9.745306333333392,-1.4665035666666695,1.4058646333333147
10.345312000000058,-1.5654407000000028,1.383523999999981
10.345312000000057,-1.5654407000000028,1.383523999999981
10.367652666666723,-1.9452315333333363,1.367566399999981
10.389993333333392,-2.3250223666666696,1.3516087999999808
10.412334000000058,-2.7048132000000034,1.3356511999999807
10.412334000000058,-2.7048132000000034,1.3356511999999807
11.510217000000056,-2.867580800000003,0.8537316519999809
12.608100000000055,-3.030348400000003,0.37181210399998094
13.705983000000053,-3.193116000000003,-0.110107444000019
13.705983000000053,-3.193116000000003,-0.110107444000019
12.742144000000055,-3.3207768000000026,-0.6303252293333523
11.778305000000058,-3.4484376000000023,-1.1505430146666857
10.81446600000006,-3.5760984000000025,-1.6707608000000194
10.814466000000062,-3.5760984000000025,-1.6707608000000194
10.412334333333396,-3.3495004666666692,-1.8399113333333528
10.01020266666673,-3.1229025333333365,-2.009061866666686
9.608071000000063,-2.8963046000000037,-2.178212400000019
9.608071000000061,-2.8963046000000037,-2.178212400000019
8.835723166666726,-2.672898133333337,-1.6516116000000192
8.063375333333392,-2.44949166666667,-1.1250108000000192
7.291027500000058,-2.226085200000003,-0.5984100000000191
7.291027500000058,-2.226085200000003,-0.5984100000000191
7.463369666666725,-2.0122533666666698,-0.41649336000001913
7.635711833333391,-1.7984215333333367,-0.23457672000001908
7.808054000000058,-1.5845897000000033,-0.052660080000019094
7.808054000000058,-1.5845897000000033,-0.052660080000019094
8.315505666666724,-1.776080900000003,-0.2728749733333524
8.822957333333392,-1.9675721000000028,-0.4930898666666857
9.33040900000006,-2.159063300000003,-0.713304760000019
9.330409000000062,-2.159063300000003,-0.713304760000019
9.678284666666729,-2.120765100000003,-0.6718150066666858
10.026160333333396,-2.082466900000003,-0.6303252533333524
10.374036000000062,-2.0441687000000033,-0.588835500000019
10.374036000000062,-2.0441687000000033,-0.588835500000019
10.747444000000064,-1.951614600000003,-0.6941556466666857
11.120852000000061,-1.859060500000003,-0.7994757933333524
11.49426000000006,-1.7665064000000028,-0.9047959400000191
11.49426000000006,-1.7665064000000028,-0.9047959400000191
12.129372333333393,-1.3196935833333363,-0.9526687266666856
12.764484666666727,-0.8728807666666697,-1.0005415133333522
13.399597000000062,-0.42606795000000314,-1.0484143000000186
13.399597000000062,-0.42606795000000314,-1.0484143000000186
12.234692000000061,-0.3367053833333365,-0.7930927133333517
11.069787000000062,-0.24734281666666988,-0.5377711266666851
9.904882000000063,-0.15798025000000324,-0.2824495400000185
9.904882000000063,-0.15798025000000324,-0.2824495400000185
10.160204000000062,-0.6494743333333366,-0.5154305066666852
10.415526000000062,-1.1409684166666698,-0.7484114733333519
10.670848000000062,-1.6324625000000033,-0.9813924400000186
10.670848000000062,-1.6324625000000033,-0.9813924400000186
10.760210333333395,-1.5718236333333364,-0.9782009266666852
10.84957266666673,-1.5111847666666698,-0.9750094133333519
10.938935000000063,-1.4505459000000032,-0.9718179000000186
10.093182333333395,-1.0962871666666698,-0.43245098333335186
9.247429666666727,-0.7420284333333363,0.1069159333333148
8.401677000000062,-0.38776970000000305,0.6462828499999814
8.401677000000062,-0.38776970000000305,0.6462828499999814
8.200611200000061,-0.6335167333333364,0.4803237966666482
7.999545400000062,-0.8792637666666699,0.3143647433333148
7.798479600000062,-1.1250108000000034,0.1484056899999815
7.798479600000062,-1.1250108000000034,0.1484056899999815
8.589976733333394,-1.313310500000003,0.07180920499998149
9.381473866666726,-1.501610200000003,-0.004787280000018508
10.172971000000059,-1.6899099000000029,-0.08138376500001851
10.172971000000057,-1.6899099000000029,-0.0813837650000185
11.302769000000055,-1.46331196666667,0.18670392333331484
12.432567000000054,-1.2367140333333368,0.45479161166664817
13.562365000000051,-1.0101161000000036,0.7228792999999815
13.562365000000051,-1.0101161000000036,0.7228792999999815
13.648536000000052,-1.0356482666666702,0.6909640999999814
13.734707000000052,-1.0611804333333368,0.6590488999999814
13.820878000000052,-1.0867126000000036,0.6271336999999815
13.820878000000052,-1.0867126000000036,0.6271336999999816
12.697463000000054,-1.3675664000000036,0.37819512999998156
11.574048000000055,-1.6484202000000032,0.12925655999998162
10.450633000000055,-1.929274000000003,-0.11968201000001837
10.450633000000057,-1.929274000000003,-0.11968201000001837
10.147438666666725,-1.8814011666666695,-0.467557706666685
9.84424433333339,-1.833528333333336,-0.8154334033333517
9.541050000000059,-1.7856555000000025,-1.1633091000000182
9.330409333333392,-1.6228879666666691,-1.2718208000000182
9.119768666666724,-1.460120433333336,-1.3803325000000182
8.909128000000058,-1.2973529000000026,-1.488844200000018
8.909128000000058,-1.2973529000000026,-1.488844200000018
8.602742233333393,-1.2877783666666691,-1.3579918333333512
8.296356466666728,-1.2782038333333359,-1.2271394666666848
7.989970700000062,-1.2686293000000024,-1.0962871000000183
7.989970700000062,-1.2686293000000024,-1.0962871000000185
8.692105133333394,-1.217564966666669,-1.1250108000000183
9.394239566666727,-1.1665006333333359,-1.153734500000018
10.09637400000006,-1.1154363000000025,-1.1824582000000181
10.096374000000058,-1.1154363000000025,-1.182458200000018
10.878296666666722,-0.8250079666666691,-1.1696921333333512
11.660219333333393,-0.5345796333333357,-1.1569260666666847
12.44214200000006,-0.24415130000000232,-1.144160000000018
12.44214200000006,-0.24415130000000232,-1.144160000000018
12.44214200000006,-0.24415130000000232,-1.144160000000018
12.774060000000063,-0.2313852133333357,-0.9813924666666848
13.105978000000064,-0.21861912666666905,-0.8186249333333514
13.437896000000066,-0.2058530400000024,-0.655857400000018
12.263416333333398,-0.20904456000000238,-0.7675606133333513
11.088936666666731,-0.21223608000000235,-0.8792638266666848
9.914457000000063,-0.2154276000000023,-0.9909670400000182
9.914457000000063,-0.2154276000000023,-0.9909670400000182
9.531475000000063,-0.3909612000000024,-0.8633062266666848
9.148493000000064,-0.5664948000000024,-0.7356454133333514
8.765511000000066,-0.7420284000000025,-0.6079846000000181
8.765511000000066,-0.7420284000000025,-0.6079846000000181
8.5484873333334,-0.8952213666666692,-0.45798315000001805
8.331463666666732,-1.0484143333333358,-0.30798170000001807
8.114440000000064,-1.2016073000000023,-0.1579802500000181
8.114440000000064,-1.2016073000000025,-0.1579802500000181
7.661244100000064,-0.9973500333333357,0.24415126666664855
7.208048200000064,-0.7930927666666691,0.6462827833333152
6.754852300000064,-0.5888355000000024,1.048414299999982
6.754852300000064,-0.5888355000000024,1.0484142999999817
7.010173966666731,-0.9877755000000024,1.1888411999999817
7.265495633333398,-1.3867155000000022,1.3292680999999815
7.520817300000065,-1.7856555000000023,1.4696949999999813
7.520817300000066,-1.7856555000000023,1.4696949999999813
8.960192866666732,-2.044168666666669,1.3452256999999814
10.3995684333334,-2.302681833333336,1.2207563999999813
11.838944000000067,-2.5611950000000028,1.0962870999999812
11.838944000000067,-2.561195000000003,1.0962870999999812
12.962359000000069,-2.4941730000000035,1.0484143333333145
14.08577400000007,-2.427151000000004,1.0005415666666477
15.209189000000071,-2.360129000000004,0.9526687999999811
15.209189000000071,-2.360129000000004,0.9526687999999811
14.538969666666738,-2.3122562666666706,0.9590518333333145
13.868750333333402,-2.264383533333337,0.9654348666666478
13.198531000000067,-2.2165108000000036,0.971817899999981
13.198531000000065,-2.2165108000000036,0.971817899999981
11.822986000000066,-2.0282111000000036,0.7005386833333144
10.447441000000067,-1.8399114000000036,0.42925946666664777
9.071896000000068,-1.6516117000000037,0.1579802499999811
9.071896000000066,-1.6516117000000037,0.15798024999998111
8.944235000000065,-1.7154421000000035,-0.07180920000001885
8.816574000000065,-1.7792725000000036,-0.3015986500000188
8.688913000000063,-1.8431029000000034,-0.5313881000000188
8.688913000000063,-1.8431029000000034,-0.5313881000000188
8.558060666666728,-1.6931014666666702,-0.5569202666666855
8.427208333333397,-1.543100033333337,-0.5824524333333522
8.296356000000065,-1.3930986000000036,-0.6079846000000187
8.296356000000065,-1.3930986000000036,-0.6079846000000187
8.108056566666734,-1.2654377666666703,-0.5250050666666853
7.919757133333402,-1.1377769333333372,-0.44202553333335204
7.731457700000068,-1.0101161000000038,-0.3590460000000187
7.731457700000068,-1.0101161000000038,-0.3590460000000187
8.312314466666736,-0.9941585000000037,-0.553728733333352
8.893171233333403,-0.9782009000000036,-0.7484114666666853
9.474028000000068,-0.9622433000000035,-0.9430942000000186
9.474028000000066,-0.9622433000000035,-0.9430942000000186
10.757019000000065,-0.6941556166666701,-1.0005415666666853
12.040010000000066,-0.42606793333333687,-1.0579889333333519
13.323001000000067,-0.15798025000000357,-1.1154363000000185
13.323001000000067,-0.15798025000000354,-1.1154363000000185
13.485768333333402,0.017553356666663116,-0.9462857333333519
13.648535666666737,0.19308696333332978,-0.7771351666666853
13.811303000000072,0.3686205699999965,-0.6079846000000185
13.811303000000072,0.3686205699999965,-0.6079846000000186
12.087882333333404,0.2633004066666631,-0.540962673333352
10.364461666666736,0.15798024333332977,-0.47394074666668534
8.64104100000007,0.052660079999996424,-0.40691882000001867
8.64104100000007,0.052660079999996424,-0.40691882000001867
8.59316800000007,-0.20585304666667026,-0.390961213333352
8.545295000000069,-0.4643661733333369,-0.3750036066666853
8.49742200000007,-0.7228793000000037,-0.35904600000001863
8.708062333333402,-0.7899012233333371,-0.28564104000001866
8.918702666666734,-0.8569231466666706,-0.21223608000001867
9.129343000000068,-0.9239450700000041,-0.13883112000001865
9.129343000000068,-0.9239450700000041,-0.13883112000001865
9.129343000000068,-0.9239450700000041,-0.13883112000001865
8.596359233333402,-0.8345825133333374,0.2186191399999813
8.063375466666736,-0.7452199566666708,0.5760693999999813
7.530391700000069,-0.6558574000000041,0.9335196599999813
7.530391700000069,-0.6558574000000043,0.9335196599999813
7.453795266666737,-0.8601147000000041,1.035648306666648
7.377198833333405,-1.0643720000000043,1.1377769533333149
7.300602400000073,-1.2686293000000044,1.2399055999999815
8.736786600000071,-1.3005445000000044,1.1665005999999813
10.172970800000071,-1.3324597000000045,1.0930955999999812
11.60915500000007,-1.3643749000000047,1.019690599999981
11.60915500000007,-1.364374900000005,1.019690599999981
11.60915500000007,-1.364374900000005,1.019690599999981
12.97831700000007,-1.552674600000005,0.9718178333333144
14.34747900000007,-1.7409743000000049,0.9239450666666477
15.716641000000067,-1.9292740000000048,0.876072299999981
15.716641000000067,-1.9292740000000048,0.876072299999981
15.419829666666734,-1.9931044000000047,0.8218164533333142
15.1230183333334,-2.0569348000000054,0.7675606066666476
14.826207000000068,-2.120765200000006,0.713304759999981
13.077254000000067,-1.7154421133333388,0.5377711533333144
11.328301000000067,-1.310119026666672,0.36223754666664765
9.579348000000065,-0.9047959400000053,0.18670393999998094
9.579348000000065,-0.9047959400000053,0.18670393999998094
9.579348000000065,-0.9047959400000053,0.18670393999998094
9.298494333333398,-0.6686234533333386,0.09734137166664762
9.01764066666673,-0.432450966666672,0.00797880333331428
8.736787000000062,-0.19627848000000528,-0.08138376500001905
8.736787000000062,-0.19627848000000528,-0.08138376500001905
8.51018900000006,-0.5154305200000053,-0.3750036100000191
8.28359100000006,-0.8345825600000053,-0.6686234550000191
8.05699300000006,-1.1537346000000053,-0.962243300000019
8.05699300000006,-1.1537346000000053,-0.962243300000019
7.999545566666728,-0.9813924866666719,-1.0101161333333524
7.9420981333333955,-0.8090503733333385,-1.057988966666686
7.884650700000063,-0.636708260000005,-1.1058618000000193
7.884650700000063,-0.636708260000005,-1.1058618000000195
8.152738133333395,-0.649474340000005,-1.192032833333353
8.420825566666728,-0.662240420000005,-1.2782038666666862
8.688913000000062,-0.6750065000000051,-1.3643749000000198
8.688913000000062,-0.6750065000000051,-1.3643749000000198
9.541049000000063,-0.6303252133333385,-1.44097140000002
10.393185000000065,-0.5856439266666719,-1.5175679000000202
11.245321000000066,-0.5409626400000053,-1.5941644000000206
11.245321000000066,-0.5409626400000053,-1.5941644000000206
12.218735000000066,-0.7707521266666718,-1.2047989166666873
13.192149000000066,-1.0005416133333385,-0.8154334333333538
14.165563000000068,-1.230331100000005,-0.42606795000002046
14.165563000000068,-1.230331100000005,-0.42606795000002046
12.707038166666734,-1.769698000000005,0.14202263333331286
11.2485133333334,-2.3090649000000054,0.7101132166666462
9.789988500000069,-2.848431800000005,1.2782037999999796
9.789988500000069,-2.848431800000005,1.2782037999999796
9.604880333333403,-2.8867300333333383,1.3165020666666463
9.419772166666737,-2.925028266666672,1.354800333333313
9.234664000000071,-2.9633265000000057,1.3930985999999796
9.311260333333403,-2.886730000000006,1.2016073666666462
9.387856666666735,-2.8101335000000063,1.0101161333333126
9.464453000000068,-2.7335370000000068,0.8186248999999793
9.464453000000068,-2.7335370000000068,0.8186248999999793
9.030406166666735,-2.0760838466666733,0.9271365999999793
8.596359333333401,-1.4186306933333401,1.0356482999999792
8.162312500000068,-0.7611775400000068,1.1441599999999792
8.162312500000068,-0.7611775400000068,1.144159999999979
7.345283500000067,-0.8090503400000069,1.0133076666666456
6.528254500000067,-0.8569231400000069,0.8824553333333123
5.711225500000066,-0.9047959400000071,0.7516029999999789
5.711225500000066,-0.9047959400000071,0.7516029999999789
6.346338000000067,-1.1696921266666735,0.5122389866666456
6.981450500000068,-1.4345883133333404,0.2728749733333123
7.616563000000068,-1.699484500000007,0.03351095999997896
7.616563000000068,-1.699484500000007,0.03351095999997896
10.054884333333403,-2.468640900000007,0.2633004066666456
12.493205666666737,-3.237797300000007,0.4930898533333123
14.931527000000072,-4.006953700000007,0.7228792999999789
14.931527000000072,-4.0069537000000075,0.722879299999979
15.247487666666737,-3.911208066666674,0.8664977333333125
15.563448333333405,-3.815462433333341,1.0101161666666458
15.879409000000072,-3.7197168000000076,1.1537345999999793
15.879409000000072,-3.7197168000000076,1.1537345999999793
13.945347666666736,-3.1037533666666746,1.1569260999999793
12.011286333333402,-2.487789933333341,1.1601175999999793
10.077225000000068,-1.871826500000008,1.1633090999999796
10.077225000000068,-1.871826500000008,1.1633090999999796
9.770839000000068,-1.4888441000000079,0.8122418813333129
9.46445300000007,-1.105861700000008,0.46117466266664625
9.158067000000072,-0.7228793000000078,0.11010744399997963
9.158067000000072,-0.7228793000000078,0.11010744399997963
8.829340333333404,-0.5792609000000077,-0.05266008400002037
8.500613666666736,-0.43564250000000776,-0.2154276120000204
8.171887000000067,-0.29202410000000784,-0.37819514000002047
8.171887000000067,-0.29202410000000784,-0.37819514000002047
7.5846473333334,-0.6207506666666746,-0.6494743600000206
6.997407666666734,-0.9494772333333413,-0.9207535800000207
6.410168000000067,-1.278203800000008,-1.1920328000000209
6.410168000000067,-1.278203800000008,-1.1920328000000209
6.196336166666735,-1.4250137666666747,-1.0707550333333542
5.982504333333402,-1.5718237333333411,-0.9494772666666873
5.768672500000069,-1.7186337000000078,-0.8281995000000206
5.768672500000069,-1.7186337000000078,-0.8281995000000206
5.768672500000069,-1.7186337000000078,-0.8281995000000206
5.768672500000069,-1.7186337000000078,-0.8281995000000206
5.768672500000069,-1.7186337000000078,-0.8281995000000206
8.449549333333403,-1.7186337000000078,-0.6781980466666871
11.130426166666737,-1.7186337000000078,-0.5281965933333538
13.811303000000072,-1.7186337000000078,-0.3781951400000203
13.811303000000072,-1.7186337000000078,-0.3781951400000203
14.25173300000007,-1.7920386333333411,-0.055851593333353655
14.69216300000007,-1.8654435666666744,0.266491953333313
15.13259300000007,-1.9388485000000077,0.5888354999999796
15.13259300000007,-1.9388485000000077,0.5888354999999796
13.482577000000068,-1.5399084666666745,0.7452199666666462
11.832561000000068,-1.140968433333341,0.9016044333333127
10.182545000000067,-0.7420284000000077,1.0579888999999794
9.636795000000065,-0.780326653333341,0.8186248999999792
9.091045000000067,-0.8186249066666743,0.5792608999999792
8.545295000000069,-0.8569231600000076,0.3398968999999792
8.54529500000007,-0.8569231600000076,0.3398968999999792
8.54529500000007,-0.8569231600000076,0.3398968999999792
8.38571900000007,-0.7101132400000075,0.09734136666664585
8.226143000000068,-0.5633033200000076,-0.1452141666666875
8.066567000000067,-0.4164934000000076,-0.3877697000000208
7.798479433333401,-0.579260913333341,-0.09734136666668747
7.530391866666734,-0.7420284266666742,0.19308696666664585
7.262304300000068,-0.9047959400000076,0.48351529999997916
7.262304300000068,-0.9047959400000076,0.48351529999997905
7.370815866666734,-1.0643719600000077,0.42925945333331245
7.4793274333334,-1.2239479800000077,0.3750036066666458
7.587839000000066,-1.3835240000000077,0.3207477599999791
7.587839000000066,-1.3835240000000077,0.3207477599999791
8.5708273333334,-1.428205300000008,0.3175562399999792
9.553815666666733,-1.4728866000000078,0.3143647199999792
10.536804000000066,-1.5175679000000077,0.3111731999999792
10.536804000000066,-1.5175679000000077,0.3111731999999792
11.647453000000064,-1.5271424333333414,0.3111731999999792
12.758102000000065,-1.5367169666666751,0.3111731999999792
13.868751000000065,-1.5462915000000088,0.3111731999999792
13.868751000000065,-1.5462915000000088,0.3111731999999792
14.037901666666732,-1.5622491333333421,0.4133018433333126
14.2070523333334,-1.5782067666666755,0.5154304866666458
14.376203000000066,-1.5941644000000086,0.6175591299999791
14.376203000000066,-1.5941644000000086,0.6175591299999791
13.597471833333396,-1.4952272333333418,0.7164962666666458
12.818740666666727,-1.396290066666675,0.8154334033333125
12.040009500000059,-1.2973529000000084,0.9143705399999792
12.040009500000059,-1.2973529000000081,0.9143705399999792
10.875104666666724,-1.2079903666666751,0.8122418933333124
9.71019983333339,-1.118627833333342,0.7101132466666457
8.545295000000056,-1.0292653000000087,0.607984599999979
8.545295000000056,-1.029265300000009,0.607984599999979
8.65061533333339,-1.0260737333333423,0.18032089999997902
8.755935666666725,-1.0228821666666756,-0.24734280000002096
8.861256000000058,-1.019690600000009,-0.675006500000021
8.775084666666723,-1.0707549333333424,-0.9367111333333544
8.68891333333339,-1.1218192666666758,-1.1984157666666877
8.602742000000058,-1.1728836000000091,-1.4601204000000212
8.602742000000058,-1.172883600000009,-1.4601204000000212
8.602742000000058,-1.172883600000009,-1.4601204000000212
8.114439666666726,-1.2718207333333422,-1.437779800000021
7.626137333333394,-1.3707578666666755,-1.415439200000021
7.137835000000062,-1.4696950000000086,-1.3930986000000212
7.137835000000062,-1.4696950000000086,-1.3930986000000212
7.603797000000061,-1.4409713333333418,-1.380332500000021
8.069759000000062,-1.4122476666666752,-1.367566400000021
8.535721000000061,-1.3835240000000084,-1.354800300000021
8.535721000000061,-1.3835240000000084,-1.354800300000021
9.959139000000063,-1.2271395133333418,-1.2558631666666875
11.38255700000006,-1.070755026666675,-1.1569260333333542
12.805975000000059,-0.9143705400000083,-1.0579889000000209
12.805975000000055,-0.9143705400000082,-1.0579889000000209
13.265553666666724,-0.7675606033333414,-0.8409655400000208
13.725132333333391,-0.6207506666666747,-0.6239421800000208
14.184711000000059,-0.473940730000008,-0.40691882000002083
14.184711000000059,-0.473940730000008,-0.40691882000002083
12.54427000000006,-0.34627993000000806,-0.28883257333335416
10.903829000000059,-0.21861913000000807,-0.17074632666668751
9.263388000000058,-0.09095833000000807,-0.052660080000020836
9.263388000000058,-0.09095833000000808,-0.052660080000020836
9.22189800000006,-0.28244955333334143,-0.18989544333335417
9.180408000000059,-0.4739407766666747,-0.32713080666668753
9.138918000000059,-0.6654320000000081,-0.46436617000002095
9.138918000000057,-0.665432000000008,-0.46436617000002095
9.33679233333339,-0.7101132666666747,-0.33989689000002093
9.534666666666725,-0.7547945333333415,-0.21542761000002095
9.732541000000058,-0.7994758000000082,-0.09095833000002092
9.73254100000006,-0.7994758000000082,-0.09095833000002092
9.33360100000006,-0.5313881066666748,0.3207477799999791
8.934661000000062,-0.2633004133333415,0.7324538899999791
8.535721000000065,0.004787279999991882,1.1441599999999792
7.897416866666728,-0.09734137000000813,1.160117599999979
7.259112733333393,-0.19947002000000813,1.1760751999999792
6.620808600000058,-0.3015986700000081,1.1920327999999794
6.620808600000058,-0.3015986700000081,1.1920327999999796
6.786767633333393,-0.5409626466666747,1.1313938999999793
6.952726666666727,-0.7803266233333414,1.0707549999999793
7.118685700000062,-1.0196906000000079,1.0101160999999792
7.118685700000062,-1.0196906000000079,1.010116099999979
7.118685700000062,-1.0196906000000079,1.010116099999979
8.251675133333395,-0.9622432666666748,1.0260736999999789
9.384664566666729,-0.9047959333333416,1.0420312999999786
10.517654000000062,-0.8473486000000084,1.0579888999999785
11.628303333333394,-0.7835182000000085,1.1505429999999786
12.738952666666727,-0.7196878000000085,1.2430970999999786
13.84960200000006,-0.6558574000000086,1.3356511999999787
13.849602000000056,-0.6558574000000087,1.3356511999999787
13.849602000000056,-0.6558574000000087,1.3356511999999787
14.05066766666672,-0.8888383666666754,1.1377769333333119
14.251733333333386,-1.121819333333342,0.9399026666666451
14.45279900000005,-1.3548003000000086,0.7420283999999787
13.319809333333383,-1.8526774666666752,0.6430912899999787
12.186819666666716,-2.3505546333333425,0.5441541799999786
11.05383000000005,-2.8484318000000086,0.4452170699999785
11.05383000000005,-2.8484318000000086,0.4452170699999785
10.715529000000052,-2.676089666666675,0.13563961333331187
10.377228000000052,-2.503747533333341,-0.1739378433333548
10.038927000000053,-2.331405400000008,-0.4835153000000214
10.038927000000053,-2.331405400000008,-0.4835153000000214
10.032543666666719,-1.9516145333333412,-0.7228793000000214
10.026160333333385,-1.5718236666666747,-0.9622433000000213
10.01977700000005,-1.192032800000008,-1.2016073000000211
10.01977700000005,-1.192032800000008,-1.2016073000000214
9.643177666666716,-1.1569260666666745,-1.4665034666666878
9.266578333333383,-1.121819333333341,-1.7313996333333543
8.889979000000048,-1.0867126000000076,-1.9962958000000208
8.889979000000048,-1.0867126000000074,-1.9962958000000206
8.29954790000005,-1.4186306666666741,-2.2611920000000207
7.709116800000051,-1.750548733333341,-2.526088200000021
7.118685700000053,-2.0824668000000077,-2.790984400000021
7.118685700000053,-2.0824668000000077,-2.790984400000022
7.185707566666719,-1.9324653666666745,-2.8165166000000212
7.252729433333386,-1.7824639333333412,-2.8420488000000206
7.3197513000000525,-1.632462500000008,-2.8675810000000204
7.3197513000000525,-1.632462500000008,-2.8675810000000204
7.868692866666719,-1.5526745333333414,-2.8005590000000207
8.417634433333385,-1.4728865666666746,-2.733537000000021
8.966576000000053,-1.393098600000008,-2.6665150000000213
8.966576000000051,-1.393098600000008,-2.6665150000000213
9.320834666666718,-1.1856497766666747,-2.1462972666666875
9.675093333333384,-0.9782009533333413,-1.626079533333354
10.029352000000051,-0.770752130000008,-1.1058618000000204
10.029352000000051,-0.770752130000008,-1.1058618000000204
11.235746666666719,-0.4292594666666747,-0.9877755333333537
12.442141333333387,-0.08776680333334134,-0.869689266666687
13.648536000000055,0.25372585999999203,-0.7516030000000202
13.648536000000055,0.25372585999999203,-0.7516030000000201
12.700654666666722,-0.08776680333334132,-0.5664948266666868
11.752773333333389,-0.4292594666666747,-0.3813866533333534
10.804892000000057,-0.770752130000008,-0.19627848000002004
10.804892000000057,-0.770752130000008,-0.19627848000002004
10.07722533333339,-1.0133076533333414,0.017553369999979945
9.349558666666722,-1.2558631766666748,0.23138521999997996
8.621892000000052,-1.4984187000000082,0.44521706999997995
8.62189200000005,-1.4984187000000082,0.44521706999997995
9.27934500000005,-1.7792724666666748,-0.020744886666686724
9.93679800000005,-2.0601262333333414,-0.4867068433333534
10.594251000000048,-2.3409800000000085,-0.9526688000000201
10.594251000000048,-2.3409800000000085,-0.9526688000000201
9.857009666666713,-1.6452286200000084,-0.19627850000002012
9.119768333333377,-0.9494772400000085,0.5601117999999798
8.382527000000044,-0.25372586000000846,1.31650209999998
8.382527000000042,-0.25372586000000846,1.3165020999999797
8.04103466666671,-0.3558544933333417,1.590972833333313
7.699542333333377,-0.457983126666675,1.8654435666666462
7.358050000000045,-0.5601117600000084,2.1399142999999796
7.358050000000046,-0.5601117600000084,2.13991429999998
8.002736666666713,-1.0324567400000084,1.7728894666666466
8.64742333333338,-1.5048017200000086,1.4058646333333131
9.292110000000049,-1.9771467000000087,1.0388397999999797
9.292110000000049,-1.9771467000000087,1.0388397999999797
10.051692000000047,-2.028211000000009,1.04203129999998
10.811274000000047,-2.0792753000000093,1.04522279999998
11.570856000000047,-2.1303396000000094,1.04841429999998
11.570856000000047,-2.1303396000000094,1.04841429999998
11.74319833333338,-2.210127666666676,0.9047959099999799
11.915540666666713,-2.289915733333342,0.76117751999998
12.087883000000046,-2.3697038000000084,0.61755912999998
12.087883000000046,-2.3697038000000084,0.61755912999998
12.00490333333338,-2.4845985333333416,0.4356424866666466
11.921923666666713,-2.599493266666675,0.2537258433333133
11.838944000000046,-2.714388000000008,0.07180919999997996
11.838944000000046,-2.714388000000008,0.07180919999997996
11.37617366666671,-2.701621933333341,-0.4898983333333533
10.913403333333378,-2.6888558666666746,-1.0516058666666865
10.450633000000044,-2.676089800000008,-1.6133134000000198
10.450633000000042,-2.676089800000008,-1.6133134000000198
10.386802666666709,-2.682472800000008,-1.5877812333333532
10.322972333333377,-2.6888558000000082,-1.5622490666666866
10.259142000000043,-2.6952388000000087,-1.5367169000000198
10.259142000000043,-2.6952388000000087,-1.5367169000000198
9.512326000000042,-2.200553166666675,-1.24948010000002
8.765510000000043,-1.7058675333333415,-0.96224330000002
8.018694000000043,-1.2111819000000081,-0.6750065000000199
8.018694000000043,-1.2111819000000084,-0.6750065000000199
8.583593000000041,-1.236714066666675,-0.8984129000000199
9.148492000000042,-1.262246233333342,-1.12181930000002
9.71339100000004,-1.2877784000000088,-1.3452257000000198
9.713391000000039,-1.287778400000009,-1.3452257000000198
10.326163000000038,-1.3771409666666756,-1.5207593000000197
10.938935000000038,-1.4665035333333425,-1.6962929000000198
11.551707000000038,-1.5558661000000094,-1.8718265000000196
11.551707000000038,-1.5558661000000094,-1.8718265000000196
12.055967000000038,-1.0005415853333428,-1.747357233333353
12.560227000000038,-0.4452170706666761,-1.6228879666666864
13.064487000000037,0.11010744399999058,-1.4984187000000198
13.064487000000037,0.11010744399999058,-1.4984187000000198
13.313425666666705,0.6207506959999906,-1.6005473666666863
13.562364333333372,1.1313939479999906,-1.702676033333353
13.81130300000004,1.6420371999999908,-1.8048047000000196
13.81130300000004,1.6420371999999908,-1.8048047000000196
12.177244666666704,1.5909728666666574,-1.2590547366666864
10.543186333333368,1.539908533333324,-0.713304773333353
8.909128000000033,1.4888441999999908,-0.16755481000001962
8.909128000000033,1.4888441999999908,-0.16755481000001962
9.183599000000035,1.2399055999999906,-0.13244808800001964
9.458070000000035,0.9909669999999906,-0.09734136600001964
9.732541000000035,0.7420283999999907,-0.062234644000019636
9.732541000000035,0.7420283999999907,-0.062234644000019636
9.933606666666703,0.4420255166666573,0.10053288733331368
10.13467233333337,0.1420226333333239,0.26330041866664705
10.335738000000037,-0.15798025000000943,0.4260679499999804
10.335738000000037,-0.15798025000000943,0.4260679499999804
9.410197133333371,-0.21223608666667607,0.809050366666647
8.484656266666706,-0.2664919233333427,1.1920327833333138
7.559115400000041,-0.3207477600000093,1.5750151999999804
7.559115400000041,-0.3207477600000093,1.5750151999999804
7.76018110000004,-0.722879306666676,1.409056166666647
7.961246800000038,-1.1250108533333427,1.2430971333333136
8.162312500000036,-1.5271424000000096,1.0771380999999802
8.162312500000036,-1.5271424000000096,1.0771380999999802
9.100619666666702,-1.5590576000000096,0.8792638333333134
10.038926833333369,-1.5909728000000098,0.6813895666666466
10.977234000000033,-1.62288800000001,0.4835152999999799
10.977234000000033,-1.6228880000000103,0.48351529999997983
10.977234000000033,-1.6228880000000103,0.48351529999997983
11.791071333333369,-1.6931014333333436,0.40372729999997975
12.604908666666702,-1.7633148666666767,0.3239392999999798
13.418746000000036,-1.83352830000001,0.24415129999997978
13.450661333333372,-1.9452315333333432,0.04627704999997979
13.482576666666708,-2.0569347666666764,-0.15159720000002022
13.514492000000041,-2.16863800000001,-0.3494714500000202
13.514492000000041,-2.1686380000000103,-0.3494714500000202
13.514492000000041,-2.1686380000000103,-0.3494714500000202
12.355970333333374,-2.08885000000001,-0.4005357833333536
11.197448666666707,-2.0090620000000103,-0.4516001166666869
10.03892700000004,-1.9292740000000101,-0.5026644500000202
10.038927000000038,-1.9292740000000101,-0.5026644500000201
9.774030666666704,-1.7218251333333434,-0.6813895666666868
9.50913433333337,-1.5143762666666767,-0.8601146833333534
9.244238000000033,-1.3069274000000102,-1.03883980000002
9.164450000000034,-1.2909698333333433,-1.0675634666666867
9.084662000000035,-1.2750122666666766,-1.0962871333333535
9.004874000000038,-1.2590547000000099,-1.1250108000000203
9.004874000000038,-1.2590547000000099,-1.1250108000000203
9.004874000000038,-1.2590547000000099,-1.1250108000000203
8.628274666666705,-1.2303310000000096,-1.0292652133333535
8.251675333333372,-1.2016073000000098,-0.933519626666687
7.875076000000038,-1.17288360000001,-0.8377740400000203
8.044226333333372,-1.2590546666666766,-0.978200926666687
8.213376666666706,-1.3452257333333428,-1.1186278133333536
8.38252700000004,-1.4313968000000095,-1.2590547000000203
8.382527000000042,-1.4313968000000095,-1.2590547000000203
8.382527000000042,-1.4313968000000095,-1.2590547000000203
9.627220333333375,-1.125010866666676,-1.316502066666687
10.871913666666709,-0.8186249333333429,-1.3739494333333535
12.116607000000045,-0.5122390000000095,-1.4313968000000201
12.116607000000045,-0.5122390000000095,-1.4313968000000201
12.486823000000044,-0.09734136666667621,-1.2335225466666868
12.857039000000043,0.31755626666665715,-1.0356482933333535
13.227255000000042,0.7324538999999906,-0.8377740400000203
12.732569333333375,0.828199466666657,-0.8122418733333537
12.23788366666671,0.9239450333333235,-0.786709706666687
11.743198000000042,1.01969059999999,-0.7611775400000204
11.743198000000042,1.01969059999999,-0.7611775400000204
11.743198000000042,1.01969059999999,-0.7611775400000204
