accx,accy,accz
-1.2686293,4.696322,7.922949000000001
-1.32128935,4.91653685,7.961247
-1.3388427,4.9899417999999995,7.974012999999999
-1.3739494,5.1367517,7.999544999999998
-1.3739494,5.1367517,7.999544999999998
-1.3611833333333336,5.047389133333334,7.964438333333331
-1.348417266666667,4.958026566666667,7.929331666666665
-1.3356512000000003,4.868664000000001,7.894224999999999
-1.3356512000000003,4.868664000000002,7.894224999999999
-1.3356512000000003,4.868664000000002,7.894224999999999
-1.3260766000000004,4.900579333333336,7.961246999999999
-1.3165020000000005,4.93249466666667,8.028269
-1.3069274000000004,4.9644100000000035,8.095291000000001
-1.2654376666666671,4.827174466666669,8.072950333333335
-1.2239479333333338,4.689938933333335,8.050609666666668
-1.1824582000000003,4.552703400000001,8.028269
-1.1824582000000003,4.5527034,8.028269
-1.1473515000000003,4.4856816,8.146354999999998
-1.1122448000000003,4.4186597999999995,8.264440999999998
-1.0771381000000002,4.3516379999999995,8.382526999999998
-1.0771381000000002,4.351637999999999,8.382527
-1.0771381000000002,4.351637999999999,8.382527
-1.109053266666667,4.2909989999999985,8.417634000000001
-1.1409684333333336,4.2303599999999975,8.452741000000001
-1.1728836000000002,4.1697209999999965,8.487848000000003
-1.2016073000000003,4.29419033333333,8.465507333333337
-1.2303310000000003,4.418659666666664,8.44316666666667
-1.2590547000000003,4.543128999999998,8.420826000000003
-1.2590547,4.543128999999998,8.420826000000003
-1.2590547,4.543128999999998,8.420826000000003
-1.1920327666666666,4.466532566666665,8.455932666666671
-1.1250108333333333,4.3899361333333315,8.49103933333334
-1.0579888999999998,4.313339699999998,8.52614600000001
-1.0579888999999998,4.313339699999998,8.52614600000001
-1.0675634666666667,4.223977133333331,8.542103500000009
-1.0771380333333334,4.134614566666663,8.558061000000007
-1.0867126000000003,4.045251999999995,8.574018500000006
-1.1250108333333335,3.930357233333329,8.542103333333339
-1.1633090666666668,3.8154624666666628,8.510188166666673
-1.2016073,3.7005676999999966,8.478273000000007
-1.2016073,3.7005676999999966,8.478273000000007
-1.2016073,3.7005676999999966,8.478273000000007
-1.2494801000000002,3.608013599999996,8.510188166666673
-1.2973529000000001,3.5154594999999955,8.542103333333339
-1.3452257000000003,3.4229053999999954,8.574018500000006
-1.3452257000000003,3.4229053999999954,8.574018500000006
-1.3803324333333336,3.330351333333329,8.625083000000005
-1.4154391666666666,3.237797266666662,8.676147500000006
-1.4505458999999998,3.1452431999999955,8.727212000000007
-1.4505458999999998,3.1452431999999955,8.727212000000007
-1.4154391666666666,2.8548148666666626,8.711254333333338
-1.3803324333333336,2.564386533333329,8.695296666666671
-1.3452257000000003,2.2739581999999956,8.679339000000004
-1.3452257000000003,2.273958199999995,8.679339000000004
-1.5079932333333337,1.9516145999999954,8.656998333333336
-1.6707607666666668,1.6292709999999955,8.63465766666667
-1.8335283000000002,1.3069273999999955,8.612317000000003
-1.9005501999999999,0.8505400519999954,8.746361000000002
-1.9675720999999997,0.3941527039999953,8.880405000000003
-2.0345939999999993,-0.0622346440000047,9.014449000000004
-2.034593999999999,-0.0622346440000047,9.014449000000004
-2.034593999999999,-0.0622346440000047,9.014449000000004
-2.0314025333333325,-0.41968489600000464,9.001682833333339
-2.0282110666666657,-0.7771351480000046,8.988916666666674
-2.025019599999999,-1.1345854000000044,8.976150500000008
-2.025019599999999,-1.1345854000000044,8.976150500000008
-1.8750181333333327,-1.5399085000000048,8.679339000000006
-1.7250166666666662,-1.9452316000000052,8.382527500000004
-1.5750152,-2.3505547000000058,8.085716000000003
-1.5750152,-2.3505547000000058,8.085716000000003
-1.7154420666666665,-2.8675809666666723,7.881458766666671
-1.8558689333333331,-3.384607233333339,7.6772015333333385
-1.9962957999999995,-3.901633500000005,7.472944300000006
-1.9962957999999993,-3.901633500000005,7.472944300000006
-2.1048075333333323,-4.297382000000005,7.565498366666674
-2.2133192666666655,-4.693130500000006,7.658052433333341
-2.321830999999998,-5.088879000000007,7.750606500000008
-2.321830999999998,-5.0888790000000075,7.750606500000008
-2.449491733333332,-5.478244333333341,7.728265900000008
-2.5771524666666656,-5.867609666666674,7.7059253000000085
-2.704813199999999,-6.256975000000007,7.683584700000009
-2.704813199999999,-6.256975000000007,7.683584700000009
-2.7367284666666656,-6.346337666666673,7.658052600000008
-2.7686437333333322,-6.435700333333339,7.632520500000008
-2.8005589999999985,-6.525063000000006,7.606988400000007
-2.8005589999999985,-6.525063000000006,7.606988400000007
-2.4526832999999986,-6.512297000000005,7.808054266666674
-2.1048075999999987,-6.4995310000000055,8.009120133333342
-1.7569318999999985,-6.486765000000006,8.210186000000009
-1.7569318999999985,-6.486765000000008,8.210186000000009
-1.594164366666665,-6.952726900000009,7.224006166666676
-1.4313968333333313,-7.41868880000001,6.237826333333342
-1.2686292999999977,-7.8846507000000114,5.251646500000009
-1.268629299999998,-7.8846507000000114,5.251646500000009
-0.997350079999998,-7.776138933333345,5.414414000000009
-0.726070859999998,-7.667627166666679,5.577181500000009
-0.454791639999998,-7.559115400000013,5.739949000000009
-0.454791639999998,-7.559115400000013,5.739949000000009
-0.4324509933333313,-7.488901933333345,5.041006100000009
-0.4101103466666646,-7.418688466666677,4.342063200000009
-0.38776969999999794,-7.34847500000001,3.643120300000009
-0.38776969999999794,-7.34847500000001,3.643120300000009
-0.2792580146666646,-7.721882833333344,3.614396566666676
-0.1707463293333313,-8.095290666666678,3.585672833333343
-0.06223464399999797,-8.468698500000011,3.55694910000001
-0.06223464399999797,-8.468698500000011,3.55694910000001
-0.08776680266666463,-9.515517333333344,3.0814126000000095
-0.11329896133333128,-10.562336166666677,2.605876100000009
-0.13883111999999795,-11.60915500000001,2.1303396000000085
-0.13883111999999795,-11.60915500000001,2.1303396000000085
-0.17074632333333128,-11.216597666666678,2.037785566666675
-0.20266152666666462,-10.824040333333343,1.9452315333333414
-0.23457672999999798,-10.431483000000009,1.8526775000000077
-0.23457672999999798,-10.431483000000009,1.8526775000000075
0.039894013333335344,-10.236800333333344,1.5750152000000075
0.3143647566666687,-10.042117666666678,1.2973529000000075
0.588835500000002,-9.847435000000013,1.0196906000000074
0.588835500000002,-9.847435000000015,1.0196906000000077
0.7994758000000018,-9.729348666666683,0.7005386146666744
1.0101161000000016,-9.611262333333348,0.3813866293333412
1.2207564000000015,-9.493176000000016,0.062234644000007965
1.2207564000000013,-9.493176000000018,0.062234644000007965
1.2303309666666682,-9.448495000000017,-0.2345767373333254
1.2399055333333349,-9.403814000000018,-0.5313881186666588
1.2494801000000018,-9.35913300000002,-0.8281994999999922
1.2494801000000015,-9.35913300000002,-0.8281994999999922
1.2303310000000016,-9.432538000000017,-0.9175620333333255
1.2111819000000017,-9.505943000000016,-1.0069245666666589
1.1920328000000018,-9.579348000000016,-1.0962870999999919
1.192032800000002,-9.579348000000014,-1.0962870999999919
1.227139500000002,-9.493176666666681,-1.0101160799999918
1.262246200000002,-9.407005333333348,-0.9239450599999915
1.2973529000000021,-9.320834000000016,-0.8377740399999914
1.2973529000000024,-9.320834000000017,-0.8377740399999913
1.290969866666669,-8.867638333333351,-0.7675605933333246
1.2845868333333357,-8.414442666666686,-0.6973471466666578
1.2782038000000024,-7.961247000000019,-0.6271336999999911
1.2782038000000024,-7.961247000000019,-0.627133699999991
1.6611862000000024,-7.622945800000019,-0.41968489333332437
2.0441686000000026,-7.284644600000019,-0.21223608666665772
2.4271510000000025,-6.946343400000019,-0.004787279999991068
2.4271510000000025,-6.946343400000019,-0.004787279999991067
3.3941816666666687,-6.946343400000019,-0.17393785333332443
4.361212333333335,-6.946343400000019,-0.3430884266666578
5.328243000000001,-6.946343400000019,-0.5122389999999911
5.3282430000000005,-6.946343400000019,-0.5122389999999911
6.167612666666667,-6.796342033333352,-0.35266298666665774
7.006982333333333,-6.646340666666685,-0.19308697333332445
7.8463519999999995,-6.496339300000018,-0.0335109599999911
7.8463519999999995,-6.496339300000018,-0.0335109599999911
8.692105,-6.387827533333351,0.06861768666667557
9.537857999999998,-6.279315766666685,0.17074633333334222
10.383610999999998,-6.170804000000019,0.27287498000000887
10.383610999999997,-6.170804000000019,0.27287498000000887
11.069787999999997,-6.132505866666686,0.1835124133333422
11.755964999999998,-6.094207733333352,0.09414984666667552
12.442141999999999,-6.055909600000018,0.004787280000008849
12.442141999999999,-6.055909600000018,0.004787280000008849
12.068733999999997,-5.484627400000019,-0.09414984666665782
11.695325999999994,-4.913345200000019,-0.19308697333332447
11.321917999999991,-4.342063000000018,-0.2920240999999911
11.321917999999991,-4.342063000000018,-0.2920240999999911
10.926169333333325,-4.179295500000019,-0.15159721333332446
10.530420666666659,-4.016528000000019,-0.011170326666657812
10.134671999999991,-3.853760500000019,0.12925656000000885
10.13467199999999,-3.853760500000019,0.12925656000000885
10.166587333333323,-3.6558862666666854,0.4579831400000089
10.198502666666656,-3.4580120333333517,0.7867097200000089
10.230417999999988,-3.260137800000018,1.115436300000009
10.230417999999988,-3.260137800000018,1.115436300000009
10.105948666666656,-3.1356685333333516,0.8792638066666756
9.981479333333324,-3.011199266666685,0.6430913133333422
9.85700999999999,-2.886730000000019,0.40691882000000895
9.85700999999999,-2.886730000000019,0.40691882000000895
9.694242666666655,-2.743111566666686,0.19947001333334233
9.53147533333332,-2.5994931333333526,-0.007978793333324352
9.368707999999986,-2.45587470000002,-0.21542759999999103
9.368707999999986,-2.45587470000002,-0.21542759999999106
9.595305666666654,-2.277149566666686,-0.4324509666666578
9.821903333333323,-2.0984244333333524,-0.6494743333333245
10.04850099999999,-1.9196993000000184,-0.8664976999999912
10.04850099999999,-1.9196993000000184,-0.8664976999999912
9.981478999999988,-1.7473572333333518,-0.6079845766666577
9.91445699999999,-1.5750151666666852,-0.3494714533333245
9.84743499999999,-1.4026731000000183,-0.09095832999999125
9.847434999999992,-1.4026731000000183,-0.09095832999999125
9.930414666666659,-1.5175678000000186,-0.08138376799999124
10.013394333333325,-1.6324625000000186,-0.07180920599999126
10.096373999999992,-1.7473572000000186,-0.06223464399999126
10.096373999999992,-1.7473572000000186,-0.06223464399999126
10.096373999999992,-1.7473572000000186,-0.06223464399999126
10.141055333333323,-2.037785566666685,-0.23776826266665793
10.185736666666655,-2.328213933333352,-0.4133018813333245
10.230417999999988,-2.6186423000000185,-0.5888354999999912
10.013394666666654,-2.4845984666666854,-0.5154305233333245
9.79637133333332,-2.3505546333333522,-0.44202554666665783
9.579347999999987,-2.216510800000019,-0.36862056999999115
9.579347999999985,-2.216510800000019,-0.36862056999999115
9.620837666666654,-2.2675751333333523,-0.4484085799999911
9.662327333333321,-2.3186394666666854,-0.5281965899999911
9.70381699999999,-2.369703800000019,-0.6079845999999911
9.703816999999992,-2.369703800000019,-0.6079845999999911
9.783604999999989,-2.4016189666666854,-0.6398997899999911
9.863392999999988,-2.433534133333352,-0.6718149799999912
9.943180999999987,-2.4654493000000186,-0.7037301699999912
9.943180999999985,-2.4654493000000186,-0.7037301699999912
9.984670666666654,-2.3888528000000187,-0.5824524133333244
10.026160333333321,-2.312256300000019,-0.4611746566666577
10.06764999999999,-2.2356598000000196,-0.339896899999991
10.067649999999992,-2.2356598000000196,-0.339896899999991
10.067649999999992,-2.2356598000000196,-0.339896899999991
10.137863666666656,-2.19736160000002,-0.28883257999999096
10.208077333333321,-2.15906340000002,-0.23776825999999093
10.278290999999987,-2.12076520000002,-0.18670393999999094
10.099565666666653,-2.1814040333333535,-0.20585305999999093
9.92084033333332,-2.242042866666687,-0.22500217999999092
9.742114999999988,-2.30268170000002,-0.24415129999999088
9.74211499999999,-2.30268170000002,-0.24415129999999088
9.598496666666657,-2.293107200000019,-0.20585305333332424
9.454878333333326,-2.2835327000000185,-0.16755480666665756
9.311259999999995,-2.2739582000000182,-0.1292565599999909
9.311259999999995,-2.273958200000018,-0.1292565599999909
9.311259999999995,-2.273958200000018,-0.1292565599999909
9.384664999999995,-2.2867242333333513,-0.13883112333332423
9.458069999999994,-2.2994902666666848,-0.14840568666665757
9.531474999999991,-2.3122563000000182,-0.15798024999999094
9.671901999999994,-2.423959533333352,-0.13244808833332428
9.812328999999993,-2.5356627666666856,-0.10691592666665761
9.952755999999994,-2.647366000000019,-0.08138376499999095
9.952755999999994,-2.647366000000019,-0.08138376499999095
9.952755999999994,-2.647366000000019,-0.08138376499999095
10.026160999999995,-2.573961000000019,-0.039894002333324276
10.099565999999994,-2.500556000000019,0.0015957603333423877
10.172970999999992,-2.4271510000000194,0.043085523000009056
10.172970999999992,-2.4271510000000194,0.04308552300000904
10.000628666666659,-2.3186393333333526,0.07500072200000903
9.828286333333326,-2.210127666666686,0.10691592100000902
9.655943999999993,-2.101616000000019,0.138831120000009
9.662327333333325,-2.0473601666666856,0.014361836666675667
9.66871066666666,-1.9931043333333527,-0.11010744666665767
9.675093999999994,-1.9388485000000193,-0.234576729999991
9.675093999999994,-1.9388485000000193,-0.234576729999991
9.675093999999994,-1.9388485000000193,-0.234576729999991
9.729349666666659,-1.9101248333333525,-0.14521416666665765
9.783605333333327,-1.8814011666666859,-0.05585160333332432
9.837860999999995,-1.852677500000019,0.03351096000000902
9.837860999999995,-1.8526775000000189,0.03351096000000902
9.927223333333329,-1.8016131666666855,0.30159865333334235
10.016585666666662,-1.750548833333352,0.5696863466666756
10.105947999999996,-1.699484500000019,0.837774040000009
10.105947999999998,-1.699484500000019,0.8377740400000088
10.208076666666665,-2.0377856666666854,0.7069217166666754
10.310205333333334,-2.3760868333333516,0.5760693933333421
10.412334000000001,-2.714388000000018,0.44521707000000865
10.412334000000001,-2.714388000000018,0.44521707000000865
9.716582666666667,-2.628216900000018,0.3590460266666753
9.020831333333334,-2.5420458000000186,0.272874983333342
8.32508,-2.455874700000019,0.1867039400000087
8.32508,-2.455874700000019,0.1867039400000087
8.647423333333334,-2.312256333333352,0.2984071600000087
8.969766666666667,-2.1686379666666853,0.4101103800000086
9.292110000000001,-2.0250196000000185,0.5218136000000086
9.292110000000001,-2.0250196000000185,0.5218136000000085
10.109139333333333,-2.3473631333333516,0.3973442966666752
10.926168666666667,-2.6697066666666847,0.27287499333334186
11.743198,-2.9920502000000178,0.14840569000000856
11.743198,-2.9920502000000178,0.14840569000000856
11.337874999999999,-2.5835356000000185,0.21223609333334184
10.932552,-2.1750210000000183,0.27606649666667515
10.527228999999998,-1.766506400000018,0.3398969000000085
10.527228999999998,-1.766506400000018,0.3398969000000085
10.163395666666666,-1.6962929666666848,0.4867068200000084
9.799562333333334,-1.6260795333333515,0.6335167400000083
9.435729000000002,-1.5558661000000182,0.7803266600000084
9.435729000000004,-1.5558661000000182,0.7803266600000084
9.55700666666667,-1.6739523333333517,0.7356453900000083
9.678284333333336,-1.792038566666685,0.6909641200000083
9.799562000000003,-1.9101248000000182,0.6462828500000083
9.799562000000002,-1.9101248000000182,0.6462828500000083
9.949563666666668,-1.817570700000018,0.601601566666675
10.099565333333333,-1.725016600000018,0.5569202833333416
10.249566999999999,-1.632462500000018,0.5122390000000084
10.249566999999999,-1.632462500000018,0.5122390000000084
10.220843333333333,-1.498418700000018,0.4420255566666751
10.192119666666665,-1.364374900000018,0.3718121133333418
10.163395999999999,-1.2303311000000179,0.30159867000000845
10.163395999999999,-1.2303311000000179,0.30159867000000845
9.652752666666665,-1.3675664666666847,0.3239393033333418
9.14210933333333,-1.5048018333333513,0.34627993666667517
8.631465999999996,-1.6420372000000178,0.36862057000000853
8.631465999999994,-1.6420372000000178,0.36862057000000853
8.650614999999997,-1.788847066666685,0.7452199466666752
8.669763999999997,-1.9356569333333515,1.1218193233333418
8.688912999999998,-2.082466800000018,1.4984187000000084
8.688913,-2.082466800000018,1.4984187000000084
9.049555,-2.4016188666666842,1.172883666666675
9.410197000000002,-2.7207709333333505,0.8473486333333415
9.770839000000002,-3.0399230000000173,0.5218136000000081
9.770839000000002,-3.0399230000000173,0.5218136000000081
9.777222166666668,-3.055880566666684,0.36862061466667484
9.783605333333334,-3.0718381333333507,0.21542762933334156
9.7899885,-3.087795700000017,0.06223464400000822
9.7899885,-3.0877957000000165,0.06223464400000822
9.863393333333333,-2.8452401333333497,0.21223609600000823
9.936798166666664,-2.602684566666683,0.3622375480000082
10.010202999999997,-2.360129000000016,0.5122390000000081
10.010202999999995,-2.360129000000016,0.5122390000000081
10.000628666666662,-2.433534000000016,0.44840858666667477
9.991054333333329,-2.5069390000000156,0.3845781733333415
9.981479999999996,-2.5803440000000157,0.3207477600000081
9.981479999999998,-2.5803440000000157,0.32074776000000815
10.010203333333331,-2.621833733333349,0.27925800000000817
10.038926666666667,-2.6633234666666823,0.23776824000000815
10.06765,-2.704813200000016,0.19627848000000814
10.06765,-2.704813200000016,0.19627848000000814
10.089990666666667,-2.5101305333333492,0.2186191266666748
10.112331333333335,-2.3154478666666827,0.24095977333334143
10.134672000000002,-2.1207652000000166,0.2633004200000081
10.134672000000002,-2.1207652000000166,0.26330042000000814
10.105948333333336,-1.82395383333335,0.35266298000000806
10.077224666666668,-1.5271424666666833,0.442025540000008
10.048501000000002,-1.2303311000000166,0.5313881000000079
10.048501000000002,-1.2303311000000166,0.5313881000000079
10.019777333333336,-1.3292682000000164,0.4164933800000079
9.991053666666668,-1.4282053000000163,0.30159866000000796
9.962330000000001,-1.5271424000000164,0.186703940000008
9.962330000000001,-1.5271424000000164,0.186703940000008
9.917648666666667,-1.5941643333333497,0.075000730000008
9.872967333333333,-1.6611862666666832,-0.036702479999992016
9.828285999999999,-1.7282082000000167,-0.148405689999992
9.828285999999999,-1.7282082000000167,-0.148405689999992
9.722966,-1.6516117000000168,-0.11329896766665866
9.617646,-1.5750152000000168,-0.07819224533332533
9.512326000000002,-1.4984187000000169,-0.04308552299999199
9.512326000000002,-1.4984187000000169,-0.043085522999991986
9.553815666666667,-1.4282052666666836,0.12287353133334135
9.595305333333334,-1.3579918333333503,0.2888325856666747
9.636795,-1.2877784000000172,0.45479164000000805
9.636795,-1.2877784000000172,0.45479164000000805
9.636795,-1.2877784000000172,0.45479164000000805
9.636795,-1.2877784000000172,0.45479164000000805
9.636795,-1.2877784000000172,0.45479164000000805
9.636795,-1.2877784000000172,0.45479164000000805
9.553815499999999,-1.5973558666666836,0.46117467000000806
9.470835999999998,-1.90693333333335,0.467557700000008
9.387856499999998,-2.2165108000000164,0.473940730000008
9.387856499999998,-2.2165108000000164,0.473940730000008
9.394239333333331,-2.1941702000000167,0.42606793000000803
9.400622166666665,-2.171829600000017,0.378195130000008
9.407004999999998,-2.1494890000000173,0.330322330000008
9.407004999999998,-2.1494890000000177,0.330322330000008
9.789987666666667,-1.9228910000000177,0.694155620000008
10.172970333333334,-1.6962930000000176,1.057988910000008
10.555953000000002,-1.4696950000000175,1.4218222000000076
10.555953000000002,-1.4696950000000175,1.4218222000000076
10.747444000000002,-1.4090561333333511,1.6707608000000074
10.938935,-1.3484172666666847,1.9196994000000076
11.130426,-1.2877784000000183,2.1686380000000076
11.130426,-1.2877784000000185,2.168638000000008
10.386802000000001,-1.3994816000000185,2.072892400000008
9.643178,-1.5111848000000183,1.9771468000000088
8.899554000000002,-1.622888000000018,1.8814012000000087
8.899554000000002,-1.622888000000018,1.8814012000000087
8.270824566666668,-1.9005502333333517,1.3739494666666754
7.642095133333335,-2.1782124666666856,0.866497733333342
7.013365700000001,-2.455874700000019,0.3590460000000088
7.013365700000001,-2.455874700000019,0.3590460000000088
7.616562800000001,-2.4080019000000186,0.4420255333333421
8.219759900000001,-2.360129100000018,0.5250050666666755
8.822957000000002,-2.312256300000018,0.6079846000000088
8.822957000000002,-2.312256300000018,0.6079846000000089
9.39743066666667,-2.309064766666685,0.959051800000009
9.971904333333336,-2.3058732333333523,1.3101190000000091
10.546378000000004,-2.302681700000019,1.6611862000000093
10.546378000000006,-2.302681700000019,1.6611862000000093
10.74425233333334,-2.455874700000019,1.7856554666666755
10.942126666666672,-2.609067700000019,1.910124733333342
11.140001000000003,-2.7622607000000188,2.0345940000000082
11.140001000000003,-2.7622607000000188,2.034594000000008
12.340012666666668,-2.7303454666666855,1.6388455333333412
13.540024333333335,-2.6984302333333523,1.2430970666666747
14.740036000000002,-2.6665150000000186,0.847348600000008
14.740036000000002,-2.6665150000000186,0.8473486000000078
14.819824000000002,-2.6058761333333518,0.6462828333333411
14.899612000000003,-2.545237266666685,0.4452170666666746
14.979400000000004,-2.4845984000000176,0.24415130000000795
14.979400000000004,-2.4845984000000176,0.24415130000000795
12.47405666666667,-1.7633148533333511,-0.19946999999999204
9.968713333333335,-1.0420313066666844,-0.643091299999992
7.463370000000002,-0.3207477600000179,-1.086712599999992
7.463370000000002,-0.3207477600000179,-1.086712599999992
7.402731000000003,-0.7420284066666846,-1.469694999999992
7.342092000000004,-1.1633090533333512,-1.8526773999999921
7.2814530000000035,-1.584589700000018,-2.235659799999992
7.2814530000000035,-1.5845897000000175,-2.235659799999992
7.163366866666671,-1.412247633333351,-1.6548031499999922
7.045280733333338,-1.2399055666666843,-1.0739464999999921
6.927194600000004,-1.0675635000000177,-0.49308984999999206
6.927194600000004,-1.0675635000000174,-0.49308984999999206
6.927194600000004,-1.0675635000000174,-0.49308984999999206
6.927194600000004,-1.0675635000000174,-0.49308984999999206
6.927194600000004,-1.0675635000000174,-0.49308984999999206
7.594222400000004,-0.8441570866666842,-0.12925656666665872
8.261250200000005,-0.6207506733333509,0.2345767166666746
8.928278000000004,-0.3973442600000175,0.598410000000008
8.928278000000004,-0.39734426000001744,0.598410000000008
8.928278000000004,-0.39734426000001744,0.598410000000008
9.94637266666667,-1.1920327400000175,0.47074920000000803
10.964467333333339,-1.9867212200000177,0.34308840000000806
11.982562000000007,-2.7814097000000175,0.21542760000000805
11.982562000000007,-2.7814097000000175,0.21542760000000807
13.102785666666671,-2.6633234666666845,-0.30798169999999186
14.223009333333337,-2.5452372333333506,-0.8313909999999919
15.343233000000003,-2.427151000000017,-1.354800299999992
13.77619666666667,-1.8494858766666837,-0.9494772399999919
12.209160333333338,-1.2718207533333505,-0.5441541799999919
10.642124000000008,-0.694155630000017,-0.13883111999999195
10.642124000000008,-0.694155630000017,-0.13883111999999195
10.642124000000008,-0.694155630000017,-0.13883111999999195
10.182545333333339,-0.3335138533333504,-0.2952156133333253
9.722966666666672,0.0271279233333163,-0.45160010666665856
9.263388000000004,0.38776969999998295,-0.6079845999999919
9.263388000000004,0.38776969999998295,-0.6079845999999919
8.242101233333337,0.12287352666664964,-0.2250021866666585
7.22081446666667,-0.1420226466666837,0.15798022666667486
6.199527700000002,-0.40691882000001706,0.5409626400000082
6.655915133333335,-0.6175591466666837,0.5441541600000082
7.112302566666668,-0.8281994733333504,0.5473456800000082
7.568690000000001,-1.0388398000000172,0.550537200000008
7.568690000000001,-1.0388398000000174,0.550537200000008
7.568690000000001,-1.0388398000000174,0.550537200000008
8.251675333333335,-1.3643748666666842,0.3877696813333415
8.93466066666667,-1.689909933333351,0.22500216266667486
9.617646000000004,-2.0154450000000175,0.06223464400000822
9.617646000000006,-2.0154450000000175,0.06223464400000822
10.811274333333337,-2.1111905666666844,0.11649048600000822
12.004902666666668,-2.2069361333333517,0.17074632800000822
13.198531000000001,-2.3026817000000186,0.22500217000000822
13.198530999999997,-2.3026817000000186,0.22500217000000822
13.492151166666664,-2.347363000000018,0.27925801333334155
13.78577133333333,-2.3920443000000176,0.3335138566666749
14.079391499999995,-2.436725600000017,0.3877697000000082
14.079391499999995,-2.4367256000000164,0.3877697000000082
13.064487999999995,-2.1079990333333494,0.3335138566666749
12.049584499999995,-1.7792724666666828,0.27925801333334155
11.034680999999994,-1.450545900000016,0.22500217000000822
11.034680999999994,-1.450545900000016,0.22500217000000822
11.149575666666662,-1.3548003000000162,-0.007978796666658442
11.264470333333328,-1.2590547000000163,-0.2409597633333251
11.379364999999995,-1.1633091000000164,-0.47394072999999176
11.379364999999995,-1.1633091000000164,-0.47394072999999176
10.246375433333329,-1.2909699000000165,-0.47074920999999176
9.113385866666663,-1.4186307000000165,-0.4675576899999918
7.980396299999998,-1.5462915000000164,-0.46436616999999186
7.980396299999998,-1.546291500000016,-0.4643661699999919
6.904853999999997,-1.6069304000000162,-0.41330184666665853
5.829311699999995,-1.6675693000000162,-0.3622375233333252
4.753769399999995,-1.7282082000000163,-0.3111731999999919
4.753769399999995,-1.7282082000000163,-0.3111731999999918
5.028240033333328,-1.4601204900000164,-0.4739407333333252
5.302710666666662,-1.1920327800000166,-0.6367082666666585
5.577181299999995,-0.9239450700000166,-0.7994757999999919
5.577181299999995,-0.9239450700000166,-0.7994757999999919
6.352720699999995,-0.6175591400000165,-0.8058588333333252
7.128260099999994,-0.31117321000001646,-0.8122418666666585
7.903799499999994,-0.004787280000016454,-0.8186248999999918
7.903799499999994,-0.004787280000016454,-0.8186248999999918
9.557006999999993,-0.4005357866666832,-0.7611775499999918
11.210214499999994,-0.79628429333335,-0.7037301999999918
12.863421999999995,-1.1920328000000169,-0.6462828499999916
12.863421999999995,-1.1920328000000169,-0.6462828499999916
13.926197999999994,-1.2845868666666835,-0.8664976999999916
14.988973999999994,-1.3771409333333502,-1.0867125499999915
16.051749999999995,-1.4696950000000168,-1.3069273999999915
16.051749999999995,-1.4696950000000168,-1.3069273999999913
15.691108333333327,-2.175020966666684,-0.8345824519999914
15.330466666666661,-2.880346933333351,-0.3622375039999914
14.969824999999995,-3.585672900000018,0.11010744400000864
14.969824999999995,-3.585672900000018,0.11010744400000864
12.537886766666661,-2.995241666666684,0.454791629333342
10.105948533333327,-2.4048104333333504,0.7994758146666753
7.674010299999995,-1.8143792000000165,1.1441600000000087
7.674010299999995,-1.8143792000000165,1.1441600000000085
6.837831999999994,-1.0962871666666831,1.2367140666666752
6.001653699999994,-0.37819513333334975,1.3292681333333418
5.165475399999994,0.3398968999999836,1.4218222000000085
5.165475399999993,0.3398968999999836,1.4218222000000085
5.500584933333326,-0.21542760000001646,1.4792696000000083
5.835694466666659,-0.7707521000000165,1.536717000000008
6.170803999999992,-1.3260766000000166,1.5941644000000077
6.170803999999992,-1.3260766000000164,1.5941644000000075
7.811245666666658,-1.871826566666683,1.332459733333341
9.451687333333327,-2.4175765333333494,1.0707550666666743
11.092128999999991,-2.9633265000000164,0.8090504000000075
11.092128999999991,-2.9633265000000164,0.8090504000000075
12.215543999999989,-2.969709500000016,0.9845840000000075
13.338958999999988,-2.9760925000000156,1.1601176000000073
14.462373999999988,-2.982475500000015,1.3356512000000071
14.462373999999988,-2.982475500000015,1.3356512000000071
14.669822666666656,-2.5643864000000156,1.4537374333333402
14.877271333333326,-2.146297300000016,1.5718236666666732
15.084719999999995,-1.7282082000000163,1.6899099000000062
15.084719999999995,-1.7282082000000163,1.689909900000006
14.376202499999996,-1.7792725333333497,1.2430970833333395
13.667684999999997,-1.830336866666683,0.7962842666666728
12.959167499999998,-1.8814012000000162,0.3494714500000063
12.959167499999998,-1.8814012000000162,0.3494714500000063
12.837889666666664,-1.926082466666683,-0.170746333333327
12.716611833333332,-1.9707637333333496,-0.6909641166666604
12.595334,-2.0154450000000166,-1.2111818999999937
12.595334,-2.015445000000017,-1.2111818999999937
10.859147199999997,-1.5367169666666836,-1.0196906866666604
9.122960399999997,-1.0579889333333503,-0.8281994733333272
7.386773599999995,-0.5792609000000168,-0.6367082599999938
7.386773599999995,-0.5792609000000168,-0.6367082599999938
6.566552733333329,-0.37500361333335014,-0.5856439399999938
5.7463318666666625,-0.17074632666668343,-0.5345796199999937
4.926110999999996,0.03351095999998325,-0.48351529999999365
4.926110999999996,0.03351095999998325,-0.4835152999999936
4.926110999999996,0.03351095999998325,-0.4835152999999936
5.251646199999996,0.03670248099998325,-0.8664976999999935
5.577181399999996,0.03989400199998325,-1.2494800999999935
5.902716599999995,0.04308552299998324,-1.6324624999999935
6.837832066666664,-0.1356396013333501,-1.5303338666666602
7.772947533333332,-0.31436472566668344,-1.428205233333327
8.708063000000001,-0.49308985000001676,-1.326076599999994
8.708063000000001,-0.49308985000001676,-1.326076599999994
10.147438666666666,-0.6430913000000168,-1.1952242866666605
11.586814333333331,-0.7930927500000168,-1.064371973333327
13.026189999999998,-0.9430942000000168,-0.9335196599999934
13.026189999999998,-0.9430942000000168,-0.9335196599999934
13.026189999999998,-0.9430942000000168,-0.9335196599999934
14.315563999999997,-1.23352253333335,-0.8250079733333268
15.604937999999997,-1.5239508666666834,-0.7164962866666601
16.894311999999996,-1.814379200000017,-0.6079845999999934
15.483659999999999,-2.11119053333335,0.44840860000000654
14.073008,-2.408001866666683,1.5048018000000065
12.662356,-2.7048132000000162,2.5611950000000068
12.662356,-2.7048132000000162,2.5611950000000068
10.552761333333331,-2.194170000000016,2.1686380000000067
8.443166666666665,-1.6835268000000163,1.7760810000000067
6.333571999999999,-1.1728836000000165,1.3835240000000066
6.333571999999999,-1.1728836000000167,1.3835240000000066
6.333571999999999,-1.1728836000000167,1.3835240000000066
6.033568999999999,-1.1952242666666832,1.3994816000000068
5.733565999999999,-1.2175649333333498,1.415439200000007
5.433562999999999,-1.2399056000000164,1.431396800000007
6.643149333333331,-2.1207651333333497,1.0547974233333404
7.852735666666665,-3.001624666666683,0.6781980466666737
9.062322,-3.8824842000000164,0.3015986700000071
9.062322,-3.8824842000000164,0.3015986700000071
10.967659333333332,-4.431425800000016,0.5090474700000072
12.872996666666666,-4.9803674000000155,0.716496270000007
14.778334,-5.529309000000015,0.9239450700000069
14.778334,-5.529309000000015,0.9239450700000068
14.813440999999997,-4.412276800000014,1.6260794800000067
14.848547999999996,-3.2952446000000144,2.3282138900000064
14.883654999999996,-2.1782124000000143,3.0303483000000067
14.883654999999996,-2.1782124000000143,3.0303483000000067
14.669822999999996,-2.465449266666681,2.497364466666673
14.455990999999997,-2.752686133333348,1.9643806333333398
14.242159,-3.0399230000000146,1.4313968000000064
14.242159,-3.0399230000000146,1.4313968000000064
14.660247999999998,-3.008007800000015,-0.3015986666666602
15.078336999999998,-2.976092600000015,-2.034594133333327
15.496425999999998,-2.9441774000000147,-3.7675895999999933
15.496425999999998,-2.944177400000014,-3.7675895999999924
13.587896999999998,-2.0345941333333473,-3.2058819999999932
11.679367999999998,-1.1250108666666805,-2.644174399999993
9.770839,-0.21542760000001385,-2.082466799999993
9.770839,-0.21542760000001385,-2.082466799999993
8.277207533333332,-0.11649047833334719,-1.5494829666666596
6.783576066666664,-0.017553356666680526,-1.016499133333326
5.2899445999999966,0.08138376499998613,-0.4835152999999927
5.289944599999997,0.08138376499998613,-0.4835152999999927
5.398456233333331,0.011170323333319474,-0.7292623333333258
5.506967866666664,-0.05904311833334719,-0.9750093666666589
5.615479499999998,-0.12925656000001384,-1.2207563999999922
5.615479499999998,-0.12925656000001384,-1.2207563999999922
6.138888866666665,-0.28883257333334716,-1.3260765666666587
6.662298233333332,-0.44840858666668054,-1.431396733333326
7.1857076,-0.6079846000000139,-1.536716899999993
7.1857076,-0.6079846000000139,-1.536716899999993
8.586785066666666,-0.7707521000000139,-0.7930927233333263
9.987862533333333,-0.933519600000014,-0.04946854666665956
11.388939999999998,-1.096287100000014,0.6941556300000071
11.388939999999998,-1.096287100000014,0.6941556300000071
12.764484999999999,-1.4984186333333476,0.7069217200000072
14.140029999999998,-1.9005501666666813,0.7196878100000074
15.515574999999998,-2.302681700000015,0.7324539000000074
15.515574999999998,-2.302681700000015,0.7324539000000074
14.880462666666666,-3.0399229000000147,1.3962901000000072
14.245350333333334,-3.7771641000000145,2.060126300000007
13.610238000000003,-4.514405300000014,2.7239625000000074
13.610238000000003,-4.514405300000014,2.7239625000000074
11.982562666666668,-4.102699166666681,2.455874766666674
10.354887333333336,-3.690993033333347,2.1877870333333407
8.727212000000002,-3.279286900000013,1.9196993000000075
8.727212000000002,-3.279286900000013,1.9196993000000078
7.310177,-2.535662700000013,1.8877841000000075
5.893142,-1.792038500000013,1.8558689000000073
4.476107,-1.0484143000000132,1.823953700000007
4.476107,-1.0484143000000132,1.823953700000007
5.159092333333334,-1.3037359333333465,1.488844100000007
5.842077666666667,-1.55905756666668,1.153734500000007
6.525063,-1.8143792000000134,0.8186249000000071
6.525063,-1.8143792000000134,0.8186249000000071
6.525063,-1.8143792000000134,0.8186249000000071
8.781467666666668,-2.7622608000000137,0.5888354533333403
11.037872333333334,-3.7101424000000134,0.35904600666667363
13.294277000000003,-4.6580240000000135,0.12925656000000696
13.581514000000004,-4.530363000000013,0.6622404400000069
13.868751000000003,-4.402702000000013,1.195224320000007
14.155988000000002,-4.275041000000013,1.728208200000007
14.155988000000002,-4.275041000000013,1.728208200000007
13.846410333333337,-3.936739933333346,1.8877841666666735
13.536832666666669,-3.5984388666666782,2.04736013333334
13.227255000000001,-3.260137800000011,2.2069361000000067
13.227255000000001,-3.260137800000011,2.206936100000007
13.227255000000001,-3.260137800000011,2.206936100000007
12.41341766666667,-3.1133278666666775,1.4633119326666737
11.599580333333336,-2.966517933333344,0.7196877653333402
10.785743000000002,-2.8197080000000105,-0.0239364019999931
11.044255999999999,-2.902687566666677,-0.2441513013333264
11.302768999999998,-2.9856671333333438,-0.4643662006666598
11.561281999999997,-3.0686467000000106,-0.6845810999999932
11.561281999999997,-3.0686467000000106,-0.6845810999999932
9.917648999999997,-2.723962466666677,-0.5122390033333265
8.274015999999998,-2.3792782333333435,-0.3398969066666598
6.630382999999999,-2.0345940000000104,-0.16755480999999314
6.630382999999999,-2.0345940000000104,-0.16755480999999314
6.630382999999999,-2.0345940000000104,-0.16755480999999314
5.9442062333333325,-1.7026759333333434,-0.17074632999999317
5.258029466666666,-1.3707578666666766,-0.1739378499999932
4.571852699999999,-1.03883980000001,-0.17712936999999326
5.123985633333333,-1.0930956333333437,-0.6367082799999932
5.676118566666665,-1.147351466666677,-1.0962871899999933
6.228251499999998,-1.2016073000000105,-1.5558660999999931
6.228251499999998,-1.2016073000000105,-1.5558660999999931
8.688913666666664,-1.335651166666677,-1.4505459333333264
11.149575833333332,-1.4696950333333436,-1.3452257666666598
13.610238,-1.6037389000000102,-1.239905599999993
13.610238,-1.6037389000000102,-1.239905599999993
13.610238,-1.6037389000000102,-1.239905599999993
14.143221666666667,-1.1696921566666767,-1.115436299999993
14.676205333333334,-0.7356454133333434,-0.9909669999999929
15.209189,-0.30159867000001017,-0.8664976999999929
15.209189,-0.30159867000001017,-0.8664976999999929
14.238967,-0.5026644266666768,-0.5664948133333262
13.268744999999997,-0.7037301833333434,-0.26649192666665955
12.298522999999996,-0.90479594000001,0.033510960000007084
11.009148999999994,-1.2590546933333433,0.7420284066666737
9.719774999999995,-1.6133134466666768,1.4505458533333402
8.430400999999994,-1.9675722000000102,2.1590633000000072
8.430400999999994,-1.9675722000000102,2.1590633000000072
7.319751833333329,-1.3516088033333435,1.8271452333333407
6.209102666666663,-0.7356454066666768,1.4952271666666739
5.098453499999997,-0.11968201000001015,1.163309100000007
5.098453499999997,-0.11968201000001015,1.163309100000007
5.586755999999997,-0.3111732166666768,1.1218193333333402
6.075058499999996,-0.5026644233333435,1.0803295666666735
6.563360999999996,-0.6941556300000101,1.0388398000000068
6.563360999999996,-0.6941556300000101,1.0388398000000068
8.053800999999995,-1.1505430200000102,0.7579860266666735
9.544240999999994,-1.6069304100000101,0.47713225333334014
11.034680999999994,-2.0633178000000103,0.19627848000000672
11.034680999999994,-2.0633178000000103,0.19627848000000672
12.004902999999993,-2.245234433333344,0.4962813533333401
12.975124999999993,-2.4271510666666773,0.7962842266666734
13.945346999999993,-2.609067700000011,1.0962871000000067
13.945346999999993,-2.609067700000011,1.0962871000000065
13.881516666666661,-2.5580033666666773,1.1824581666666731
13.817686333333327,-2.506939033333344,1.2686292333333395
13.753855999999994,-2.455874700000011,1.3548003000000062
13.753855999999994,-2.455874700000011,1.3548003000000062
13.383639666666662,-2.076083833333344,1.093095650000006
13.01342333333333,-1.696292966666677,0.8313910000000061
12.643206999999999,-1.3165021000000103,0.5696863500000061
12.643206999999999,-1.3165021000000101,0.5696863500000061
12.703845999999999,-1.5590576333333435,0.3877697006666727
12.764484999999999,-1.8016131666666768,0.20585305133333934
12.825123999999997,-2.0441687000000104,0.02393640200000602
12.825123999999997,-2.0441687000000104,0.02393640200000602
11.401705999999997,-2.037785666666677,-0.12606504866666066
9.978287999999997,-2.0314026333333435,-0.27606649933332733
8.554869999999996,-2.0250196000000105,-0.426067949999994
8.554869999999996,-2.0250196000000105,-0.426067949999994
7.386773499999997,-1.546291566666677,-0.26010889999999404
6.218676999999997,-1.0675635333333438,-0.09414984999999403
5.050580499999997,-0.5888355000000104,0.07180920000000597
5.050580499999998,-0.5888355000000104,0.07180920000000597
5.465478099999998,-0.7037302200000104,-0.23138521333332737
5.880375699999998,-0.8186249400000104,-0.5345796266666606
6.295273299999999,-0.9335196600000103,-0.837774039999994
6.295273300000001,-0.9335196600000103,-0.837774039999994
7.536774533333333,-1.1122447733333436,-1.0994786933333272
8.778275766666667,-1.2909698866666768,-1.3611833466666605
10.019777,-1.4696950000000102,-1.6228879999999941
10.019777,-1.4696950000000102,-1.6228879999999943
10.907019666666669,-1.4441628666666768,-1.3579918333333278
11.794262333333336,-1.4186307333333437,-1.0930956666666611
12.681505000000003,-1.3930986000000105,-0.8281994999999944
12.681505000000003,-1.3930986000000105,-0.8281994999999944
12.987891000000005,-1.1537345666666772,-0.7803266999999944
13.294277000000003,-0.914370533333344,-0.7324538999999942
13.600663000000003,-0.6750065000000105,-0.6845810999999942
13.600663000000003,-0.6750065000000105,-0.6845810999999942
13.600663000000003,-0.6750065000000105,-0.6845810999999942
13.080445166666669,-1.4345882666666772,0.014361833333339144
12.560227333333335,-2.194170033333344,0.7133047666666724
12.040009500000002,-2.9537518000000103,1.412247700000006
10.255949800000002,-2.9729009333333436,1.817570700000006
8.471890100000001,-2.992050066666677,2.222893700000006
6.687830400000002,-3.0111992000000107,2.628216700000006
6.687830400000002,-3.0111992000000107,2.628216700000006
6.161229600000002,-2.002678853000011,2.7399199666666725
5.634628800000002,-0.9941585060000108,2.85162323333334
5.108028000000004,0.014361840999989273,2.9633265000000066
5.108028000000004,0.014361840999989273,2.9633265000000066
5.730374333333336,-0.41330187266667734,2.4686408666666737
6.352720666666669,-0.840965586333344,1.97395523333334
6.975067000000002,-1.2686293000000106,1.4792696000000067
6.975067000000002,-1.2686293000000106,1.4792696000000067
8.822957333333337,-2.028211100000011,1.0611804566666734
10.670847666666669,-2.7877929000000106,0.6430913133333399
12.518738,-3.547374700000011,0.22500217000000652
12.518738,-3.547374700000011,0.22500217000000652
13.466619333333336,-3.703759133333344,0.4133018666666732
14.414500666666669,-3.860143566666677,0.6016015633333398
15.362382000000002,-4.01652800000001,0.7899012600000065
15.362382000000002,-4.016528000000009,0.7899012600000065
14.82620666666667,-3.7292912000000094,1.134585406666673
14.290031333333337,-3.4420544000000093,1.4792695533333398
13.753856000000004,-3.1548176000000097,1.8239537000000066
13.753856000000004,-3.1548176000000097,1.8239537000000066
13.217680333333336,-3.049497466666676,1.23033097433334
12.681504666666669,-2.944177333333343,0.6367082486666733
12.145329000000002,-2.83885720000001,0.043085523000006676
12.145329000000002,-2.83885720000001,0.043085523000006676
11.17829866666667,-2.7143879000000095,-0.11329896799999332
10.211268333333338,-2.5899186000000096,-0.2696834589999933
9.244238000000008,-2.4654493000000097,-0.4260679499999933
9.244238000000008,-2.4654493000000097,-0.4260679499999933
7.798479466666676,-1.9484230466666765,0.011170300000006702
6.352720933333344,-1.4313967933333434,0.44840855000000673
4.906962400000011,-0.9143705400000101,0.8856468000000067
4.906962400000011,-0.91437054000001,0.8856468000000067
5.082495933333344,-0.8345825266666766,0.5186220000000068
5.2580294666666765,-0.7547945133333434,0.1515972000000068
5.433563000000009,-0.6750065000000101,-0.2154275999999932
5.433563000000009,-0.6750065000000101,-0.2154275999999932
6.579319000000008,-0.6526658666666768,-0.6143676333333264
7.725075000000007,-0.6303252333333434,-1.0133076666666598
8.870831000000004,-0.6079846000000102,-1.4122476999999931
8.870831000000004,-0.6079846000000102,-1.4122476999999931
10.766593666666672,-0.6622404433333435,-1.3899070333333265
12.66235633333334,-0.7164962866666769,-1.36756636666666
14.558119000000007,-0.7707521300000102,-1.3452256999999934
14.558119000000007,-0.7707521300000102,-1.3452256999999934
14.775142333333342,-1.0324567866666767,-1.3260765999999933
14.992165666666677,-1.2941614433333435,-1.3069274999999934
15.209189000000011,-1.5558661000000102,-1.2877783999999934
15.209189000000011,-1.5558661000000102,-1.2877783999999937
13.709174666666677,-1.788847066666677,-0.3398968999999936
12.209160333333342,-2.0218280333333434,0.6079846000000064
10.709146000000006,-2.2548090000000096,1.5558661000000065
10.709146000000004,-2.254809000000009,1.5558661000000065
10.709146000000004,-2.254809000000009,1.5558661000000065
10.153821333333337,-1.8303368133333429,1.629271066666673
9.598496666666671,-1.4058646266666763,1.7026760333333397
9.043172000000004,-0.9813924400000099,1.7760810000000065
7.584647400000004,-0.62713370500001,1.89097573333334
6.1261228000000045,-0.27287497000000993,2.005870466666673
4.667598200000005,0.08138376499999007,2.1207652000000063
4.667598200000005,0.08138376499999007,2.120765200000006
5.267604000000005,-0.49947289000001,1.5558661166666727
5.867609800000004,-1.08032954500001,0.9909670333333395
6.467615600000003,-1.6611862000000102,0.42606795000000613
6.467615600000003,-1.6611862000000102,0.42606795000000613
6.467615600000003,-1.6611862000000102,0.42606795000000613
8.20699406666667,-2.2739581333333434,0.40053578333333945
9.946372533333337,-2.886730066666677,0.3750036166666728
11.685751000000005,-3.4995020000000103,0.3494714500000062
12.904911666666672,-3.54418320000001,0.5856439333333394
14.12407233333334,-3.5888644000000105,0.8218164166666728
15.343233000000007,-3.6335456000000104,1.057988900000006
15.343233000000007,-3.6335456000000104,1.057988900000006
15.154933333333341,-3.173966733333344,1.4792696000000063
14.966633666666675,-2.714387866666677,1.9005503000000061
14.77833400000001,-2.2548090000000105,2.321831000000006
14.77833400000001,-2.2548090000000105,2.321831000000006
13.46661900000001,-1.8782096000000106,1.9069333666666732
12.15490400000001,-1.5016102000000107,1.4920357333333396
10.843189000000011,-1.1250108000000107,1.0771381000000064
10.843189000000011,-1.1250108000000107,1.0771381000000064
11.414471333333346,-1.5399084666666774,0.41330188666667306
11.98575366666668,-1.954806133333344,-0.25053432666666037
12.557036000000013,-2.3697038000000106,-0.9143705399999936
12.557036000000016,-2.3697038000000106,-0.9143705399999936
10.69318823333335,-2.0250196000000105,-0.6750065199999936
8.829340466666682,-1.6803354000000106,-0.4356424999999937
6.965492700000016,-1.335651200000011,-0.1962784799999937
6.965492700000017,-1.335651200000011,-0.1962784799999937
6.18357013333335,-1.160117600000011,-0.07180919666666037
5.401647566666682,-0.9845840000000111,0.05266008666667297
4.619725000000015,-0.8090504000000113,0.1771293700000063
4.619725000000016,-0.8090504000000113,0.17712937000000628
4.619725000000016,-0.8090504000000113,0.17712937000000628
5.13675133333335,-0.8984129666666779,-0.3686205533333271
5.6537776666666835,-0.9877755333333448,-0.9143704766666604
6.170804000000017,-1.0771381000000118,-1.4601203999999939
8.280399000000017,-1.211181933333345,-1.396290033333327
10.389994000000017,-1.3452257666666785,-1.3324596666666604
12.499589000000014,-1.4792696000000118,-1.2686292999999935
12.499589000000014,-1.4792696000000118,-1.2686292999999935
12.828315333333348,-1.281395333333345,-0.9877755166666603
13.15704166666668,-1.0835210666666784,-0.7069217333333272
13.485768000000014,-0.8856468000000115,-0.4260679499999939
13.485768000000014,-0.8856468000000115,-0.4260679499999939
13.485768000000014,-0.8856468000000115,-0.4260679499999939
13.042146666666682,-0.9654348000000116,-0.0367024999999939
12.598525333333349,-1.0452228000000117,0.3526629500000061
12.154904000000016,-1.1250108000000116,0.7420284000000062
11.529366333333348,-1.6165049666666782,1.1665006000000064
10.903828666666678,-2.1079991333333448,1.5909728000000065
10.27829100000001,-2.5994933000000113,2.0154450000000064
10.278291000000008,-2.5994933000000118,2.015445000000007
9.381473666666675,-2.015445066666678,1.7665064333333398
8.484656333333342,-1.4313968333333449,1.517567866666673
7.587839000000009,-0.8473486000000117,1.2686293000000062
7.587839000000009,-0.8473486000000117,1.2686293000000062
7.587839000000009,-0.8473486000000117,1.2686293000000062
7.354858166666676,-0.7260708333333451,1.2845869000000063
7.121877333333344,-0.6047930666666785,1.3005445000000064
6.888896500000011,-0.48351530000001186,1.3165021000000066
7.246346666666677,-1.1952243000000118,1.3324597000000067
7.603796833333344,-1.906933300000012,1.3484173000000068
7.96124700000001,-2.6186423000000123,1.364374900000007
7.96124700000001,-2.6186423000000123,1.3643749000000074
9.97509600000001,-3.068646633333346,1.2909699333333406
11.98894500000001,-3.5186509666666796,1.217564966666674
14.00279400000001,-3.968655300000013,1.1441600000000072
14.00279400000001,-3.968655300000013,1.1441600000000072
14.00279400000001,-3.968655300000013,1.1441600000000072
14.462373333333344,-3.7388658333333464,1.306927500000007
14.921952666666677,-3.50907636666668,1.4696950000000069
15.381532000000009,-3.2792869000000135,1.6324625000000068
15.381532000000009,-3.2792869000000144,1.6324625000000068
14.602801000000008,-2.7526861000000147,1.8494858666666734
13.824070000000008,-2.226085300000015,2.06650923333334
13.045339000000007,-1.699484500000015,2.2835326000000067
12.844273333333343,-2.2005531333333486,1.5143762660000064
12.643207666666678,-2.7016217666666815,0.7452199320000062
12.442142000000013,-3.2026904000000145,-0.023936401999993695
12.442142000000013,-3.2026904000000145,-0.023936401999993695
12.442142000000013,-3.2026904000000145,-0.023936401999993695
11.676177000000015,-2.8899214666666815,-0.25372585466666037
10.910212000000016,-2.5771525333333485,-0.4835153073333271
10.144247000000016,-2.264383600000015,-0.7133047599999937
10.144247000000014,-2.264383600000015,-0.7133047599999939
8.787850833333346,-1.6899099466666818,-0.3494714599999939
7.431454666666679,-1.1154362933333484,0.014361840000006102
6.075058500000012,-0.5409626400000151,0.3781951400000061
6.196336333333345,0.06861770666665157,-0.03031943999999387
6.3176141666666785,0.6781980533333183,-0.43883401999999383
6.438892000000011,1.287778399999985,-0.8473485999999938
6.438892000000011,1.287778399999985,-0.8473485999999936
6.438892000000011,1.287778399999985,-0.8473485999999936
6.655915333333344,0.5888354666666517,-1.2399055999999937
6.872938666666678,-0.11010746666668166,-1.6324625999999938
7.089962000000011,-0.809050400000015,-2.0250195999999936
7.089962000000011,-0.809050400000015,-2.0250195999999936
9.387856333333346,-0.9526688000000152,-1.8367198666666606
11.685750666666678,-1.0962872000000152,-1.6484201333333275
13.98364500000001,-1.239905600000015,-1.4601203999999945
14.25173300000001,-1.3739494666666818,-1.2047988099999944
14.519821000000013,-1.5079933333333484,-0.9494772199999945
14.787909000000013,-1.642037200000015,-0.6941556299999944
14.787909000000013,-1.642037200000015,-0.6941556299999944
14.787909000000013,-1.642037200000015,-0.6941556299999944
13.683643000000012,-1.6292711000000148,0.3622375800000057
12.579377000000013,-1.616505000000015,1.418630790000006
11.475111000000012,-1.6037389000000148,2.475024000000006
11.475111000000012,-1.6037389000000148,2.475024000000006
10.808083333333348,-1.6579947333333482,1.9356570533333395
10.141055666666682,-1.7122505666666816,1.3962901066666726
9.474028000000018,-1.766506400000015,0.8569231600000059
9.47402800000002,-1.766506400000015,0.8569231600000059
8.139972466666686,-1.2909699000000152,1.0611804400000058
6.805916933333351,-0.8154334000000153,1.2654377200000058
5.471861400000017,-0.3398969000000152,1.4696950000000057
5.471861400000016,-0.3398969000000152,1.4696950000000057
5.870801266666682,-0.8345825000000153,1.5941643000000056
6.269741133333348,-1.3292681000000155,1.7186336000000058
6.668681000000014,-1.8239537000000154,1.8431029000000059
6.668681000000014,-1.8239537000000154,1.8431029000000059
8.436783333333347,-2.1303396666666825,1.6452286333333392
10.204885666666682,-2.436725633333349,1.4473543666666728
11.972988000000015,-2.7431116000000153,1.2494801000000064
11.972988000000015,-2.7431116000000153,1.2494801000000064
13.390022666666681,-2.998433200000015,1.3484172333333395
14.807057333333347,-3.253754800000015,1.4473543666666726
16.224092000000013,-3.5090764000000143,1.5462915000000057
16.224092000000013,-3.5090764000000143,1.5462915000000053
15.652810000000011,-3.1771582666666816,1.5909728000000054
15.081528000000011,-2.8452401333333484,1.6356541000000053
14.51024600000001,-2.513322000000015,1.6803354000000053
14.51024600000001,-2.513322000000015,1.6803354000000053
13.60704600000001,-2.238851300000015,1.2686292900000053
12.703846000000008,-1.964380600000015,0.8569231800000056
11.800646000000008,-1.6899099000000148,0.44521707000000554
11.800646000000008,-1.6899099000000148,0.44521707000000554
11.372982000000007,-1.8877841333333485,0.16436329333333888
10.945318000000007,-2.085658366666682,-0.11649048333332779
10.517654000000007,-2.283532600000015,-0.3973442599999945
10.517654000000007,-2.2835326000000156,-0.3973442599999945
8.61550833333334,-1.9707636333333485,-0.09734135666666115
6.713362666666673,-1.657994666666682,0.20266154666667222
4.811217000000006,-1.3452257000000154,0.5026644500000056
4.811217000000006,-1.3452257000000154,0.5026644500000056
4.999516666666675,-1.1665006000000153,0.08776683333333894
5.187816333333342,-0.9877755000000153,-0.32713078333332773
5.37611600000001,-0.8090504000000154,-0.7420283999999945
5.37611600000001,-0.8090504000000154,-0.7420283999999945
6.410168333333343,-0.9590518333333488,-0.9622432999999945
7.444220666666676,-1.1090532666666824,-1.1824581999999944
8.478273000000009,-1.2590547000000156,-1.4026730999999943
8.478273000000009,-1.2590547000000154,-1.4026730999999948
10.33254633333334,-1.3611833666666822,-1.201607333333328
12.186819666666674,-1.4633120333333487,-1.0005415666666615
14.041093000000009,-1.5654407000000152,-0.7994757999999949
14.041093000000009,-1.5654407000000152,-0.7994757999999949
14.870888666666673,-1.3069275533333486,-1.057988933333328
15.700684333333337,-1.0484144066666818,-1.3165020666666611
16.53048,-0.7899012600000153,-1.5750151999999946
16.53048,-0.7899012600000153,-1.5750151999999946
13.916624333333337,-1.3930986066666817,-0.5122389999999946
11.30276866666667,-1.9962959533333484,0.5505372000000054
8.688913000000005,-2.5994933000000153,1.6133134000000053
8.688913000000007,-2.5994933000000153,1.6133134000000053
8.96657533333334,-2.350554700000015,1.6643777333333387
9.244237666666676,-2.101616100000015,1.7154420666666719
9.52190000000001,-1.8526775000000149,1.7665064000000053
9.52190000000001,-1.8526775000000146,1.7665064000000053
8.120822800000008,-1.1090532866666813,1.6803353333333384
6.7197456000000075,-0.36542907333334806,1.5941642666666718
5.318668400000008,0.3781951399999852,1.507993200000005
5.318668400000007,0.3781951399999852,1.507993200000005
5.462286800000007,0.10691592666665191,1.4186306666666717
5.605905200000007,-0.1643632866666814,1.3292681333333387
5.749523600000007,-0.43564250000001475,1.2399056000000055
5.749523600000007,-0.43564250000001475,1.2399056000000055
7.342092066666674,-1.5877812666666813,1.1186278333333386
8.934660533333341,-2.739920033333348,0.9973500666666718
10.527229000000009,-3.892058800000015,0.8760723000000054
10.52722900000001,-3.892058800000015,0.8760723000000054
10.52722900000001,-3.892058800000015,0.8760723000000054
11.810220333333346,-4.029294200000016,1.1505430333333388
13.093211666666678,-4.166529600000016,1.4250137666666722
14.376203000000011,-4.303765000000015,1.6994845000000056
14.618758333333341,-3.975038400000015,1.4537374333333386
14.861313666666675,-3.646311800000015,1.207990366666672
15.103869000000008,-3.3175852000000146,0.9622433000000054
15.103869000000008,-3.3175852000000146,0.9622433000000054
14.11130633333334,-2.9505604000000147,0.7292623400000053
13.118743666666674,-2.583535600000015,0.49628138000000543
12.126181000000008,-2.2165108000000147,0.2633004200000054
12.126181000000008,-2.2165108000000147,0.2633004200000055
12.126181000000008,-2.2165108000000147,0.2633004200000055
12.560227666666671,-2.484598533333348,0.05904313000000546
12.994274333333337,-2.752686266666682,-0.14521415999999454
13.428321000000002,-3.0207740000000154,-0.3494714499999945
11.334683800000002,-2.6409830666666823,0.01436183333333881
9.241046600000002,-2.2611921333333487,0.37819511666667216
7.147409400000002,-1.8814012000000153,0.7420284000000056
7.147409400000002,-1.8814012000000153,0.7420284000000056
6.161229733333335,-1.5048018000000154,0.6718149666666723
5.1750500666666674,-1.1282024000000155,0.6016015333333389
4.1888704,-0.7516030000000157,0.5313881000000055
4.1888704,-0.7516030000000157,0.5313881000000055
4.1888704,-0.7516030000000157,0.5313881000000055
4.549512033333333,-0.8058588466666823,-0.23138523333332783
4.910153666666667,-0.8601146933333489,-0.9941585666666612
5.2707953000000005,-0.9143705400000156,-1.7569318999999946
6.691021866666667,-0.907987493333349,-1.7792724999999947
8.111248433333335,-0.9016044466666825,-1.8016130999999944
9.531475000000002,-0.8952214000000159,-1.8239536999999941
9.531475,-0.8952214000000159,-1.8239536999999941
11.500643000000002,-1.0324567333333492,-1.4888440999999941
13.469811000000002,-1.1696920666666826,-1.1537344999999941
15.438979000000003,-1.3069274000000157,-0.818624899999994
15.438979000000003,-1.3069274000000155,-0.818624899999994
15.438979000000003,-1.3069274000000155,-0.818624899999994
15.097486333333336,-1.5909727000000158,-0.4835152866666606
14.755993666666669,-1.8750180000000158,-0.14840567333332724
14.414501000000001,-2.159063300000016,0.1867039400000061
14.414501000000001,-2.159063300000016,0.1867039400000061
13.176191333333335,-2.2867241333333497,1.1633091266666726
11.93788166666667,-2.4143849666666832,2.1399143133333394
10.699572000000003,-2.542045800000017,3.116519500000006
9.572965100000003,-1.8590604833333504,2.548428900000006
8.446358200000002,-1.1760751666666835,1.9803383000000065
7.319751300000001,-0.4930898500000169,1.4122477000000064
7.319751300000001,-0.4930898500000169,1.4122477000000064
7.319751300000001,-0.4930898500000169,1.4122477000000064
6.556978100000002,-0.1867039166666836,1.348417266666673
5.794204900000003,0.11968201666664974,1.2845868333333392
5.031431700000003,0.4260679499999831,1.2207564000000055
5.031431700000003,0.4260679499999831,1.2207564000000055
6.052718133333336,-0.5026643666666836,0.9047959266666723
7.074004566666669,-1.4313966833333502,0.5888354533333392
8.095291000000001,-2.360129000000017,0.27287498000000604
9.541049666666668,-3.04311443333335,0.4005357866666726
10.986808333333334,-3.726099866666683,0.5281965933333392
12.432567,-4.409085300000016,0.6558574000000058
12.432567,-4.409085300000016,0.6558574000000058
12.432567,-4.409085300000016,0.6558574000000058
13.201723333333334,-4.128231466666683,0.8409655666666725
13.970879666666667,-3.84737763333335,1.0260737333333394
14.740035999999998,-3.566523800000017,1.2111819000000061
14.740035999999998,-3.566523800000017,1.2111819000000061
14.475139666666665,-2.995241700000017,1.4186307000000065
14.210243333333333,-2.423959600000017,1.6260795000000066
13.945347,-1.852677500000017,1.8335283000000067
13.335767000000002,-1.7409743000000166,1.33884268333334
12.726187000000003,-1.6292711000000164,0.8441570666666735
12.116607000000004,-1.5175679000000162,0.34947145000000684
12.116607000000004,-1.5175679000000162,0.34947145000000684
12.116607000000004,-1.5175679000000162,0.34947145000000684
11.60596366666667,-1.8526775333333496,0.023936400000006852
11.095320333333335,-2.187787166666683,-0.30159864999999314
10.584677000000001,-2.5228968000000163,-0.6271336999999931
10.584677000000001,-2.5228968000000163,-0.6271336999999931
8.896362666666668,-2.092041566666683,-0.3909612116666598
7.208048333333335,-1.6611863333333494,-0.1547887233333265
5.519734000000002,-1.230331100000016,0.08138376500000681
5.519734000000002,-1.230331100000016,0.08138376500000681
5.392073233333335,-0.9654349000000163,-0.18032087999999322
5.264412466666667,-0.7005387000000164,-0.4420255249999932
5.1367517000000005,-0.4356425000000164,-0.7037301699999933
6.100590800000002,-0.5377711333333498,-0.77713513666666
7.064429900000003,-0.6398997666666831,-0.8505401033333267
8.028269000000003,-0.7420284000000165,-0.9239450699999935
8.028269000000003,-0.7420284000000165,-0.9239450699999935
8.028269000000003,-0.7420284000000165,-0.9239450699999935
10.048501000000003,-0.7324538533333498,-0.7388369033333267
12.068733000000003,-0.7228793066666831,-0.55372873666666
14.088965000000004,-0.7133047600000165,-0.3686205699999933
14.088965000000004,-0.7133047600000166,-0.3686205699999933
14.452798666666672,-0.60160155333335,-0.3845781799999933
14.816632333333336,-0.4898983466666833,-0.4005357899999933
15.180466000000001,-0.3781951400000167,-0.4164933999999933
13.619812666666666,-1.3133105266666831,0.28244953333334005
12.059159333333332,-2.24842591333335,0.9813924666666735
10.498505999999997,-3.183541300000016,1.6803354000000068
10.498505999999999,-3.183541300000016,1.6803354000000068
10.498505999999999,-3.183541300000016,1.6803354000000068
10.498505999999999,-3.183541300000016,1.6803354000000068
10.498505999999999,-3.183541300000016,1.6803354000000068
10.498505999999999,-3.183541300000016,1.6803354000000068
8.781467999999998,-1.9260823666666826,1.5367169666666738
7.064429999999999,-0.6686234333333494,1.3930985333333405
5.347391999999999,0.5888354999999837,1.2494801000000075
5.347391999999999,0.5888354999999837,1.2494801000000075
5.510159666666666,0.3015986733333171,1.275012266666674
5.672927333333331,0.01436184666665045,1.300544433333341
5.835694999999998,-0.2728749800000162,1.3260766000000075
5.835694999999998,-0.2728749800000162,1.3260766000000075
5.835694999999998,-0.2728749800000162,1.3260766000000075
7.610179999999999,-1.6388455533333495,1.0899041100000073
9.384665,-3.004816126666683,0.8537316200000072
11.159149999999999,-4.370786700000017,0.6175591300000073
12.301714333333331,-4.412276466666683,0.7547945200000074
13.444278666666667,-4.453766233333351,0.8920299100000073
14.586843000000002,-4.495256000000018,1.0292653000000074
14.586843000000002,-4.495256000000018,1.0292653000000072
14.666631,-3.981421266666684,1.239905600000007
14.746418999999998,-3.4675865333333498,1.450545900000007
14.826206999999997,-2.9537518000000156,1.6611862000000073
14.826206999999997,-2.9537518000000156,1.6611862000000073
14.826206999999997,-2.9537518000000156,1.6611862000000073
13.852793333333329,-2.558003333333349,1.3101190000000071
12.87937966666666,-2.1622548666666828,0.9590518000000069
11.905965999999992,-1.766506400000016,0.6079846000000069
12.177245333333325,-2.0122534333333495,0.1260650533333402
12.448524666666659,-2.2580004666666826,-0.35585449333332647
12.719803999999995,-2.5037475000000162,-0.8377740399999931
12.719803999999996,-2.5037475000000167,-0.8377740399999931
10.511271999999996,-2.194170066666683,-0.3430884099999931
8.302739999999996,-1.8845926333333498,0.15159722000000686
6.094207999999996,-1.5750152000000164,0.6462828500000068
6.094207999999995,-1.5750152000000164,0.6462828500000067
6.094207999999995,-1.5750152000000164,0.6462828500000067
5.6282459999999945,-1.3930985666666833,0.5186220400000067
5.162283999999995,-1.2111819333333498,0.3909612300000067
4.696321999999996,-1.0292653000000163,0.2633004200000067
4.696321999999996,-1.029265300000016,0.2633004200000067
5.226114333333329,-1.0005416000000162,-0.33032235333332644
5.755906666666661,-0.9718179000000161,-0.9239451266666597
6.285698999999994,-0.9430942000000161,-1.517567899999993
8.092099333333328,-1.1026702000000161,-1.2271395499999933
9.89849966666666,-1.262246200000016,-0.9367111999999936
11.704899999999995,-1.4218222000000162,-0.6462828499999937
11.704899999999995,-1.4218222000000162,-0.6462828499999937
11.704899999999995,-1.4218222000000162,-0.6462828499999937
12.384693999999994,-1.4633119666666827,-0.3175562666666604
13.064487999999992,-1.5048017333333492,0.011170316666672933
13.744281999999991,-1.5462915000000157,0.3398969000000063
13.744281999999991,-1.5462915000000155,0.3398969000000063
13.715558333333325,-1.4090561333333487,0.45479163333333955
13.686834666666657,-1.2718207666666819,0.5696863666666728
13.658110999999991,-1.1345854000000153,0.6845811000000063
12.665547999999992,-1.4473544000000154,1.2750123000000064
11.672984999999992,-1.7601234000000157,1.8654435000000065
10.680421999999993,-2.0728924000000157,2.4558747000000065
10.680421999999993,-2.0728924000000153,2.455874700000006
10.680421999999993,-2.0728924000000153,2.455874700000006
9.330408999999994,-1.4696950733333487,2.0537431666666723
7.9803959999999945,-0.866497746666682,1.6516116333333393
6.630382999999995,-0.26330042000001513,1.249480100000006
6.630382999999995,-0.26330042000001513,1.2494801000000058
6.158038133333328,-0.36223753333334846,1.2494801000000058
5.685693266666661,-0.4611746466666818,1.2494801000000058
5.213348399999995,-0.5601117600000152,1.2494801000000058
6.1931452666666615,-1.227139506666682,0.9207535400000056
7.172942133333328,-1.8941672533333485,0.5920269800000056
8.152738999999995,-2.561195000000015,0.2633004200000056
8.152738999999995,-2.561195000000015,0.2633004200000056
8.152738999999995,-2.561195000000015,0.2633004200000056
10.089991666666661,-2.909070666666682,0.3590460133333389
12.027244333333329,-3.256946333333349,0.45479160666667223
13.964496999999994,-3.604822000000016,0.5505372000000056
13.964496999999994,-3.604822000000016,0.5505372000000056
14.219818333333327,-3.368649533333349,0.8664977000000057
14.475139666666658,-3.1324770666666826,1.1824582000000057
14.730460999999991,-2.896304600000016,1.4984187000000058
14.730460999999991,-2.896304600000016,1.4984187000000058
14.191094333333325,-2.5803440666666826,1.5462915333333391
13.651727666666659,-2.264383533333349,1.5941643666666723
13.112360999999993,-1.9484230000000153,1.6420372000000054
13.112360999999993,-1.9484230000000153,1.6420372000000054
12.943210333333326,-2.1431057333333485,0.9111790666666723
12.774059666666659,-2.337788466666682,0.18032093333333887
12.604908999999992,-2.5324712000000154,-0.5505371999999945
12.604908999999992,-2.5324712000000154,-0.5505371999999945
11.318726333333325,-2.334596966666682,-0.5026644066666611
10.03254366666666,-2.136722733333349,-0.45479161333332785
8.746360999999993,-1.938848500000016,-0.4069188199999945
8.746360999999993,-1.938848500000016,-0.4069188199999945
7.565498499999993,-1.5431000000000161,-0.08138376333332786
6.384635999999993,-1.1473515000000163,0.24415129333333882
5.203773499999993,-0.7516030000000166,0.5696863500000054
5.203773499999993,-0.7516030000000166,0.5696863500000054
5.625054199999993,-0.6207506666666832,0.13883113333333882
6.046334899999992,-0.4898983333333499,-0.29202408333332786
6.467615599999991,-0.3590460000000166,-0.7228792999999945
6.467615599999991,-0.3590460000000166,-0.7228792999999945
7.284644733333326,-0.5760693666666833,-0.9782009333333278
8.10167386666666,-0.7930927333333498,-1.2335225666666612
8.918702999999995,-1.0101161000000165,-1.4888441999999946
8.918702999999995,-1.0101161000000165,-1.4888441999999946
10.619783333333329,-1.2271394666666833,-1.2367140999999948
12.32086366666666,-1.44416283333335,-0.9845839999999949
14.021943999999992,-1.6611862000000166,-0.732453899999995
14.181519666666661,-1.5622491000000165,-0.5313881199999949
14.34109533333333,-1.4633120000000164,-0.3303223399999949
14.500670999999999,-1.3643749000000165,-0.12925655999999486
14.500671000000002,-1.3643749000000167,-0.12925655999999486
14.500671000000002,-1.3643749000000167,-0.12925655999999486
13.147466666666668,-1.594164300000017,0.7164962933333386
11.794262333333336,-1.8239537000000172,1.562249146666672
10.441058000000002,-2.0537431000000175,2.408002000000005
10.441058000000004,-2.0537431000000175,2.408002000000005
9.649561000000004,-1.4665034333333506,2.2133192333333387
8.858064000000004,-0.8792637666666838,2.0186364666666723
8.066567000000004,-0.29202410000001705,1.8239537000000052
8.066567000000004,-0.29202410000001705,1.8239537000000052
6.837831866666671,-0.14840569333335038,1.594164266666672
5.609096733333338,-0.00478728666668371,1.3643748333333388
4.380361600000005,0.13883111999998296,1.1345854000000053
4.380361600000005,0.13883111999998296,1.1345854000000053
5.468669933333338,-0.6367082533333505,1.0005415666666722
6.556978266666671,-1.4122476266666837,0.8664977333333391
7.645286600000003,-2.187787000000017,0.732453900000006
7.645286600000003,-2.1877870000000166,0.732453900000006
9.257004066666669,-2.8899214666666837,0.8186249466666725
10.868721533333336,-3.592055933333351,0.9047959933333392
12.480439000000002,-4.294190400000018,0.9909670400000058
12.480438999999999,-4.294190400000018,0.9909670400000058
13.160233,-3.962272333333351,1.2143734266666726
13.840027000000001,-3.6303542666666844,1.4377798133333393
14.519821000000002,-3.2984362000000176,1.661186200000006
14.519821000000002,-3.2984362000000176,1.661186200000006
14.730461333333336,-3.3335428333333517,1.6675692666666724
14.941101666666668,-3.3686494666666853,1.6739523333333388
15.151742,-3.403756100000019,1.6803354000000053
15.151742,-3.403756100000019,1.6803354000000053
14.296414666666669,-3.148434533333352,1.1569260813333386
13.441087333333336,-2.893112966666685,0.633516762666672
12.585760000000002,-2.6377914000000175,0.11010744400000531
12.585760000000002,-2.6377914000000175,0.11010744400000531
12.135755333333336,-2.542045833333351,-0.1388311239999947
11.685750666666669,-2.4463002666666847,-0.3877696919999947
11.235746,-2.350554700000018,-0.6367082599999948
11.235746,-2.350554700000018,-0.6367082599999947
9.541049000000001,-1.8494860000000184,-0.09734135999999467
7.846352,-1.3484173000000184,0.4420255400000053
6.151655000000001,-0.8473486000000183,0.9813924400000053
6.151655000000001,-0.8473486000000182,0.9813924400000053
5.8803759000000015,-0.7899012333333516,0.6143676233333385
5.609096800000003,-0.732453866666685,0.24734280666667185
5.337817700000005,-0.6750065000000184,-0.11968200999999483
5.337817700000005,-0.6750065000000184,-0.11968200999999483
6.055909666666672,-0.8505401000000185,-0.48989837333332814
6.774001633333339,-1.0260737000000184,-0.8601147366666614
7.492093600000007,-1.2016073000000185,-1.2303310999999948
7.492093600000007,-1.2016073000000185,-1.2303310999999946
7.492093600000007,-1.2016073000000185,-1.2303310999999946
8.998491066666672,-1.0707550000000186,-0.9877755499999946
10.50488853333334,-0.9399027000000185,-0.7452199999999948
12.011286000000007,-0.8090504000000185,-0.5026644499999948
12.917677666666675,-0.6239422200000185,-0.5569202999999948
13.824069333333341,-0.4388340400000185,-0.6111761499999947
14.730461000000007,-0.25372586000001857,-0.6654319999999947
14.730461000000007,-0.2537258600000185,-0.6654319999999947
13.377256666666675,-1.0037330733333518,-0.2409597999999947
12.024052333333342,-1.753740286666685,0.18351240000000532
10.670848000000008,-2.503747500000018,0.6079846000000053
10.670848000000008,-2.5037475000000184,0.6079846000000053
10.670848000000008,-2.5037475000000184,0.6079846000000053
10.760210333333342,-2.392044333333352,0.9877754666666719
10.849572666666676,-2.2803411666666853,1.3675663333333385
10.93893500000001,-2.1686380000000187,1.747357200000005
9.413388533333345,-1.5558661100000186,1.3133104900000052
7.887842066666678,-0.9430942200000184,0.8792637800000053
6.362295600000011,-0.33032233000001837,0.44521707000000527
6.362295600000011,-0.33032233000001837,0.44521707000000527
6.122931400000012,-0.3430884100000184,0.6781980466666719
5.883567200000012,-0.3558544900000184,0.9111790233333386
5.6442030000000125,-0.3686205700000184,1.1441600000000054
5.6442030000000125,-0.3686205700000184,1.1441600000000054
6.895279000000013,-1.3899070133333515,1.0547974333333385
8.146355000000012,-2.411193456666685,0.9654348666666716
9.397431000000013,-3.4324799000000183,0.876072300000005
9.397431000000013,-3.4324799000000183,0.876072300000005
11.120852000000014,-3.534608566666685,0.9335196333333383
12.844273000000015,-3.6367372333333514,0.9909669666666715
14.567694000000017,-3.738865900000018,1.0484143000000048
14.567694000000017,-3.738865900000018,1.0484143000000046
14.625141333333351,-3.384607200000018,1.2430970333333378
14.682588666666684,-3.030348500000018,1.4377797666666712
14.740036000000018,-2.6760898000000175,1.6324625000000044
14.740036000000018,-2.6760898000000175,1.6324625000000044
13.849601666666686,-2.289915833333351,1.715442066666671
12.959167333333355,-1.903741866666684,1.7984216333333378
12.068733000000023,-1.5175679000000173,1.8814012000000044
12.068733000000023,-1.5175679000000173,1.8814012000000044
12.068733000000023,-1.5175679000000173,1.8814012000000044
12.276182000000022,-1.7728894666666841,1.1058617766666712
12.483631000000022,-2.028211033333351,0.33032235333333776
12.69108000000002,-2.2835326000000173,-0.44521706999999555
11.462344666666688,-2.3601290666666843,-0.4484085933333289
10.233609333333355,-2.436725533333351,-0.4516001166666623
9.004874000000022,-2.5133220000000174,-0.4547916399999956
9.004874000000022,-2.513322000000017,-0.4547916399999956
7.839969166666688,-1.9165077666666839,-0.13244809333332894
6.6750643333333555,-1.3196935333333504,0.1898954533333377
5.510159500000022,-0.7228793000000171,0.5122390000000044
5.510159500000022,-0.7228793000000172,0.5122390000000044
5.510159500000022,-0.7228793000000172,0.5122390000000044
5.765481166666689,-0.7324538666666841,0.14202266666667107
6.020802833333356,-0.7420284333333509,-0.22819366666666227
6.276124500000023,-0.7516030000000177,-0.5984099999999956
7.2974110000000225,-0.8473486000000175,-0.7579860333333289
8.318697500000022,-0.9430942000000174,-0.9175620666666625
9.339984000000022,-1.0388398000000174,-1.077138099999996
9.339984000000022,-1.0388398000000174,-1.0771380999999962
10.747444333333355,-0.9941585133333506,-0.8345825499999963
12.154904666666688,-0.9494772266666839,-0.5920269999999962
13.562365000000021,-0.9047959400000171,-0.3494714499999962
13.562365000000021,-0.9047959400000171,-0.3494714499999962
13.562365000000021,-0.9047959400000171,-0.3494714499999962
13.85598500000002,-1.0707549933333504,-0.31755625333332954
14.14960500000002,-1.2367140466666837,-0.2856410566666629
14.44322500000002,-1.4026731000000172,-0.25372585999999625
12.767676666666688,-1.8367198000000176,0.4388339933333371
11.092128333333354,-2.270766500000018,1.1313938466666704
9.41658000000002,-2.704813200000018,1.823953700000004
9.41658000000002,-2.704813200000018,1.823953700000004
9.253812666666686,-2.133531146666684,1.5941642666666704
9.091045333333353,-1.562249093333351,1.3643748333333372
8.928278000000022,-0.9909670400000176,1.134585400000004
8.928278000000022,-0.9909670400000176,1.134585400000004
8.928278000000022,-0.9909670400000176,1.134585400000004
8.02507766666669,-0.6462828523333509,1.0771380333333374
7.121877333333356,-0.3015986646666843,1.0196906666666707
6.2186770000000235,0.0430855229999824,0.962243300000004
6.2186770000000235,0.0430855229999824,0.962243300000004
6.544212000000024,-0.43245098466668425,0.8888383333333375
6.869747000000025,-0.9079874923333509,0.8154333666666709
7.195282000000026,-1.3835240000000175,0.7420284000000043
8.27401566666669,-2.0952330000000177,0.6909641000000043
9.352749333333355,-2.8069420000000176,0.6398998000000042
10.43148300000002,-3.518651000000018,0.5888355000000042
10.43148300000002,-3.518651000000018,0.5888355000000042
10.43148300000002,-3.518651000000018,0.5888355000000042
12.119797333333352,-3.419713900000018,0.7803267000000043
13.808111666666685,-3.320776800000018,0.9718179000000043
15.49642600000002,-3.221839700000018,1.1633091000000044
15.49642600000002,-3.221839700000018,1.1633091000000044
15.330466833333352,-2.9569434666666847,1.4058646333333378
15.164507666666685,-2.6920472333333514,1.6484201666666711
14.998548500000018,-2.427151000000018,1.8909757000000045
13.932581000000019,-2.2611920000000176,1.4313968000000044
12.86661350000002,-2.0952330000000177,0.9718179000000043
11.80064600000002,-1.9292740000000173,0.5122390000000043
11.80064600000002,-1.9292740000000173,0.5122390000000042
11.80064600000002,-1.9292740000000173,0.5122390000000042
11.433621333333354,-1.996295866666684,-0.046277033333329075
11.066596666666689,-2.0633177333333506,-0.6047930666666624
10.699572000000023,-2.130339600000017,-1.1633090999999958
10.699572000000023,-2.1303396000000165,-1.1633090999999958
9.033598200000023,-1.9196993000000167,-0.7388369186666625
7.367624400000022,-1.7090590000000168,-0.31436473733332915
5.701650600000022,-1.4984187000000169,0.1101074440000042
5.4590951333333555,-1.2207564666666835,0.03989400266667087
5.216539666666688,-0.94309423333335,-0.030319438666662465
4.973984200000022,-0.6654320000000167,-0.10053287999999579
4.973984200000022,-0.6654320000000166,-0.10053287999999579
4.973984200000022,-0.6654320000000166,-0.10053287999999579
5.854843800000022,-0.7037302200000166,-0.6335167533333291
6.735703400000021,-0.7420284400000167,-1.1665006266666624
7.616563000000021,-0.7803266600000166,-1.6994844999999958
7.616563000000021,-0.7803266600000166,-1.6994844999999958
9.65913600000002,-0.9622433066666835,-1.7218251333333292
11.70170900000002,-1.1441599533333502,-1.7441657666666626
13.74428200000002,-1.326076600000017,-1.7665063999999961
13.74428200000002,-1.326076600000017,-1.7665063999999961
14.55811966666669,-0.9909669866666834,-1.9579975999999961
15.371957333333356,-0.65585737333335,-2.149488799999996
16.185795000000024,-0.32074776000001665,-2.340979999999996
16.185795000000024,-0.32074776000001665,-2.3409799999999965
14.136839000000023,-0.5760693733333501,-1.4984186866666631
12.087883000000025,-0.8313909866666833,-0.6558573733333297
10.038927000000024,-1.0867126000000167,0.18670394000000368
10.038927000000022,-1.0867126000000165,0.18670394000000368
10.249567333333355,-0.9941585333333499,0.716496293333337
10.460207666666689,-0.9016044666666833,1.2462886466666703
10.67084800000002,-0.8090504000000166,1.7760810000000034
10.67084800000002,-0.8090504000000166,1.7760810000000038
9.18998250000002,0.06542613333331677,2.2101276666666703
7.70911700000002,0.93990266666665,2.6441743333333374
6.22825150000002,1.8143791999999834,3.0782210000000045
6.22825150000002,1.8143791999999834,3.078221000000005
6.1708042000000205,0.9239450799999833,3.014390666666672
6.113356900000021,0.03351095999998329,2.950560333333339
6.055909600000021,-0.8569231600000168,2.886730000000006
6.055909600000021,-0.8569231600000168,2.886730000000006
7.022940400000022,-1.7026760066666835,1.6611862466666727
7.989971200000023,-2.5484288533333506,0.43564249333333943
8.957002000000024,-3.394181700000017,-0.7899012599999939
8.957002000000024,-3.394181700000017,-0.7899012599999939
10.45382466666669,-3.2473717333333503,-0.6239422066666606
11.950647333333356,-3.100561766666683,-0.4579831533333271
13.447470000000019,-2.9537518000000156,-0.29202409999999374
13.447470000000019,-2.9537518000000156,-0.29202409999999374
13.450661666666685,-2.806941866666682,0.17712936666667298
13.45385333333335,-2.660131933333349,0.6462828333333396
13.457045000000017,-2.5133220000000156,1.1154363000000063
13.457045000000017,-2.513322000000015,1.1154363000000063
12.97512533333335,-2.5516202333333484,1.0228822133333397
12.493205666666682,-2.5899184666666817,0.9303281266666733
12.011286000000014,-2.6282167000000154,0.8377740400000068
12.011286000000014,-2.628216700000016,0.8377740400000068
12.304906000000017,-2.8643892333333496,0.1803208933333401
12.598526000000016,-3.100561766666683,-0.4771322533333266
12.892146000000016,-3.3367343000000163,-1.1345853999999933
12.892146000000016,-3.3367343000000163,-1.1345853999999933
11.334684000000015,-2.9058791000000164,-0.9111789899999932
9.777222000000014,-2.4750239000000165,-0.6877725799999933
8.219760000000017,-2.0441687000000166,-0.4643661699999933
8.219760000000015,-2.0441687000000166,-0.4643661699999934
7.000599433333348,-1.6228880200000166,-0.020744879999993415
5.78143886666668,-1.2016073400000167,0.4228764100000066
4.562278300000013,-0.7803266600000166,0.8664977000000066
4.562278300000013,-0.7803266600000166,0.8664977000000066
5.028240200000013,-0.6941556400000165,0.3335138333333399
5.494202100000013,-0.6079846200000164,-0.19947003333332677
5.960164000000013,-0.5218136000000163,-0.7324538999999936
5.960164000000013,-0.5218136000000163,-0.7324538999999936
7.7633726666666805,-0.7356454333333495,-0.8250079666666602
9.566581333333348,-0.949477266666683,-0.9175620333333269
11.369790000000016,-1.1633091000000164,-1.0101160999999934
11.369790000000016,-1.1633091000000164,-1.0101160999999934
12.719803000000015,-0.9654348500000163,-0.9686263333333267
14.069816000000015,-0.7675606000000164,-0.9271365666666599
15.419829000000014,-0.5696863500000163,-0.8856467999999932
15.419829000000014,-0.5696863500000163,-0.8856467999999932
14.449607000000015,-0.9335196333333496,-0.6207506433333264
13.479385000000015,-1.2973529166666828,-0.35585448666665975
12.509163000000015,-1.6611862000000162,-0.09095832999999309
12.509163000000015,-1.6611862000000162,-0.09095832999999309
11.574047666666681,-2.0026788666666824,0.5696863466666736
10.638932333333349,-2.3441715333333493,1.2303310233333402
9.703817000000015,-2.685664200000016,1.8909757000000071
9.703817000000015,-2.685664200000016,1.8909757000000071
9.703817000000015,-2.685664200000016,1.8909757000000071
9.097428233333348,-1.8048046410000165,1.4728865533333402
8.491039466666683,-0.9239450820000165,1.0547974066666734
7.884650700000016,-0.04308552300001637,0.6367082600000067
7.182516266666684,0.17712936133331694,0.7994757733333401
6.480381833333351,0.3973442456666503,0.9622432866666735
5.778247400000019,0.6175591299999835,1.125010800000007
5.778247400000019,0.6175591299999835,1.125010800000007
6.311231166666686,-0.2601089133333499,0.7707520813333403
6.844214933333352,-1.1377769566666833,0.4164933626666736
7.377198700000019,-2.015445000000017,0.062234644000006924
7.377198700000019,-2.015445000000017,0.062234644000006924
7.377198700000019,-2.015445000000017,0.062234644000006924
8.810191133333353,-2.6314083666666837,0.04946856333334026
10.243183566666685,-3.2473717333333507,0.036702482666673586
11.676176000000018,-3.863335100000018,0.023936402000006917
12.927252000000019,-3.923974066666684,0.2888325680000069
14.178328000000022,-3.9846130333333503,0.5537287340000069
15.429404000000025,-4.0452520000000165,0.8186249000000069
15.429404000000025,-4.0452520000000165,0.8186249000000069
15.068762333333359,-3.330351400000016,1.2271395000000067
14.708120666666693,-2.615450800000016,1.635654100000007
14.347479000000027,-1.9005502000000163,2.0441687000000073
14.347479000000027,-1.9005502000000163,2.0441687000000073
14.347479000000027,-1.9005502000000163,2.0441687000000073
13.744281666666692,-1.8335283000000164,1.4728865766666737
13.141084333333358,-1.7665064000000168,0.9016044533333402
12.537887000000024,-1.6994845000000172,0.3303223300000068
11.998520000000026,-1.96118913333335,-0.09095833333332652
11.459153000000027,-2.222893766666683,-0.5122389966666598
10.919786000000029,-2.484598400000016,-0.9335196599999932
10.919786000000029,-2.484598400000016,-0.9335196599999932
8.928277500000029,-2.133531200000016,-0.6111761199999931
6.936769000000029,-1.7824640000000163,-0.2888325799999931
4.94526050000003,-1.4313968000000166,0.03351096000000686
4.94526050000003,-1.4313968000000166,0.03351096000000686
5.168666833333363,-1.18564974333335,-0.13883112666665978
5.3920731666666954,-0.9399026866666832,-0.3111732133333264
5.615479500000028,-0.6941556300000166,-0.48351529999999315
5.615479500000028,-0.6941556300000166,-0.48351529999999315
6.202719233333362,-0.6494743400000166,-0.6271337133333265
6.7899589666666955,-0.6047930500000165,-0.7707521266666597
7.377198700000029,-0.5601117600000164,-0.914370539999993
7.377198700000029,-0.5601117600000164,-0.9143705399999927
9.41019680000003,-0.5250050533333498,-1.0228822266666595
11.44319490000003,-0.4898983466666831,-1.1313939133333262
13.47619300000003,-0.45479164000001643,-1.2399055999999928
13.47619300000003,-0.45479164000001643,-1.2399055999999928
14.309180000000032,-0.5345796366666831,-1.290969933333326
15.14216700000003,-0.6143676333333498,-1.3420342666666594
15.975154000000032,-0.6941556300000166,-1.3930985999999927
15.975154000000032,-0.6941556300000166,-1.3930985999999927
13.913432166666697,-1.2271395200000166,-0.7292623999999926
11.851710333333363,-1.7601234100000165,-0.0654261999999927
9.789988500000028,-2.2931073000000164,0.5984100000000073
10.265525000000027,-2.15906343333335,1.0420313333333406
10.741061500000027,-2.0250195666666837,1.4856526666666738
11.216598000000026,-1.8909757000000174,1.9292740000000068
11.216598000000026,-1.8909757000000174,1.9292740000000073
11.216598000000026,-1.8909757000000174,1.9292740000000073
9.53785833333336,-0.9813924533333506,1.9771468000000076
7.859118666666696,-0.07180920666668385,2.025019600000008
6.1803790000000305,0.8377740399999828,2.072892400000008
5.950589333333364,0.3335138599999828,1.7058675666666747
5.720799666666697,-0.1707463200000172,1.338842733333341
5.491010000000031,-0.6750065000000172,0.9718179000000075
5.491010000000031,-0.6750065000000172,0.9718179000000075
6.758043333333365,-1.590972800000017,0.4835153166666741
8.025076666666697,-2.5069391000000163,-0.004787266666659296
9.292110000000031,-3.422905400000016,-0.49308984999999267
9.29211000000003,-3.422905400000016,-0.49308984999999267
10.945317666666694,-3.4867358000000164,-0.1803208766666593
12.598525333333358,-3.550566200000017,0.13244809666667404
14.251733000000023,-3.6143966000000174,0.4452170700000074
14.251733000000021,-3.6143966000000183,0.4452170700000074
14.864505333333355,-3.5282255333333516,0.7005386800000073
15.477277666666689,-3.442054466666685,0.9558602900000072
16.090050000000023,-3.355883400000019,1.211181900000007
16.090050000000023,-3.355883400000019,1.211181900000007
16.090050000000023,-3.355883400000019,1.211181900000007
16.090050000000023,-3.355883400000019,1.211181900000007
16.090050000000023,-3.355883400000019,1.211181900000007
16.090050000000023,-3.355883400000019,1.211181900000007
14.481523333333357,-2.960134933333352,0.7707521186666737
12.872996666666689,-2.564386466666685,0.3303223373333404
11.264470000000022,-2.1686380000000187,-0.11010744399999295
11.264470000000022,-2.1686380000000187,-0.11010744399999295
10.686805000000021,-2.053743233333352,-0.07500072266665962
10.109140000000021,-1.9388484666666852,-0.03989400133332629
9.53147500000002,-1.8239537000000183,-0.004787279999992955
9.53147500000002,-1.8239537000000183,-0.004787279999992954
8.018694333333352,-1.153734486666685,0.1292565666666737
6.505913666666686,-0.4835152733333517,0.26330041333334037
4.993133000000019,0.18670393999998156,0.39734426000000705
4.993133000000019,0.18670393999998156,0.39734426000000705
5.079304166666685,0.11968201299998153,0.08776680666667376
5.165475333333352,0.05266008599998153,-0.22181064666665953
5.251646500000018,-0.014361841000018472,-0.5313880999999929
5.251646500000018,-0.014361841000018472,-0.5313880999999929
6.719745666666685,-0.25691736066668514,-0.7771351666666595
8.187844833333351,-0.49947288033335185,-1.022882233333326
9.655944000000018,-0.7420284000000185,-1.2686292999999926
9.655944000000018,-0.7420284000000185,-1.2686292999999926
11.625112000000017,-0.30159863333335185,-1.3388427333333262
13.594280000000019,0.13883113333331487,-1.4090561666666597
15.56344800000002,0.5792608999999816,-1.4792695999999932
15.56344800000002,0.5792608999999816,-1.4792695999999932
15.506000666666687,0.5313880999999817,-1.4026730999999932
15.448553333333352,0.4835152999999817,-1.3260765999999933
15.39110600000002,0.43564249999998167,-1.2494800999999933
15.39110600000002,0.43564249999998167,-1.2494800999999933
13.275128000000018,-0.19627846666668503,-0.49628136666665984
11.159150000000018,-0.8281994333333517,0.2569173666666736
9.043172000000018,-1.4601204000000185,1.0101161000000072
8.516571333333351,-0.9462856783333518,0.9558602666666737
7.989970666666683,-0.43245095666668504,0.9016044333333403
7.463370000000016,0.08138376499998164,0.8473486000000069
7.463370000000016,0.08138376499998164,0.8473486000000069
6.997408000000017,0.05585160333331498,0.892029880000007
6.531446000000017,0.030319441666648312,0.9367111600000072
6.0654840000000165,0.004787279999981649,0.9813924400000072
6.0654840000000165,0.004787279999981649,0.9813924400000072
6.0654840000000165,0.004787279999981649,0.9813924400000072
6.636766100000017,-0.432450946666685,0.8058588400000072
7.208048200000017,-0.8696891733333515,0.6303252400000071
7.779330300000017,-1.3069274000000182,0.4547916400000071
9.12296053333335,-1.5813981333333513,0.4452170766666737
10.466590766666684,-1.8558688666666845,0.43564251333334036
11.810221000000018,-2.130339600000018,0.426067950000007
11.810221000000018,-2.130339600000018,0.426067950000007
12.888954666666685,-2.299490200000018,0.5728778666666737
13.967688333333351,-2.468640800000018,0.7196877833333403
15.04642200000002,-2.637791400000018,0.8664977000000068
15.04642200000002,-2.6377914000000184,0.8664977000000068
14.685780333333353,-2.580344033333352,1.1728836333333401
14.325138666666687,-2.522896666666685,1.4792695666666733
13.964497000000021,-2.4654493000000186,1.7856555000000067
13.964497000000021,-2.4654493000000186,1.7856555000000067
13.964497000000021,-2.4654493000000186,1.7856555000000067
12.713420666666686,-2.1271481666666854,1.5877812666666733
11.46234433333335,-1.788847033333352,1.3899070333333403
10.211268000000016,-1.4505459000000187,1.192032800000007
10.98361633333335,-1.6037388666666856,0.6462828433333404
11.75596466666668,-1.7569318333333523,0.1005328866666737
12.528313000000011,-1.910124800000019,-0.44521706999999305
12.528313000000011,-1.910124800000019,-0.44521706999999305
10.801700333333343,-1.6133134000000189,-0.22500217999999306
9.075087666666677,-1.3165020000000187,-0.004787289999993061
7.3484750000000085,-1.0196906000000185,0.21542760000000694
7.3484750000000085,-1.0196906000000185,0.21542760000000696
6.333571666666676,-0.748411413333352,0.2601088833333403
5.318668333333342,-0.4771322266666855,0.3047901666666737
4.303765000000008,-0.20585304000001883,0.34947145000000707
4.303765000000007,-0.20585304000001883,0.34947145000000707
5.2676040000000075,-0.1867039233333522,-0.2569173666666596
6.2314430000000085,-0.16755480666668557,-0.8633061833333263
7.195282000000009,-0.14840569000001894,-1.4696949999999929
7.195282000000009,-0.1484056900000189,-1.4696949999999929
9.362324000000006,-0.30159866000001895,-1.6484200999999932
11.529366000000008,-0.45479163000001893,-1.8271451999999933
13.696408000000007,-0.607984600000019,-2.005870299999993
13.696408000000007,-0.607984600000019,-2.005870299999993
14.698545333333344,-0.7228793333333523,-2.0218278999999932
15.700682666666681,-0.8377740666666856,-2.0377854999999934
16.70282000000002,-0.9526688000000191,-2.0537430999999935
16.70282000000002,-0.9526688000000191,-2.0537430999999935
14.057050333333356,-1.3452257333333524,-1.319693503333327
11.41128066666669,-1.7377826666666858,-0.5856439066666602
8.765511000000021,-2.130339600000019,0.14840569000000645
8.765511000000021,-2.130339600000019,0.14840569000000645
9.292111333333354,-1.7441657000000192,0.44840856000000645
9.818711666666688,-1.3579918000000193,0.7484114300000063
10.345312000000023,-0.9718179000000194,1.0484143000000061
10.345312000000023,-0.9718179000000194,1.0484143000000061
9.416579800000024,-0.24095980000001957,1.1186277666666726
8.487847600000025,0.4898982999999803,1.1888412333333394
7.559115400000027,1.2207563999999802,1.259054700000006
7.559115400000027,1.22075639999998,1.259054700000006
6.946343600000027,0.8888383233333136,1.4409713666666726
6.333571800000027,0.5569202466666471,1.6228880333333393
5.720800000000028,0.2250021699999806,1.804804700000006
5.720800000000028,0.2250021699999806,1.804804700000006
6.598468000000028,-0.566494886666686,1.412247700000006
7.476136000000028,-1.3579919433333527,1.019690700000006
8.353804000000027,-2.149489000000019,0.6271337000000058
8.353804000000029,-2.149489000000019,0.6271337000000058
10.176162000000028,-2.312256466666686,0.7164962666666725
11.998520000000028,-2.4750239333333526,0.8058588333333393
13.820878000000027,-2.6377914000000193,0.8952214000000059
13.820878000000027,-2.6377914000000193,0.8952214000000059
13.95811333333336,-2.3920443333333528,1.2526716666666726
14.095348666666693,-2.146297266666686,1.6101219333333392
14.232584000000024,-1.9005502000000198,1.9675722000000062
14.232584000000022,-1.9005502000000198,1.9675722000000062
14.114497666666688,-1.9005502000000198,2.066509333333339
13.996411333333356,-1.9005502000000198,2.165446466666672
13.878325000000023,-1.9005502000000198,2.2643836000000053
13.878325000000023,-1.9005502000000198,2.2643836000000053
13.619812000000024,-1.8750180333333528,1.587781310000005
13.361299000000026,-1.8494858666666858,0.9111790200000051
13.102786000000028,-1.823953700000019,0.23457673000000515
13.102786000000028,-1.823953700000019,0.23457673000000515
11.688942666666692,-1.6579946666666858,0.04308552000000515
10.275099333333358,-1.4920356333333527,-0.14840568999999484
8.861256000000024,-1.3260766000000197,-0.3398968999999948
8.861256000000024,-1.3260766000000197,-0.3398968999999948
7.329326233333357,-1.064371946666686,-0.28244953666666145
5.79739646666669,-0.8026672933333527,-0.22500217333332806
4.265466700000024,-0.5409626400000194,-0.1675548099999947
4.265466700000023,-0.5409626400000193,-0.1675548099999947
4.351637700000023,-0.36223752000001924,-0.37500362666666137
4.437808700000023,-0.18351240000001923,-0.5824524433333281
4.523979700000023,-0.0047872800000191935,-0.7899012599999948
5.880375800000022,-0.05266008333335253,-0.7579860499999947
7.236771900000022,-0.10053288666668586,-0.7260708399999948
8.593168000000022,-0.14840569000001919,-0.6941556299999947
8.593168000000022,-0.14840569000001916,-0.6941556299999947
8.593168000000022,-0.14840569000001916,-0.6941556299999947
10.638932333333356,-0.01755336000001917,-0.9654348199999946
12.684696666666689,0.11329896999998083,-1.2367140099999945
14.730461000000021,0.24415129999998084,-1.5079931999999943
14.730461000000021,0.24415129999998084,-1.5079931999999943
15.18046566666669,-0.10053288666668585,-1.571823633333328
15.630470333333356,-0.44521707333335253,-1.6356540666666615
16.080475000000025,-0.7899012600000193,-1.6994844999999952
14.283649000000024,-1.227139506666686,-0.8952214133333286
12.486823000000022,-1.6643777533333528,-0.09095832666666188
10.689997000000021,-2.1016160000000195,0.7133047600000048
10.689997000000021,-2.1016160000000195,0.7133047600000048
10.689997000000021,-2.1016160000000195,0.7133047600000048
10.370845000000022,-1.3707578900000195,0.9111789733333383
10.051693000000022,-0.6398997800000193,1.1090531866666717
9.73254100000002,0.0909583299999807,1.3069274000000053
8.238909500000021,0.33351385333331396,1.5590575333333385
6.745278000000023,0.5760693766666473,1.8111876666666717
5.251646500000023,0.8186248999999806,2.063317800000005
5.251646500000024,0.8186248999999806,2.063317800000005
5.8388862333333575,0.13244806666664724,1.6771438466666713
6.4261259666666914,-0.553728766666686,1.2909698933333378
7.013365700000025,-1.2399056000000195,0.9047959400000044
7.013365700000025,-1.2399056000000195,0.9047959400000044
8.545295466666692,-1.6388456000000193,0.9239450600000043
10.077225233333358,-2.0377856000000194,0.9430941800000042
11.609155000000024,-2.436725600000019,0.9622433000000042
11.609155000000024,-2.436725600000019,0.9622433000000042
12.426184000000026,-2.302681733333352,1.345225733333338
13.243213000000026,-2.168637866666685,1.7282081666666713
14.060242000000025,-2.0345940000000184,2.111190600000005
14.060242000000025,-2.034594000000018,2.1111906000000054
14.104923000000026,-1.5813981666666848,2.0473601666666714
14.149604000000025,-1.1282023333333515,1.983529733333338
14.194285000000024,-0.6750065000000182,1.9196993000000042
13.492151000000023,-0.7643690666666849,1.370757860000004
12.790017000000022,-0.8537316333333517,0.8218164200000042
12.087883000000021,-0.9430942000000183,0.27287498000000426
12.087883000000021,-0.9430942000000183,0.27287498000000426
12.087883000000021,-0.9430942000000183,0.27287498000000426
11.854902000000022,-1.115436266666685,-0.2824495466666624
11.621921000000022,-1.2877783333333517,-0.8377740733333292
11.388940000000021,-1.4601204000000185,-1.3930985999999959
9.978288000000022,-1.2718207333333515,-1.1026702666666626
8.567636000000023,-1.0835210666666848,-0.8122419333333291
7.156984000000025,-0.8952214000000179,-0.5218135999999957
7.156984000000025,-0.8952214000000179,-0.5218135999999955
6.301656500000026,-0.6718149900000179,-0.37181213333332885
5.446329000000027,-0.44840858000001793,-0.22181066666666216
4.5910015000000275,-0.22500217000001796,-0.07180919999999551
4.591001500000027,-0.22500217000001796,-0.07180919999999551
5.567606766666693,0.011170319999982045,-0.35266297999999546
6.54421203333336,0.24734280999998204,-0.6335167599999955
7.520817300000027,0.48351529999998205,-0.9143705399999954
7.5208173000000285,0.48351529999998205,-0.9143705399999954
8.957001533333361,0.499472899999982,-0.8281994933333289
10.393185766666697,0.515430499999982,-0.7420284466666622
11.829370000000033,0.5313880999999819,-0.6558573999999956
11.829370000000035,0.5313880999999819,-0.6558573999999956
13.217681333333369,0.37500361466664867,-0.882455333333329
14.605992666666703,0.2186191293333154,-1.1090532666666622
15.994304000000037,0.062234643999982096,-1.3356511999999954
15.994304000000037,0.062234643999982096,-1.3356511999999954
14.49428933333337,-0.33670537066668454,-1.0835210999999954
12.994274666666703,-0.7356453853333512,-0.8313909999999956
11.494260000000034,-1.1345854000000177,-0.5792608999999956
11.494260000000034,-1.1345854000000177,-0.5792608999999956
10.40914333333337,-1.447354400000018,0.1994700333333377
9.324026666666702,-1.760123400000018,0.978200966666671
8.238910000000036,-2.072892400000018,1.7569319000000048
8.238910000000036,-2.072892400000018,1.756931900000005
8.258058666666702,-1.2175649833333513,1.3037360200000048
8.277207333333369,-0.36223756666668444,0.8505401400000049
8.296356000000035,0.4930898499999823,0.39734426000000483
8.296356000000035,0.4930898499999823,0.39734426000000483
7.670818200000035,0.4898983333333156,0.9845839400000048
7.045280400000035,0.486706816666649,1.571823620000005
6.419742600000035,0.48351529999998233,2.1590633000000055
6.419742600000035,0.48351529999998233,2.1590633000000055
7.185707400000035,-0.39096123333335103,1.8526774000000057
7.9516722000000355,-1.2654377666666845,1.546291500000006
8.717637000000037,-2.139914300000018,1.239905600000006
9.678284666666702,-2.245234433333351,1.3005444666666726
10.638932333333369,-2.3505545666666845,1.3611833333333392
11.599580000000037,-2.4558747000000176,1.4218222000000058
11.599580000000037,-2.455874700000017,1.4218222000000058
12.368736333333368,-2.194170066666684,1.4154391666666724
13.137892666666701,-1.9324654333333502,1.409056133333339
13.907049000000034,-1.6707608000000167,1.4026731000000057
13.907049000000034,-1.6707608000000167,1.402673100000006
14.4017346666667,-1.7665064000000168,1.4250137333333395
14.896420333333367,-1.862252000000017,1.4473543666666728
15.391106000000034,-1.9579976000000172,1.4696950000000062
15.391106000000034,-1.9579976000000172,1.4696950000000062
14.5613106666667,-1.705867500000017,0.7452199433333396
13.731515333333364,-1.4537374000000167,0.020744886666672995
12.901720000000031,-1.2016073000000167,-0.7037301699999937
12.901720000000031,-1.2016073000000167,-0.7037301699999937
11.96979600000003,-1.3452257000000165,-0.8760722466666602
11.03787200000003,-1.4888441000000165,-1.0484143233333267
10.105948000000032,-1.6324625000000166,-1.220756399999993
10.105948000000032,-1.6324625000000166,-1.220756399999993
8.315505333333364,-1.4058646000000163,-0.7611775166666598
6.525062666666699,-1.1792667000000163,-0.30159863333332665
4.7346200000000325,-0.9526688000000162,0.15798025000000657
4.7346200000000325,-0.9526688000000162,0.15798025000000657
4.7346200000000325,-0.9526688000000162,0.15798025000000657
4.7346200000000325,-0.9526688000000162,0.15798025000000657
4.7346200000000325,-0.9526688000000162,0.15798025000000657
4.7346200000000325,-0.9526688000000162,0.15798025000000657
5.392073266666699,-1.0196907333333496,-0.18670393333332677
6.049526533333366,-1.0867126666666829,-0.5313881166666601
6.706979800000032,-1.1537346000000164,-0.8760722999999935
6.706979800000032,-1.1537346000000166,-0.8760722999999935
9.624029200000033,-1.11543633333335,-0.7260708499999935
12.541078600000034,-1.0771380666666832,-0.5760693999999934
15.458128000000036,-1.0388398000000165,-0.42606794999999326
15.458128000000036,-1.0388398000000165,-0.42606794999999326
16.1187726666667,-0.8250079533333498,-0.8441570999999932
16.779417333333367,-0.6111761066666831,-1.2622462499999931
17.44006200000003,-0.3973442600000163,-1.6803353999999928
17.44006200000003,-0.39734426000001627,-1.6803353999999928
14.057050500000031,-1.1696921733333496,-0.6303252666666597
10.67403900000003,-1.942040086666683,0.41968486666667365
7.29102750000003,-2.714388000000016,1.4696950000000069
7.29102750000003,-2.714388000000016,1.4696950000000069
8.136780333333364,-2.6282169000000164,1.0484143466666735
8.982533166666698,-2.542045800000017,0.6271336933333403
9.828286000000032,-2.455874700000017,0.20585304000000693
9.828286000000032,-2.455874700000017,0.20585304000000693
8.851681000000033,-1.399481546666684,0.5409626600000069
7.875076000000033,-0.34308839333335045,0.8760722800000069
6.8984710000000335,0.7133047599999829,1.2111819000000068
6.8984710000000335,0.7133047599999829,1.2111819000000068
6.882513333333367,0.3303223399999829,1.1920328000000069
6.866555666666699,-0.05266008000001706,1.172883700000007
6.850598000000031,-0.43564250000001703,1.153734600000007
6.850598000000031,-0.43564250000001703,1.153734600000007
8.02188600000003,-1.316502000000017,0.9079875333333405
9.19317400000003,-2.197361500000017,0.6622404666666738
10.36446200000003,-3.078221000000017,0.4164934000000071
11.021915333333363,-2.985667000000017,0.6016015666666739
11.679368666666695,-2.8931130000000174,0.7867097333333405
12.336822000000026,-2.8005590000000176,0.9718179000000072
12.336822000000026,-2.8005590000000176,0.9718179000000072
12.50916383333336,-2.5484289000000175,1.1569260666666739
12.681505666666695,-2.296298800000018,1.3420342333333408
12.853847500000029,-2.044168700000018,1.5271424000000071
12.853847500000029,-2.044168700000018,1.5271424000000071
13.182574000000029,-2.0920414666666844,1.3611833666666742
13.511300500000027,-2.1399142333333514,1.1952243333333408
13.840027000000028,-2.187787000000018,1.0292653000000074
13.840027000000028,-2.187787000000018,1.0292653000000072
13.271936666666695,-2.213319200000018,0.5218135833333405
12.703846333333361,-2.238851400000018,0.014361866666673754
12.135756000000029,-2.264383600000018,-0.49308984999999295
12.135756000000029,-2.264383600000018,-0.49308984999999295
10.562336433333362,-2.0537432333333516,-0.3239392863333263
8.988916866666694,-1.843102866666685,-0.1547887226666596
7.415497300000027,-1.6324625000000186,0.014361841000007055
7.415497300000027,-1.6324625000000186,0.014361841000007055
6.620808766666694,-1.6037388333333522,0.0718092073333404
5.82612023333336,-1.5750151666666854,0.12925657366667373
5.031431700000028,-1.5462915000000186,0.18670394000000703
5.031431700000027,-1.5462915000000184,0.18670394000000703
5.484627466666693,-1.4888441333333517,-0.15798023999999292
5.937823233333359,-1.4313967666666851,-0.5026644199999929
6.391019000000025,-1.3739494000000185,-0.847348599999993
6.391019000000025,-1.3739494000000185,-0.847348599999993
8.36337866666669,-1.1920327666666852,-0.9303280999999931
10.335738333333358,-1.0101161333333522,-1.0133075999999932
12.308098000000024,-0.8281995000000189,-1.0962870999999932
12.308098000000024,-0.8281995000000189,-1.096287099999993
13.773005333333359,-0.4005357866666855,-1.5367169333333262
15.237912666666693,0.027127926666647872,-1.9771467666666596
16.702820000000028,0.4547916399999812,-2.417576599999993
16.702820000000028,0.4547916399999812,-2.417576599999993
14.168753000000024,0.011170326666647837,-1.7282082166666601
11.634686000000022,-0.4324509866666855,-1.0388398333333269
9.10061900000002,-0.8760723000000188,-0.3494714499999936
9.100619000000018,-0.8760723000000188,-0.3494714499999936
9.231471333333351,-1.3228851333333522,-0.08457527666666025
9.362323666666683,-1.7696979666666854,0.1803208966666731
9.493176000000014,-2.216510800000019,0.44521707000000643
9.493176000000014,-2.216510800000019,0.44521707000000643
9.48679333333335,-1.316502100000019,0.4388340300000064
9.480410666666684,-0.41649340000001905,0.4324509900000064
9.474028000000017,0.483515299999981,0.4260679500000064
9.474028000000015,0.483515299999981,0.4260679500000064
8.688913900000014,0.483515299999981,0.9813924666666732
7.903799800000012,0.483515299999981,1.5367169833333396
7.118685700000012,0.483515299999981,2.0920415000000063
7.377198800000012,-0.5026644666666858,1.7473573000000062
7.635711900000011,-1.4888442333333527,1.402673100000006
7.89422500000001,-2.4750240000000194,1.0579889000000058
7.89422500000001,-2.4750240000000194,1.057988900000006
7.89422500000001,-2.4750240000000194,1.057988900000006
9.055938333333344,-2.593110166666686,1.115436300000006
10.217651666666677,-2.7111963333333526,1.172883700000006
11.379365000000012,-2.8292825000000192,1.2303311000000061
12.295331333333346,-2.873963833333353,1.565440666666673
13.211297666666681,-2.918645166666686,1.9005502333333395
14.127264000000016,-2.963326500000019,2.2356598000000063
14.127264000000016,-2.9633265000000186,2.235659800000006
14.165562333333348,-2.883538500000018,2.2388513666666725
14.20386066666668,-2.8037505000000174,2.242042933333339
14.242159000000013,-2.7239625000000167,2.245234500000006
14.242159000000013,-2.7239625000000167,2.245234500000006
13.871942666666678,-2.755877666666683,1.4186307566666727
13.501726333333345,-2.78779283333335,0.5920270133333395
13.131510000000011,-2.8197080000000163,-0.2345767299999939
13.131510000000011,-2.8197080000000163,-0.2345767299999939
12.598526000000012,-2.5611949000000163,-0.6398997866666605
12.065542000000013,-2.302681800000016,-1.045222843333327
11.532558000000014,-2.044168700000016,-1.4505458999999936
11.532558000000014,-2.044168700000016,-1.4505458999999936
9.761264333333346,-1.7122505666666827,-0.9558602799999937
7.989970666666679,-1.3803324333333495,-0.4611746599999937
6.218677000000011,-1.0484143000000161,0.03351096000000631
6.218677000000011,-1.0484143000000161,0.03351096000000631
5.877184333333346,-0.8856467866666827,-0.11329896666666035
5.535691666666679,-0.7228792733333492,-0.26010889333332704
5.194199000000013,-0.560111760000016,-0.40691881999999374
5.194199000000013,-0.560111760000016,-0.40691881999999374
5.596330600000012,-0.572877840000016,-0.5601117799999936
5.998462200000012,-0.585643920000016,-0.7133047399999937
6.400593800000011,-0.598410000000016,-0.8664976999999937
8.960193033333345,-0.6973471333333494,-0.8473485999999936
11.519792266666682,-0.7962842666666828,-0.8281994999999935
14.079391500000016,-0.8952214000000162,-0.8090503999999935
14.079391500000016,-0.8952214000000162,-0.8090503999999935
15.00812433333335,-0.7037301866666829,-1.0420313333333266
15.936857166666684,-0.5122389733333496,-1.2750122666666601
16.865590000000015,-0.32074776000001626,-1.5079931999999934
16.865590000000015,-0.3207477600000163,-1.5079931999999934
14.03790233333335,-1.019690706666683,-0.6973471099999934
11.210214666666682,-1.7186336533333495,0.11329898000000653
8.382527000000014,-2.4175766000000163,0.9239450700000065
8.382527000000014,-2.4175766000000163,0.9239450700000065
8.752743333333347,-2.4494917333333497,0.9909669800000064
9.122959666666683,-2.481406866666683,1.0579888900000063
9.493176000000016,-2.5133220000000165,1.1250108000000063
9.493176000000018,-2.5133220000000165,1.1250108000000063
9.493176000000018,-2.5133220000000165,1.1250108000000063
8.621891200000016,-1.6324624800000163,1.2399055333333395
7.7506064000000165,-0.7516029600000164,1.3548002666666727
6.879321600000016,0.12925655999998367,1.469695000000006
6.652723633333349,-0.033510960000016306,1.5207593333333396
6.426125666666683,-0.19627848000001627,1.571823666666673
6.199527700000016,-0.35904600000001624,1.622888000000006
6.199527700000016,-0.35904600000001624,1.622888000000006
6.984641800000016,-1.2239479333333494,1.294161420000006
7.769755900000015,-2.0888498666666826,0.9654348400000061
8.554870000000014,-2.9537518000000165,0.6367082600000061
8.554870000000014,-2.953751800000017,0.6367082600000062
9.98147966666668,-3.04949743333335,0.7101132266666731
11.408089333333345,-3.1452430666666835,0.7835181933333398
12.834699000000013,-3.240988700000017,0.8569231600000066
12.834699000000013,-3.240988700000017,0.8569231600000066
13.520875666666678,-3.097370300000016,1.1728836733333399
14.207052333333346,-2.9537519000000163,1.4888441866666733
14.893229000000014,-2.8101335000000165,1.8048047000000065
14.893229000000014,-2.810133500000017,1.8048047000000065
14.650673666666682,-2.28034113333335,1.8431029000000063
14.408118333333348,-1.7505487666666832,1.8814011000000062
14.165563000000015,-1.2207564000000166,1.919699300000006
14.165563000000015,-1.2207564000000166,1.919699300000006
14.02832733333335,-1.4728865000000166,1.0228821566666728
13.891091666666682,-1.725016600000017,0.12606501333333942
13.753856000000015,-1.9771467000000176,-0.7707521299999939
13.753856000000015,-1.9771467000000176,-0.7707521299999939
12.186819666666684,-1.9516145333333508,-0.7579860533333272
10.61978333333335,-1.9260823666666838,-0.7452199766666606
9.052747000000016,-1.9005502000000167,-0.7324538999999941
9.052747000000014,-1.9005502000000167,-0.7324538999999941
7.552732466666682,-1.6005473333333502,-0.4611746783333274
6.052717933333349,-1.3005444666666837,-0.18989545666666072
4.552703400000016,-1.0005416000000171,0.08138376500000599
4.916536600000017,-0.8824553500000171,-0.25691737666666065
5.280369800000016,-0.764369100000017,-0.5952185183333273
5.644203000000016,-0.646282850000017,-0.9335196599999941
5.644203000000016,-0.646282850000017,-0.9335196599999941
5.644203000000016,-0.646282850000017,-0.9335196599999941
6.662298000000017,-0.6335167666666837,-1.0611804733333274
7.6803930000000165,-0.6207506833333504,-1.188841286666661
8.698488000000017,-0.607984600000017,-1.3165020999999941
8.698488000000015,-0.607984600000017,-1.3165020999999941
10.731486333333345,-0.576069400000017,-1.265437766666661
12.76448466666668,-0.5441542000000171,-1.2143734333333276
14.797483000000014,-0.5122390000000171,-1.1633090999999942
14.969825000000014,-0.4930898800000172,-1.399481566666661
15.142167000000015,-0.4739407600000172,-1.6356540333333276
15.314509000000015,-0.4547916400000173,-1.871826499999994
15.314509000000015,-0.4547916400000173,-1.871826499999994
15.314509000000015,-0.4547916400000173,-1.871826499999994
13.418746000000015,-0.9526687600000173,-0.6654319333333275
11.522983000000016,-1.4505458800000175,0.5409626333333392
9.627220000000015,-1.9484230000000176,1.7473572000000057
9.100619333333348,-1.6643777000000177,1.4473543333333392
8.574018666666682,-1.3803324000000174,1.1473514666666726
8.047418000000015,-1.0962871000000174,0.847348600000006
8.047418000000015,-1.0962871000000172,0.847348600000006
7.335709000000016,-0.5537287000000172,1.0484143666666725
6.6240000000000165,-0.011170300000017175,1.2494801333333392
5.9122910000000175,0.5313880999999828,1.4505459000000058
5.9122910000000175,0.5313880999999828,1.4505459000000058
6.636766000000016,-0.06542616666668381,1.482461100000006
7.361241000000014,-0.6622404333333506,1.5143763000000063
8.085716000000012,-1.2590547000000172,1.5462915000000066
8.085716000000012,-1.2590547000000172,1.5462915000000066
9.135726000000012,-1.913316366666684,1.5111848000000065
10.185736000000013,-2.567578033333351,1.4760781000000065
11.235746000000013,-3.2218397000000176,1.4409714000000065
11.235746000000013,-3.2218397000000176,1.4409714000000065
12.237883666666681,-3.065455133333351,1.5686321666666732
13.240021333333347,-2.9090705666666845,1.6962929333333399
14.242159000000015,-2.752686000000018,1.8239537000000066
14.242159000000015,-2.752686000000018,1.8239537000000066
14.580460000000015,-2.545237200000018,1.7537402666666733
14.918761000000012,-2.3377884000000173,1.68352683333334
15.257062000000012,-2.130339600000017,1.613313400000007
15.257062000000012,-2.1303396000000165,1.613313400000007
14.430458333333346,-2.0409770666666835,1.2622461866666734
13.60385466666668,-1.95161453333335,0.9111789733333401
12.777251000000014,-1.8622520000000167,0.5601117600000067
12.777251000000014,-1.8622520000000167,0.5601117600000068
12.26022466666668,-2.0377856000000167,-0.0015957599999932108
11.743198333333346,-2.213319200000017,-0.5633032799999932
11.226172000000012,-2.388852800000017,-1.1250107999999932
11.226172000000012,-2.388852800000017,-1.125010799999993
9.560198500000013,-2.1654464333333503,-0.9335195999999929
7.894225000000013,-1.9420400666666833,-0.7420283999999929
6.228251500000013,-1.7186337000000165,-0.5505371999999928
6.228251500000013,-1.7186337000000165,-0.5505371999999928
5.925057133333347,-1.3611834166666832,-0.5058559333333262
5.6218627666666805,-1.0037331333333501,-0.4611746666666596
5.318668400000014,-0.6462828500000167,-0.41649339999999296
5.318668400000014,-0.6462828500000168,-0.41649339999999296
5.966547033333348,-0.5664948400000168,-0.6175591333333263
6.614425666666681,-0.48670683000001685,-0.8186248666666597
7.2623043000000145,-0.4069188200000169,-1.0196905999999928
7.2623043000000145,-0.4069188200000169,-1.0196905999999928
8.800616866666681,-0.45798313333335017,-1.0452227666666596
10.338929433333346,-0.5090474466666834,-1.0707549333333264
11.877242000000015,-0.5601117600000167,-1.0962870999999934
11.877242000000015,-0.5601117600000167,-1.0962870999999936
12.633632333333347,-0.38138664066668343,-1.2367140333333269
13.390022666666681,-0.20266152133335005,-1.3771409666666603
14.146413000000015,-0.02393640200001675,-1.5175678999999935
14.146413000000015,-0.02393640200001675,-1.5175678999999935
13.240021166666681,-0.2664919346666834,-1.0962872199999938
12.333629333333347,-0.5090474673333502,-0.6750065399999939
11.427237500000011,-0.7516030000000168,-0.2537258599999941
11.42723750000001,-0.7516030000000168,-0.2537258599999941
11.063404333333343,-1.1345854000000168,0.46117466000000595
10.699571166666678,-1.517567800000017,1.1760751800000058
10.33573800000001,-1.9005502000000172,1.8909757000000058
10.335738000000008,-1.9005502000000174,1.8909757000000058
9.445304000000009,-1.2143733833333508,1.7441657666666723
8.55487000000001,-0.5281965666666841,1.5973558333333389
7.664436000000012,0.15798024999998259,1.4505459000000054
7.664436000000012,0.15798024999998259,1.4505459000000054
7.291028000000011,0.07500072333331592,1.3675663666666722
6.917620000000011,-0.007978803333350742,1.284586833333339
6.5442120000000115,-0.0909583300000174,1.2016073000000056
6.5442120000000115,-0.0909583300000174,1.2016073000000056
7.517625666666677,-0.9494772200000173,1.112244753333339
8.491039333333342,-1.8079961100000173,1.0228822066666723
9.464453000000008,-2.6665150000000173,0.9335196600000056
10.504888666666675,-2.883538400000017,1.3675663733333387
11.545324333333342,-3.100561800000017,1.8016130866666724
12.58576000000001,-3.3175852000000163,2.235659800000006
12.58576000000001,-3.3175852000000163,2.235659800000006
12.58576000000001,-3.3175852000000163,2.235659800000006
12.80597500000001,-3.2824784666666833,2.369703666666672
13.026190000000012,-3.2473717333333503,2.5037475333333385
13.246405000000012,-3.212265000000017,2.6377914000000047
13.246405000000015,-3.212265000000017,2.6377914000000047
13.52725833333335,-3.014390766666683,2.6026846666666716
13.808111666666685,-2.8165165333333495,2.567577933333338
14.088965000000021,-2.618642300000016,2.532471200000005
14.088965000000021,-2.618642300000016,2.532471200000005
13.390022333333354,-2.388852866666683,1.9228908566666718
12.691079666666687,-2.1590634333333494,1.3133105133333385
11.99213700000002,-1.9292740000000161,0.7037301700000053
11.99213700000002,-1.9292740000000161,0.7037301700000053
11.50702600000002,-1.9803382666666831,0.18670391333333858
11.021915000000021,-2.0314025333333503,-0.33032234333332805
10.536804000000023,-2.082466800000017,-0.8473485999999948
9.23466366666669,-1.699484420000017,-0.5313881066666616
7.932523333333356,-1.316502040000017,-0.21542761333332824
6.630383000000022,-0.9335196600000167,0.10053288000000508
6.630383000000021,-0.9335196600000167,0.10053288000000508
6.630383000000021,-0.9335196600000167,0.10053288000000508
6.518679766666686,-0.48989835333335,-0.062234646666661585
6.406976533333352,-0.04627704666668331,-0.22500217333332828
6.295273300000017,0.3973442599999834,-0.38776969999999494
6.295273300000017,0.3973442599999834,-0.38776969999999494
6.939960533333351,0.20585304999998336,-0.799475799999995
7.584647766666684,0.014361839999983361,-1.211181899999995
8.229335000000018,-0.17712937000001663,-1.622887999999995
8.229335000000018,-0.17712937000001663,-1.622887999999995
8.937852333333351,-0.4260679366666833,-1.2845868666666616
9.646369666666684,-0.67500650333335,-0.9462857333333283
10.354887000000017,-0.9239450700000167,-0.607984599999995
10.354887000000017,-0.9239450700000166,-0.607984599999995
11.542132666666683,-1.2526716466666832,-0.528196589999995
12.72937833333335,-1.58139822333335,-0.448408579999995
13.916624000000018,-1.9101248000000164,-0.368620569999995
13.916624000000018,-1.9101248000000164,-0.368620569999995
13.709175000000018,-2.0218280333333496,0.24734282000000504
13.50172600000002,-2.133531266666683,0.8633062100000051
13.29427700000002,-2.2452345000000165,1.479269600000005
13.29427700000002,-2.2452345000000165,1.479269600000005
12.167670333333353,-1.7696979666666828,1.8079961666666715
11.041063666666686,-1.2941614333333493,2.136722733333338
9.914457000000018,-0.8186249000000161,2.4654493000000044
9.914457000000018,-0.8186249000000161,2.4654493000000044
8.519762766666686,-0.47074921000001596,2.0409771333333375
7.1250685333333506,-0.12287352000001599,1.616504966666671
5.730374300000015,0.22500216999998401,1.1920328000000044
5.730374300000015,0.22500216999998401,1.1920328000000044
5.905907866666683,-0.343088420000016,0.9079875000000043
6.08144143333335,-0.911179010000016,0.6239422000000041
6.256975000000018,-1.479269600000016,0.339896900000004
6.256975000000018,-1.479269600000016,0.339896900000004
7.839969333333351,-1.8909757333333495,0.36223754000000397
9.422963666666684,-2.3026818666666826,0.38457818000000393
11.005958000000016,-2.7143880000000156,0.40691882000000396
11.005958000000016,-2.7143880000000156,0.40691882000000396
12.103840666666683,-2.708004933333349,0.9782009466666707
13.20172333333335,-2.7016218666666827,1.5494830733333373
14.299606000000018,-2.6952388000000163,2.120765200000004
14.29960600000002,-2.6952388000000163,2.1207652000000037
14.36024500000002,-2.5069390666666824,2.1686380000000036
14.42088400000002,-2.3186393333333495,2.216510800000003
14.481523000000019,-2.1303396000000165,2.264383600000003
14.481523000000019,-2.1303396000000165,2.2643836000000026
13.603854666666686,-1.5335253666666835,2.1686379666666693
12.726186333333354,-0.9367111333333501,2.072892333333336
11.848518000000022,-0.3398969000000167,1.977146700000003
11.848518000000022,-0.3398969000000167,1.977146700000003
12.301714000000024,-0.7739436666666836,1.0420313000000028
12.754910000000024,-1.2079904333333504,0.10691590000000269
13.208106000000024,-1.642037200000017,-0.8281994999999974
13.208106000000024,-1.642037200000017,-0.8281994999999974
11.708091666666691,-1.8622520333333503,-0.869689266666664
10.208077333333359,-2.082466866666684,-0.9111790333333306
8.708063000000026,-2.3026817000000173,-0.9526687999999973
8.708063000000026,-2.302681700000017,-0.9526687999999973
8.708063000000026,-2.302681700000017,-0.9526687999999973
8.708063000000026,-2.302681700000017,-0.9526687999999973
8.708063000000026,-2.302681700000017,-0.9526687999999973
8.708063000000026,-2.302681700000017,-0.9526687999999973
7.900608333333359,-1.7058674666666835,-0.9303281333333305
7.093153666666692,-1.10905323333335,-0.9079874666666639
6.285699000000025,-0.5122390000000167,-0.8856467999999972
7.935714666666691,-0.28244954333335,-0.8345824999999971
9.585730333333357,-0.05266008666668335,-0.7835181999999973
11.235746000000022,0.17712936999998333,-0.7324538999999973
11.235746000000022,0.17712936999998333,-0.7324538999999973
11.235746000000022,0.17712936999998333,-0.7324538999999973
12.292139333333354,0.4962813799999833,-0.9462857333333305
13.348532666666687,0.8154333899999834,-1.1601175666666637
14.40492600000002,1.1345853999999833,-1.373949399999997
14.404926000000017,1.1345853999999835,-1.373949399999997
14.248541666666682,0.5984100233333168,-1.3707578999999972
14.092157333333347,0.062234646666650205,-1.3675663999999974
13.935773000000012,-0.47394073000001646,-1.3643748999999976
13.935773000000012,-0.47394073000001646,-1.3643748999999978
11.807029000000012,-1.1154363200000166,-0.0941498333333312
9.678285000000011,-1.7569319100000167,1.1760752333333355
7.549541000000012,-2.398427500000017,2.446300300000002
7.549541000000012,-2.3984275000000164,2.446300300000002
8.050609666666679,-1.4984187766666832,2.1303397666666686
