accx,accy,accz
2.9154537,1.4313968,8.650616000000001
2.6904515,1.2829910999999998,8.3633785
2.6154507666666666,1.233522533333333,8.267632666666666
2.4654492999999995,1.1345853999999997,8.076141
2.4654492999999995,1.1345853999999997,8.076141
2.4909814666666663,0.47394073333333303,7.6293285
2.5165136333333336,-0.18670393333333357,7.182516
2.5420458000000004,-0.8473486000000001,6.7357035
2.5420458000000004,-0.8473486000000001,6.7357035
2.822899533333333,-2.4335340666666667,6.225060166666666
3.1037532666666663,-4.019719533333333,5.714416833333334
3.384606999999999,-5.605905,5.2037735000000005
3.384606999999999,-5.605905,5.2037735000000005
3.1931158333333323,-6.094207566666667,5.200582000000001
3.001624666666666,-6.582510133333334,5.197390500000001
2.810133499999999,-7.070812700000001,5.194199000000001
2.810133499999999,-7.070812700000001,5.194199000000001
3.0973703333333327,-8.1431638,4.5590865
3.3846071666666666,-9.215514899999999,3.923974
3.671844,-10.287865999999998,3.2888614999999994
3.671844,-10.287865999999996,3.2888614999999994
3.6878016000000002,-10.326163999999997,2.459066266666666
3.7037592000000004,-10.364461999999996,1.629271033333333
3.7197168000000005,-10.402759999999995,0.7994757999999996
3.7197168000000005,-10.402759999999995,0.7994757999999996
3.4580121,-10.13148083333333,0.5728778699999996
3.1963074,-9.860201666666663,0.34627993999999945
2.9346026999999992,-9.588922499999997,0.11968200999999945
2.9346026999999992,-9.588922499999997,0.11968200999999945
2.685664133333333,-9.898499666666664,-0.34308842666666717
2.436725566666666,-10.20807683333333,-0.8058588633333338
2.1877869999999997,-10.517653999999995,-1.2686293000000004
2.187787,-10.517653999999995,-1.2686293000000004
2.1941700333333336,-10.326162999999996,-1.485652633333334
2.2005530666666666,-10.134671999999997,-1.7026759666666675
2.2069361,-9.943180999999997,-1.919699300000001
2.2069361,-9.943181,-1.9196993000000013
2.0314025333333334,-10.045309666666666,-1.973955133333335
1.8558689666666668,-10.147438333333335,-2.0282109666666686
1.6803354,-10.249567000000003,-2.0824668000000024
1.6803354,-10.249567000000004,-2.0824668000000024
1.5111848000000003,-9.981479333333338,-1.9867212000000023
1.3420342000000003,-9.713391666666672,-1.890975600000002
1.1728836000000002,-9.445304000000005,-1.7952300000000019
1.1728836,-9.445304000000005,-1.7952300000000019
1.0420312866666666,-8.953809800000004,-1.7026759666666684
0.9111789733333332,-8.462315600000004,-1.6101219333333348
0.78032666,-7.970821400000003,-1.5175679000000013
0.46755768999999986,-7.431454500000002,-1.3133105800000013
0.15478871999999988,-6.892087600000001,-1.1090532600000014
-0.1579802500000001,-6.3527207,-0.9047959400000014
-0.1579802500000001,-6.3527207,-0.9047959400000014
-0.7133047333333334,-6.1197398000000005,-0.7101132133333348
-1.2686292166666668,-5.8867589,-0.5154304866666681
-1.8239537000000003,-5.653778,-0.32074776000000144
-1.8239537000000003,-5.653778,-0.3207477600000015
-2.9697094666666666,-5.784630233333334,-0.16436327666666814
-4.115465233333333,-5.915482466666667,-0.007978793333334825
-5.261220999999999,-6.0463347,0.1484056899999985
-5.261220999999999,-6.0463347,0.1484056899999985
-6.7452776666666665,-6.694213366666667,-0.5601117733333348
-8.229334333333334,-7.342092033333334,-1.268629236666668
-9.713391000000001,-7.9899707000000015,-1.9771467000000014
-9.713391000000001,-7.9899707000000015,-1.9771467000000011
-10.441057666666667,-7.281453300000002,-1.737782700000001
-11.168724333333335,-6.572935900000001,-1.4984187000000009
-11.896391000000001,-5.8644185,-1.2590547000000007
-11.896391000000001,-5.8644185,-1.2590547000000007
-12.049584000000001,-5.915482666666667,-1.1696921466666674
-12.202777,-5.966546833333335,-1.0803295933333341
-12.35597,-6.017611000000002,-0.9909670400000007
-12.35597,-6.017611000000002,-0.9909670400000007
-11.819794666666667,-5.781438666666669,-1.1505430266666672
-11.283619333333334,-5.545266333333335,-1.3101190133333338
-10.747444000000002,-5.309094000000003,-1.4696950000000004
-10.402759666666668,-4.954835133333336,-1.2877783566666672
-10.058075333333335,-4.600576266666669,-1.105861713333334
-9.713391000000001,-4.246317400000003,-0.9239450700000008
-9.713391000000001,-4.246317400000002,-0.9239450700000008
-9.713391000000001,-4.246317400000002,-0.9239450700000008
-9.403813666666666,-4.281424266666669,-0.8218164233333342
-9.094236333333333,-4.316531133333335,-0.7196877766666674
-8.784658999999998,-4.351638000000001,-0.6175591300000007
-8.682530333333332,-4.335680333333333,-0.6398997866666672
-8.580401666666667,-4.319722666666666,-0.6622404433333339
-8.478273000000002,-4.3037649999999985,-0.6845811000000005
-8.478273000000002,-4.303764999999998,-0.6845811000000005
-8.583593,-4.214402466666664,-0.6526659000000006
-8.688913,-4.125039933333331,-0.6207507000000007
-8.794232999999998,-4.035677399999996,-0.5888355000000006
-8.794232999999998,-4.035677399999996,-0.5888355000000006
-8.93466,-3.930357199999996,-0.5281966066666673
-9.075086999999998,-3.825036999999996,-0.46755771333333396
-9.215513999999999,-3.7197167999999956,-0.4069188200000006
-9.215513999999999,-3.7197167999999956,-0.4069188200000006
-9.180407333333333,-3.694184633333329,-0.3494714566666673
-9.145300666666666,-3.668652466666662,-0.292024093333334
-9.110194,-3.6431202999999948,-0.2345767300000007
-9.110194,-3.6431202999999948,-0.2345767300000007
-9.107002333333334,-3.5760983666666615,-0.24095977333333407
-9.103810666666668,-3.509076433333328,-0.24734281666666738
-9.100619000000002,-3.4420544999999945,-0.2537258600000007
-9.119768333333335,-3.4069477666666614,-0.23776825333333398
-9.13891766666667,-3.3718410333333284,-0.2218106466666673
-9.158067000000003,-3.336734299999995,-0.20585304000000063
-9.158067000000003,-3.336734299999995,-0.20585304000000063
-9.158067000000003,-3.336734299999995,-0.20585304000000063
-9.065512666666669,-3.276095399999995,-0.19947000666666734
-8.972958333333333,-3.215456499999995,-0.19308697333333402
-8.880403999999999,-3.1548175999999946,-0.1867039400000007
-8.838914666666666,-3.1452430666666618,-0.23457673666666737
-8.797425333333331,-3.1356685333333285,-0.282449533333334
-8.755935999999998,-3.1260939999999953,-0.3303223300000006
-8.755935999999998,-3.1260939999999953,-0.3303223300000006
-8.663381666666666,-3.1260939999999953,-0.32393928666666727
-8.570827333333334,-3.1260939999999953,-0.31755624333333393
-8.478273000000002,-3.1260939999999953,-0.31117320000000065
-8.478273000000002,-3.1260939999999953,-0.31117320000000065
-8.503805333333334,-3.167583799999995,-0.3430884066666673
-8.529337666666668,-3.2090735999999946,-0.37500361333333393
-8.554870000000001,-3.250563399999994,-0.4069188200000006
-8.554870000000001,-3.2505633999999937,-0.4069188200000006
-8.494231000000001,-3.260137899999993,-0.35266298000000057
-8.433592000000003,-3.2697123999999924,-0.29840714000000057
-8.372953000000003,-3.279286899999992,-0.24415130000000054
-8.372953000000003,-3.279286899999992,-0.24415130000000054
-8.398485333333335,-3.314393599999992,-0.22819369333333392
-8.42401766666667,-3.349500299999992,-0.21223608666666727
-8.449550000000002,-3.384606999999992,-0.19627848000000062
-8.449550000000002,-3.384606999999992,-0.19627848000000062
-8.51018866666667,-3.4197137666666584,-0.18032088333333396
-8.570827333333336,-3.4548205333333244,-0.1643632866666673
-8.631466000000003,-3.489927299999991,-0.14840569000000062
-8.67614766666667,-3.505884866666658,-0.1356396080000006
-8.720829333333338,-3.5218424333333243,-0.12287352600000057
-8.765511000000005,-3.5377999999999905,-0.11010744400000057
-8.765511000000005,-3.53779999999999,-0.11010744400000057
-8.75274466666667,-3.5697151999999903,-0.12606504600000057
-8.739978333333337,-3.6016303999999906,-0.14202264800000058
-8.727212000000003,-3.633545599999991,-0.15798025000000057
-8.727212000000002,-3.633545599999991,-0.15798025000000057
-8.803808666666669,-3.6686523666666577,-0.18670393333333393
-8.880405333333336,-3.7037591333333246,-0.21542761666666724
-8.957002000000003,-3.7388658999999915,-0.24415130000000054
-8.957002000000003,-3.7388658999999915,-0.24415130000000054
-8.886788333333335,-3.716525266666658,-0.21542761666666724
-8.816574666666668,-3.694184633333325,-0.18670393333333393
-8.746361,-3.6718439999999912,-0.15798025000000063
-8.746361,-3.6718439999999912,-0.15798025000000065
-8.7559355,-3.681418566666658,-0.14840568666666734
-8.765509999999999,-3.690993133333325,-0.138831123333334
-8.775084499999998,-3.7005676999999917,-0.1292565600000007
-8.775084499999998,-3.7005676999999917,-0.12925656000000071
-8.819765666666664,-3.706950733333325,-0.1579802400000007
-8.86444683333333,-3.713333766666658,-0.1867039200000007
-8.909127999999995,-3.7197167999999916,-0.2154276000000007
-8.909127999999995,-3.7197167999999916,-0.2154276000000007
-8.874021333333332,-3.694184633333325,-0.22500216666666736
-8.838914666666668,-3.6686524666666576,-0.23457673333333404
-8.803808000000004,-3.6431202999999908,-0.2441513000000007
-8.810191000000005,-3.620779666666657,-0.2601089000000007
-8.816574000000005,-3.598439033333324,-0.27606650000000066
-8.822957000000004,-3.5760983999999905,-0.2920241000000006
-8.822957000000002,-3.5760983999999905,-0.2920241000000006
-8.822957000000002,-3.5760983999999905,-0.2920241000000006
-8.835723333333334,-3.5569492666666576,-0.3079817000000006
-8.848489666666666,-3.537800133333324,-0.32393930000000054
-8.861255999999997,-3.5186509999999913,-0.33989690000000056
-8.845298333333332,-3.5186509999999913,-0.36542906666666725
-8.829340666666667,-3.5186509999999913,-0.3909612333333339
-8.813383000000002,-3.5186509999999913,-0.4164934000000005
-8.813383000000002,-3.5186509999999913,-0.4164934000000005
-8.794234000000001,-3.4931188333333245,-0.40691883333333384
-8.775084999999999,-3.4675866666666573,-0.39734426666666717
-8.755935999999998,-3.4420544999999905,-0.3877697000000005
-8.755935999999998,-3.4420544999999905,-0.3877697000000005
-8.727212166666666,-3.4229053333333237,-0.3750036166666672
-8.698488333333332,-3.4037561666666574,-0.36223753333333386
-8.6697645,-3.3846069999999915,-0.3494714500000005
-8.6697645,-3.384606999999992,-0.3494714500000005
-8.711253999999998,-3.3941815999999925,-0.36862057333333387
-8.7527435,-3.403756199999993,-0.3877696966666672
-8.794232999999998,-3.4133307999999936,-0.4069188200000005
-8.794232999999998,-3.4133307999999936,-0.4069188200000005
-8.778275666666666,-3.419713833333327,-0.39734426000000056
-8.762318333333333,-3.42609686666666,-0.3877697000000005
-8.746361,-3.4324798999999935,-0.3781951400000005
-8.746361,-3.4324798999999935,-0.3781951400000005
-8.733595000000001,-3.4516290333333264,-0.3622375366666672
-8.720829000000002,-3.4707781666666597,-0.3462799333333339
-8.708063000000003,-3.4899272999999926,-0.33032233000000055
-8.708063000000003,-3.4899272999999926,-0.3303223300000006
-8.704871333333337,-3.5154594666666594,-0.31755625333333387
-8.70167966666667,-3.5409916333333267,-0.3047901766666672
-8.698488000000005,-3.5665237999999935,-0.2920241000000005
-8.720829000000004,-3.5856729333333264,-0.29840713333333385
-8.743170000000003,-3.6048220666666597,-0.30479016666666714
-8.765511000000002,-3.6239711999999926,-0.3111732000000004
-8.765511000000002,-3.6239711999999926,-0.3111732000000004
-8.755936333333334,-3.614396633333326,-0.30798169000000036
-8.746361666666669,-3.604822066666659,-0.30479018000000035
-8.736787000000003,-3.595247499999992,-0.30159867000000035
-8.736787000000005,-3.595247499999992,-0.30159867000000035
-8.739978333333339,-3.576098333333326,-0.3175562633333337
-8.743169666666672,-3.55694916666666,-0.33351385666666705
-8.746361000000006,-3.5377999999999936,-0.3494714500000004
-8.746361000000006,-3.5377999999999936,-0.3494714500000004
-8.759127000000005,-3.53460846666666,-0.36542905333333375
-8.771893000000004,-3.5314169333333267,-0.38138665666666705
-8.784659000000003,-3.528225399999993,-0.39734426000000034
-8.784659000000003,-3.528225399999993,-0.3973442600000003
-8.76870166666667,-3.5186509333333262,-0.39096122000000016
-8.752744333333338,-3.5090764666666594,-0.3845781800000001
-8.736787000000005,-3.4995019999999926,-0.37819514000000004
-8.736787000000005,-3.4995019999999926,-0.37819514000000004
-8.72721233333334,-3.480352833333326,-0.36223753666666675
-8.717637666666674,-3.461203666666659,-0.34627993333333346
-8.708063000000008,-3.4420544999999922,-0.3303223300000001
-8.708063000000008,-3.4388629666666595,-0.3271308066666668
-8.708063000000008,-3.4356714333333263,-0.32393928333333344
-8.708063000000008,-3.4324798999999935,-0.3207477600000001
-8.708063000000008,-3.4324798999999935,-0.3207477600000001
-8.704871333333342,-3.4229052999999934,-0.3207477600000001
-8.701679666666676,-3.4133306999999937,-0.3207477600000001
-8.69848800000001,-3.4037560999999936,-0.3207477600000001
-8.69848800000001,-3.4037560999999936,-0.3207477600000001
-8.714445666666675,-3.4069476666666603,-0.3271308066666668
-8.73040333333334,-3.410139233333327,-0.3335138533333335
-8.746361000000006,-3.4133307999999936,-0.3398969000000002
-8.746361000000006,-3.4133307999999936,-0.3398969000000002
-8.752744333333338,-3.42290536666666,-0.35266298000000024
-8.75912766666667,-3.432479933333326,-0.36542906000000025
-8.765511000000002,-3.4420544999999922,-0.37819514000000026
-8.765511,-3.4420544999999922,-0.3781951400000003
-8.784659666666666,-3.4580120999999924,-0.39096122666666694
-8.803808333333333,-3.4739696999999925,-0.4037273133333336
-8.822956999999999,-3.4899272999999926,-0.41649340000000024
-8.822956999999997,-3.4899272999999926,-0.41649340000000024
-8.78785033333333,-3.505884866666659,-0.40691883333333356
-8.75274366666666,-3.5218424333333256,-0.3973442666666669
-8.717636999999991,-3.537799999999992,-0.3877697000000002
-8.717636999999991,-3.5377999999999914,-0.3877697000000002
-8.727211666666657,-3.553757633333325,-0.3877697000000002
-8.736786333333322,-3.569715266666659,-0.3877697000000002
-8.746360999999988,-3.585672899999993,-0.3877697000000002
-8.743169666666653,-3.5984389999999924,-0.3877697000000002
-8.739978333333319,-3.6112050999999923,-0.3877697000000002
-8.736786999999985,-3.623971199999992,-0.3877697000000002
-8.736786999999985,-3.623971199999992,-0.3877697000000002
-8.736786999999985,-3.623971199999992,-0.3877697000000002
-8.768701999999985,-3.633545699999992,-0.38457818000000016
-8.800616999999987,-3.643120199999992,-0.3813866600000002
-8.832531999999986,-3.652694699999992,-0.37819514000000026
-8.810191666666654,-3.6367371333333254,-0.36223753666666686
-8.787851333333322,-3.620779566666659,-0.34627993333333357
-8.76551099999999,-3.604821999999993,-0.3303223300000003
-8.765510999999991,-3.604821999999993,-0.3303223300000003
-8.768702166666658,-3.576098333333326,-0.33351385333333367
-8.771893333333326,-3.5473746666666592,-0.336705376666667
-8.775084499999993,-3.5186509999999926,-0.33989690000000033
-8.775084499999993,-3.5186509999999926,-0.33989690000000033
-8.771893333333326,-3.5026933999999925,-0.349471456666667
-8.768702166666658,-3.4867357999999924,-0.3590460133333337
-8.765510999999991,-3.4707781999999923,-0.3686205700000003
-8.765510999999991,-3.4707781999999923,-0.3686205700000003
-8.746361666666656,-3.4580120999999924,-0.365429046666667
-8.727212333333323,-3.4452459999999925,-0.36223752333333364
-8.70806299999999,-3.432479899999993,-0.35904600000000025
-8.708062999999989,-3.432479899999993,-0.35904600000000025
-8.717637666666654,-3.4420544666666593,-0.3686205666666669
-8.72721233333332,-3.451629033333326,-0.3781951333333336
-8.736786999999985,-3.4612035999999926,-0.3877697000000003
-8.736786999999985,-3.4612035999999926,-0.3877697000000003
-8.717637666666652,-3.4643951333333263,-0.3781951333333336
-8.698488333333318,-3.46758666666666,-0.3686205666666669
-8.679338999999985,-3.470778199999993,-0.35904600000000025
-8.679338999999985,-3.470778199999993,-0.35904600000000025
-8.698488333333318,-3.4963103666666604,-0.35585448333333364
-8.717637666666652,-3.521842533333327,-0.35266296666666697
-8.736786999999985,-3.547374699999994,-0.3494714500000003
-8.695296999999984,-3.569715333333327,-0.3462799333333337
-8.653806999999984,-3.5920559666666603,-0.343088416666667
-8.612316999999983,-3.614396599999994,-0.33989690000000033
-8.612316999999983,-3.6143965999999943,-0.33989690000000033
-8.625083333333317,-3.6239711666666614,-0.36223754000000036
-8.637849666666652,-3.633545733333328,-0.3845781800000003
-8.650615999999985,-3.6431202999999948,-0.4069188200000003
-8.650615999999985,-3.6431202999999948,-0.4069188200000003
-8.650615999999985,-3.668652466666662,-0.435642496666667
-8.650615999999985,-3.694184633333329,-0.4643661733333337
-8.650615999999985,-3.7197167999999956,-0.49308985000000033
-8.650615999999985,-3.7197167999999956,-0.49308985000000033
-8.663381666666652,-3.716525233333329,-0.49308985000000033
-8.676147333333319,-3.7133336666666623,-0.49308985000000033
-8.688912999999985,-3.7101420999999957,-0.49308985000000033
-8.688912999999985,-3.7101420999999957,-0.49308985000000033
-8.708062333333318,-3.7037590666666627,-0.4898983333333337
-8.727211666666653,-3.697376033333329,-0.48670681666666704
-8.746360999999986,-3.6909929999999957,-0.48351530000000037
-8.746360999999986,-3.6909929999999957,-0.48351530000000037
-8.73678633333332,-3.6782268999999954,-0.48351530000000037
-8.727211666666655,-3.665460799999995,-0.48351530000000037
-8.71763699999999,-3.6526946999999947,-0.48351530000000037
-8.720828666666657,-3.623971066666662,-0.4611746666666671
-8.724020333333323,-3.595247433333329,-0.4388340333333338
-8.727211999999989,-3.5665237999999957,-0.4164934000000005
-8.727211999999987,-3.5665237999999957,-0.4164934000000005
-8.727211999999987,-3.5665237999999957,-0.4164934000000005
-8.720828999999988,-3.5537576666666624,-0.40053579000000056
-8.714445999999988,-3.540991533333329,-0.38457818000000055
-8.708062999999989,-3.5282253999999953,-0.36862057000000054
-8.717637666666654,-3.5218423999999953,-0.3718120933333339
-8.72721233333332,-3.5154593999999952,-0.3750036166666672
-8.736786999999985,-3.5090763999999948,-0.3781951400000005
-8.736786999999985,-3.5090763999999948,-0.3781951400000005
-8.720828999999986,-3.5090763999999948,-0.3877697000000005
-8.704870999999985,-3.5090763999999948,-0.39734426000000056
-8.688912999999985,-3.5090763999999948,-0.4069188200000006
-8.688912999999985,-3.5090763999999948,-0.4069188200000006
-8.701679333333319,-3.4931187999999946,-0.4101103466666673
-8.714445666666654,-3.4771611999999945,-0.41330187333333396
-8.727211999999987,-3.4612035999999944,-0.4164934000000006
-8.727211999999987,-3.461203599999994,-0.4164934000000006
-8.71125433333332,-3.461203599999994,-0.43245099000000065
-8.695296666666652,-3.461203599999994,-0.44840858000000067
-8.679338999999985,-3.461203599999994,-0.46436617000000074
-8.679338999999985,-3.461203599999994,-0.4643661700000008
-8.717636999999984,-3.4643951333333276,-0.4771322633333342
-8.755934999999985,-3.467586666666661,-0.48989835666666764
-8.794232999999984,-3.4707781999999945,-0.502664450000001
-8.794232999999984,-3.4707781999999945,-0.502664450000001
-8.746360666666652,-3.4963103666666613,-0.5058559666666677
-8.698488333333318,-3.5218425333333285,-0.5090474833333344
-8.650615999999985,-3.5473746999999953,-0.512239000000001
-8.650615999999985,-3.5473746999999953,-0.512239000000001
-8.653807333333319,-3.5282255666666615,-0.5313881166666676
-8.656998666666652,-3.509076433333328,-0.5505372333333343
-8.660189999999986,-3.4899272999999944,-0.5696863500000009
-8.628274999999986,-3.4707781666666615,-0.5920269866666676
-8.596359999999985,-3.451629033333328,-0.6143676233333344
-8.564444999999985,-3.4324798999999953,-0.6367082600000011
-8.564444999999985,-3.4324798999999953,-0.6367082600000012
-8.605934333333318,-3.4133308333333283,-0.6718149733333346
-8.647423666666652,-3.394181766666662,-0.7069216866666679
-8.688912999999985,-3.375032699999995,-0.7420284000000011
-8.688912999999985,-3.375032699999995,-0.7420284000000011
-8.704870999999985,-3.3686495999999946,-0.7643690666666677
-8.720828999999986,-3.3622664999999947,-0.7867097333333343
-8.736786999999985,-3.3558833999999944,-0.8090504000000008
-8.736786999999985,-3.3558833999999944,-0.8090504000000008
-8.69848866666665,-3.3686494999999947,-0.8058588666666676
-8.660190333333317,-3.381415599999995,-0.8026673333333344
-8.621891999999981,-3.3941816999999954,-0.7994758000000012
-8.62189199999998,-3.3941816999999954,-0.7994758000000012
-8.653806999999981,-3.5282255666666615,-0.8058588333333345
-8.68572199999998,-3.662269433333328,-0.8122418666666679
-8.71763699999998,-3.7963132999999942,-0.8186249000000011
-8.71763699999998,-3.7963132999999942,-0.8186249000000011
-8.746360666666648,-4.192061766666661,-0.7771351433333344
-8.775084333333314,-4.587810233333327,-0.7356453866666678
-8.80380799999998,-4.983558699999994,-0.694155630000001
-8.80380799999998,-4.983558699999995,-0.694155630000001
-8.743169333333315,-5.679310033333329,-0.6877725866666676
-8.682530666666647,-6.375061366666663,-0.6813895433333342
-8.62189199999998,-7.070812699999997,-0.6750065000000008
-8.04103519999998,-8.261249799999996,-0.8728807666666675
-7.460178399999982,-9.451686899999995,-1.0707550333333342
-6.879321599999982,-10.642123999999994,-1.268629300000001
-6.879321599999982,-10.642123999999994,-1.2686293000000013
-6.199527733333316,-11.551706999999992,-1.1696921666666678
-5.519733866666649,-12.46128999999999,-1.0707550333333347
-4.8399399999999835,-13.370872999999987,-0.9718179000000017
-4.8399399999999835,-13.370872999999984,-0.9718179000000017
-4.319722299999984,-13.14108366666665,-0.8920299000000017
-3.799504599999984,-12.911294333333316,-0.8122419000000017
-3.2792868999999842,-12.681504999999982,-0.7324539000000017
-3.2792868999999847,-12.681504999999982,-0.7324539000000015
-2.9186451666666513,-11.848518333333315,-0.47394075900000154
-2.558003433333318,-11.015531666666647,-0.21542761800000151
-2.197361699999985,-10.182544999999978,0.043085522999998536
-2.1973616999999845,-10.182544999999978,0.043085522999998536
-2.210127733333318,-9.767647333333313,0.1643632886666652
-2.2228937666666515,-9.352749666666647,0.28564105433333187
-2.235659799999985,-8.93785199999998,0.4069188199999985
-2.235659799999985,-8.93785199999998,0.4069188199999985
-1.4856525863333185,-8.529337466666645,0.5856439466666652
-0.7356453726666516,-8.120822933333312,0.7643690733333318
0.01436184100001503,-7.712308399999977,0.9430941999999986
0.1164904806666817,-6.327188633333311,1.0228821999999986
0.21861912033334832,-4.942068866666644,1.1026701999999986
0.320747760000015,-3.556949099999977,1.1824581999999986
0.32074776000001504,-3.556949099999977,1.1824581999999986
0.32074776000001504,-3.556949099999977,1.1824581999999986
-2.3218309599999847,-1.3324595666666437,-0.21542760000000136
-4.964409679999984,0.8920299666666898,-1.6133134000000016
-7.6069883999999846,3.1165195000000234,-3.0111992000000014
-11.286810933333319,0.997350100000023,-3.049497466666668
-14.966633466666652,-1.121819299999977,-3.087795733333335
-18.646455999999986,-3.2409886999999773,-3.1260940000000015
-18.646455999999986,-3.2409886999999773,-3.1260940000000015
-18.965607999999985,-7.635711799999978,-3.754823466666668
-19.284759999999988,-12.030434899999976,-4.383552933333335
-19.60391199999999,-16.42515799999998,-5.012282400000002
-19.60391199999999,-16.42515799999998,-5.012282400000003
-19.323057999999993,-17.48155099999998,-6.256975266666669
-19.04220399999999,-18.537943999999978,-7.501668133333336
-18.76134999999999,-19.594336999999978,-8.746361000000002
-18.76134999999999,-19.594336999999978,-8.746361000000002
-15.636852166666658,-18.735818666666646,-6.467615600000002
-12.512354333333326,-17.877300333333313,-4.188870200000001
-9.387856499999991,-17.018781999999984,-1.9101248000000013
-9.387856499999991,-17.018781999999984,-1.9101248000000013
-3.764397999999991,-14.532587666666648,-1.0420313233333347
1.8590605000000089,-12.046393333333313,-0.17393784666666798
7.482519000000008,-9.560198999999978,0.6941556299999987
7.482519000000008,-9.560198999999978,0.6941556299999987
8.229334666666675,-9.31126033333331,0.825007953333332
8.97615033333334,-9.062321666666643,0.9558602766666654
9.722966000000008,-8.813382999999975,1.0867125999999987
9.722966000000008,-8.813382999999973,1.0867125999999987
9.103811133333343,-10.27190766666664,1.590972833333332
8.484656266666676,-11.730432333333306,2.095233066666665
7.865501400000009,-13.188956999999974,2.5994932999999985
4.412276600000008,-15.324083666666638,1.7186336923333316
0.9590518000000081,-17.459210333333303,0.8377740846666649
-2.4941729999999924,-19.594336999999967,-0.04308552300000157
-2.4941729999999924,-19.594336999999967,-0.04308552300000157
-7.664435666666656,-19.594336999999967,-1.2526716820000017
-12.834698333333321,-19.594336999999967,-2.462257841000002
-18.004960999999984,-19.594336999999967,-3.671844000000002
-18.004960999999984,-19.594336999999967,-3.671844000000002
-17.593254666666652,-18.295388666666636,-3.2537548666666685
-17.18154833333332,-16.9964403333333,-2.8356657333333355
-16.769841999999986,-15.697491999999968,-2.417576600000002
-16.769841999999986,-15.697491999999968,-2.417576600000002
-14.08896533333332,-10.536803866666634,-2.934602833333335
-11.408088666666652,-5.376115733333301,-3.4516290666666687
-8.727211999999986,-0.21542759999996855,-3.9686553000000018
-8.727211999999986,-0.21542759999996855,-3.9686553000000018
-8.52933766666665,3.5473746000000315,-4.4601494000000015
-8.331463333333318,7.310176800000033,-4.951643500000001
-8.133588999999985,11.072979000000032,-5.4431376
-8.133588999999985,11.072979000000032,-5.4431376
-7.527200199999984,8.130397500000033,-4.5271713333333325
-6.920811399999984,5.187816000000033,-3.6112050666666655
-6.3144225999999835,2.245234500000032,-2.695238799999999
-6.3144225999999835,2.245234500000032,-2.695238799999999
-8.171887399999983,0.29202413333336513,-1.4026731333333327
-10.029352199999984,-1.6611862333333016,-0.11010746666666593
-11.886816999999985,-3.6143965999999685,1.1824582000000008
-11.886816999999985,-3.6143965999999685,1.1824582000000008
-14.459181999999984,-8.941043399999968,1.4824610666666673
-17.031546999999986,-14.267690199999969,1.7824639333333339
-19.603911999999983,-19.59433699999997,2.0824668
-15.592171333333313,-19.233695666666637,0.7324538000000002
-11.580430666666645,-18.873054333333304,-0.6175591999999999
-7.568689999999978,-18.51241299999997,-1.9675722
-7.568689999999978,-18.51241299999997,-1.9675722
-2.759069099999978,-14.982591666666641,-1.6228880199999998
2.050551800000022,-11.45277033333331,-1.2782038399999998
6.860172700000022,-7.922948999999978,-0.9335196599999996
6.860172700000022,-7.922948999999977,-0.9335196599999996
8.005928466666688,-6.352720999999977,-1.1665006066666663
9.151684233333356,-4.782492999999976,-1.399481553333333
10.297440000000023,-3.2122649999999755,-1.6324624999999997
10.297440000000023,-3.2122649999999755,-1.6324624999999997
10.297440000000023,-3.2122649999999755,-1.6324624999999997
10.297440000000023,-3.2122649999999755,-1.6324624999999997
10.297440000000023,-3.2122649999999755,-1.6324624999999997
7.431454833333355,-8.672955666666642,-2.420768
4.565469666666688,-14.133646333333308,-3.2090735
1.6994845000000218,-19.59433699999997,-3.997379
1.6994845000000218,-19.59433699999997,-3.997379
-1.565440666666645,-19.59433699999997,-2.3792782799999994
-4.830365833333311,-19.59433699999997,-0.7611775599999994
-8.095290999999978,-19.59433699999997,0.8569231600000006
-8.095290999999978,-19.59433699999997,0.8569231600000006
-9.442112666666647,-16.680479333333306,0.5920269880000006
-10.78893433333331,-13.766621666666637,0.32713081600000066
-12.135755999999978,-10.85276399999997,0.062234644000000706
-12.135755999999978,-10.85276399999997,0.062234644000000706
-11.331492666666643,-5.280369833333303,-1.156926070666666
-10.52722933333331,0.2920243333333635,-2.376086785333333
-9.722965999999976,5.86441850000003,-3.5952474999999993
-9.722965999999976,5.86441850000003,-3.5952474999999993
-9.08147053333331,7.8878421666666965,-4.182487166666665
-8.439975066666642,9.911265833333362,-4.7697268333333325
-7.798479599999976,11.934689500000028,-5.356966499999999
-7.798479599999976,11.934689500000028,-5.356966499999999
-9.77083906666664,6.4899562000000275,-4.568661066666666
-11.743198533333306,1.045222900000028,-3.780355633333332
-13.715557999999971,-4.399510399999972,-2.992050199999998
-15.28259466666664,-9.464452599999971,-4.022911266666665
-16.849631333333306,-14.529394799999972,-5.053772333333332
-18.416667999999973,-19.59433699999997,-6.084633399999998
-18.416667999999973,-19.59433699999997,-6.084633399999998
-12.74214486666664,-18.624115333333307,-4.897387866666665
-7.067621733333307,-17.653893666666644,-3.71014233333333
-1.3930985999999734,-16.683671999999977,-2.5228967999999967
-1.3930985999999734,-16.683671999999977,-2.5228967999999963
1.00373293333336,-15.608129666666644,-1.6548032783333297
3.4005644666666934,-14.53258733333331,-0.7867097566666631
5.7973960000000275,-13.457044999999978,0.08138376500000355
5.7973960000000275,-13.457044999999978,0.08138376500000355
9.151683666666694,-12.44214133333331,0.7164962766666703
12.505971333333362,-11.427237666666644,1.351608788333337
15.860259000000028,-10.412333999999978,1.9867213000000037
15.860259000000028,-10.412333999999978,1.9867213000000037
15.078336666666695,-13.473001666666642,1.0611804466666703
14.296414333333365,-16.533669333333307,0.13563959333333706
13.514492000000033,-19.59433699999997,-0.7899012599999963
13.514492000000033,-19.59433699999997,-0.7899012599999963
7.2750701666667,-19.59433699999997,-1.3579918399999966
1.0356483333333664,-19.59433699999997,-1.9260824199999966
-5.203773499999968,-19.59433699999997,-2.494172999999997
-5.203773499999968,-19.59433699999997,-2.4941729999999964
-8.762318666666634,-19.125183999999972,-1.53352543333333
-12.3208638333333,-18.656030999999974,-0.5728778666666633
-15.879408999999967,-18.18687799999998,0.3877697000000034
-12.764485166666633,-12.850656133333311,0.0015957566666700747
-9.6495613333333,-7.514434266666645,-0.38457818666666327
-6.534637499999967,-2.1782123999999783,-0.7707521299999965
-6.534637499999967,-2.1782123999999783,-0.7707521299999965
-6.534637499999967,-2.1782123999999783,-0.7707521299999965
-8.302739666666634,1.6196964000000218,-2.56757795333333
-10.0708418333333,5.417605200000022,-4.364403776666664
-11.838943999999968,9.215514000000022,-6.161229599999996
-11.216597666666635,6.952726333333355,-6.221868499999997
-10.594251333333302,4.689938666666687,-6.282507399999997
-9.97190499999997,2.4271510000000203,-6.343146299999998
-9.97190499999997,2.4271510000000203,-6.343146299999998
-11.411280333333302,-1.9037419999999798,-4.125039799999999
-12.850655666666635,-6.2346349999999795,-1.9069332999999984
-14.290030999999969,-10.56552799999998,0.3111732000000016
-14.290030999999969,-10.56552799999998,0.3111732000000016
-13.077253333333303,-13.57513099999998,-0.2888325999999984
-11.864475666666635,-16.58473399999998,-0.8888383999999983
-10.651697999999968,-19.594336999999978,-1.4888441999999982
-10.651697999999966,-19.594336999999978,-1.4888441999999982
-5.883567099999966,-18.107088999999977,-0.41011039999999827
-1.1154361999999665,-16.61984099999998,0.6686234000000016
3.6526947000000334,-15.13259299999998,1.7473572000000015
3.6526947000000334,-15.13259299999998,1.7473572000000015
4.0324856333333665,-13.214489333333313,2.028211000000002
4.4122765666667,-11.296385666666646,2.309064800000002
4.792067500000033,-9.37828199999998,2.5899186000000025
4.792067500000033,-9.37828199999998,2.5899186000000025
8.1686956666667,-10.441057999999979,2.6633235666666693
11.545323833333365,-11.503833999999978,2.7367285333333355
14.921952000000031,-12.566609999999978,2.8101335000000014
14.921952000000031,-12.566609999999978,2.8101335000000014
14.51662900000003,-14.909185666666644,1.281395333333335
14.11130600000003,-17.25176133333331,-0.2473428333333317
13.70598300000003,-19.594336999999978,-1.7760809999999985
8.55486960000003,-19.594336999999978,-1.7282081666666649
3.4037562000000303,-19.594336999999978,-1.6803353333333313
-1.7473571999999689,-19.594336999999978,-1.632462499999998
-1.7473571999999689,-19.594336999999978,-1.632462499999998
-4.833557466666636,-18.474113666666643,-0.07819223333333121
-7.919757733333302,-17.35389033333331,1.4760780333333354
-11.005957999999966,-16.23366699999998,3.030348300000002
-11.005957999999966,-16.23366699999998,3.030348300000002
-12.0463933333333,-10.262332866666645,0.499472766666669
-13.086828666666635,-4.2909987333333115,-2.0314027666666643
-14.12726399999997,1.680335400000022,-4.562278299999998
-14.12726399999997,1.680335400000022,-4.562278299999998
-13.284702666666634,3.649503266666688,-4.804833733333331
-12.442141333333298,5.618671133333354,-5.047389166666664
-11.599579999999962,7.58783900000002,-5.289944599999997
-11.59957999999996,7.58783900000002,-5.289944599999997
-10.680422333333292,4.134614233333354,-4.613342333333331
-9.761264666666625,0.6813894666666878,-3.936740066666664
-8.84210699999996,-2.7718352999999785,-3.2601377999999976
-8.842106999999961,-2.7718352999999785,-3.2601377999999976
-9.67828499999996,-8.379335866666645,-1.4218221999999978
-10.514462999999958,-13.98683643333331,0.416493400000002
-11.350640999999959,-19.594336999999978,2.254809000000002
-7.562306719666624,-19.57837966666665,1.1888412666666686
-3.7739724393332907,-19.562422333333316,0.12287353333333535
0.01436184100004212,-19.546464999999984,-0.9430941999999979
0.01436184100004212,-19.546464999999984,-0.9430941999999979
0.01436184100004212,-19.546464999999984,-0.9430941999999979
0.3462799273333755,-18.132621499999985,-1.3165020666666647
0.6781980136667088,-16.718777999999986,-1.6899099333333314
1.0101161000000423,-15.304934499999987,-2.063317799999998
4.938877400000043,-12.39745983333332,-1.1218193533333312
8.867638700000041,-9.489985166666651,-0.18032090666666445
12.796400000000043,-6.582510499999984,0.7611775400000024
12.796400000000043,-6.582510499999984,0.7611775400000024
13.967688333333378,-10.447441333333316,0.9047959600000025
15.138976666666712,-14.312372166666648,1.0484143800000025
16.310265000000047,-18.17730299999998,1.1920328000000027
16.310265000000047,-18.17730299999998,1.1920328000000027
12.384694866666715,-18.64964766666665,-0.15159719999999752
8.459124733333383,-19.121992333333313,-1.4952271999999975
4.533554600000049,-19.59433699999998,-2.8388571999999974
4.53355460000005,-19.59433699999998,-2.8388571999999974
0.3430884000000501,-19.45710199999998,-1.7409742533333308
-3.84737779999995,-19.319866999999984,-0.6430913066666641
-8.03784399999995,-19.182631999999984,0.45479164000000255
-8.03784399999995,-19.182631999999984,0.45479164000000255
-7.396348333333283,-14.845355999999986,0.3622375500000026
-6.7548526666666175,-10.508079999999987,0.2696834600000026
-6.113356999999951,-6.170803999999986,0.1771293700000026
-6.113356999999951,-6.170803999999986,0.1771293700000026
-8.309122666666617,-3.1292853999999863,-1.1473515199999975
-10.504888333333284,-0.0877667999999862,-2.4718324099999975
-12.70065399999995,2.953751800000014,-3.7963132999999973
-12.70065399999995,2.9537518000000147,-3.7963132999999973
-10.555952533333283,3.2441802000000153,-4.559086666666664
-8.411251066666615,3.5346086000000163,-5.321860033333331
-6.266549599999949,3.8250370000000173,-6.084633399999997
-7.680393233333283,2.420768100000017,-4.792067633333329
-9.094236866666616,1.0164992000000168,-3.4995018666666624
-10.50808049999995,-0.3877696999999835,-2.2069360999999956
-10.50808049999995,-0.3877696999999835,-2.206936099999995
-11.685751333333284,-6.789958799999983,-1.4856525743333286
-12.863422166666616,-13.192147899999982,-0.7643690486666621
-14.041092999999949,-19.594336999999985,-0.04308552299999535
-14.041092999999947,-19.594336999999985,-0.04308552299999535
-9.828286366666614,-18.59539133333332,1.0579889180000046
-5.615479733333281,-17.596445666666654,2.1590633590000046
-1.402673099999948,-16.597499999999986,3.2601378000000043
-1.402673099999948,-16.597499999999986,3.2601378000000047
-0.355854499999948,-15.384722499999986,1.9707636666666717
0.6909641000000519,-14.171944999999985,0.6813895333333383
1.7377827000000519,-12.959167499999984,-0.607984599999995
1.7377827000000519,-12.959167499999984,-0.607984599999995
5.085687466666719,-12.65916466666665,-0.47394074666666164
8.433592233333384,-12.359161833333317,-0.33989689333332834
11.781497000000051,-12.059158999999985,-0.20585303999999502
11.781497000000051,-12.059158999999985,-0.20585303999999502
13.370873666666716,-14.570884999999983,-0.2537258433333283
14.960250333333379,-17.082610999999982,-0.30159864666666164
16.549627000000044,-19.594336999999985,-0.34947144999999497
16.54962700000004,-19.594336999999985,-0.34947144999999497
12.604908333333377,-19.594336999999985,-0.6079845666666616
8.660189666666712,-19.594336999999985,-0.8664976833333281
4.715471000000048,-19.594336999999985,-1.1250107999999948
-0.7867096666666186,-18.365602333333317,0.193086966666672
-6.288890333333286,-17.13686766666665,1.5111847333333388
-11.791070999999953,-15.908132999999983,2.8292825000000055
-11.791070999999953,-15.908132999999983,2.8292825000000055
-10.79212499999995,-10.485739999999984,0.9877754000000055
-9.79317899999995,-5.063346999999983,-0.8537316999999945
-8.794232999999949,0.3590460000000159,-2.6952387999999945
-8.794232999999949,0.3590460000000159,-2.6952387999999945
-9.585730333333283,2.8452401333333497,-3.8920588666666607
-10.377227666666618,5.331434266666683,-5.088878933333327
-11.168724999999952,7.817628400000017,-6.285698999999994
-11.168724999999952,7.817628400000017,-6.285698999999994
-11.516600666666617,5.29632755333335,-6.442083433333327
-11.864476333333284,2.775026706666683,-6.59846786666666
-12.212351999999951,0.253725860000016,-6.7548522999999925
-12.212351999999953,0.253725860000016,-6.7548522999999925
-13.852793666666619,-5.573990093333317,-4.993133199999993
-15.493235333333283,-11.401706046666652,-3.2314140999999936
-17.13367699999995,-17.229421999999985,-1.4696949999999935
-17.133676999999953,-17.229421999999985,-1.4696949999999935
-14.210244333333286,-18.017726999999983,-1.3420341999999936
-11.28681166666662,-18.806031999999984,-1.214373399999994
-8.363378999999954,-19.59433699999998,-1.086712599999994
-4.827174499999955,-18.719861333333316,-0.47394073333332726
-1.2909699999999547,-17.845385666666655,0.1388311333333394
2.2452345000000453,-16.97090999999999,0.7516030000000061
2.2452345000000453,-16.97090999999999,0.7516030000000061
2.2452345000000453,-16.97090999999999,0.7516030000000061
5.025048666666711,-13.41555599999999,1.2941614000000063
7.804862833333377,-9.86020199999999,1.8367198000000065
10.584677000000045,-6.304847999999992,2.3792782000000066
12.987891666666712,-9.60487966666666,2.2516174000000064
15.391106333333378,-12.904911333333326,2.1239566000000067
17.794321000000043,-16.204942999999993,1.9962958000000068
17.794321000000043,-16.20494299999999,1.9962958000000068
15.346425000000044,-17.33474099999999,1.3420341866666738
12.898529000000044,-18.464538999999988,0.6877725733333405
10.450633000000042,-19.594336999999985,0.033510960000007195
10.450633000000042,-19.594336999999985,0.033510960000007195
4.18567866666671,-19.594336999999985,0.5537287733333405
-2.0792756666666237,-19.594336999999985,1.0739465866666738
-8.344229999999957,-19.594336999999985,1.5941644000000073
-8.344229999999957,-19.594336999999985,1.5941644000000068
-10.179353999999957,-16.479413666666655,1.421822300000007
-12.01447799999996,-13.364490333333322,1.2494802000000071
-13.849601999999962,-10.249566999999988,1.0771381000000073
-13.849601999999962,-10.24956699999999,1.0771381000000073
-12.59214299999996,-4.246317533333323,-0.24415126666665934
-11.334683999999958,1.7569319333333444,-1.565440633333326
-10.077224999999958,7.760181400000011,-2.886729999999993
-10.077224999999958,7.760181400000011,-2.886729999999993
-10.208077333333293,7.788904933333344,-3.751631999999993
-10.338929666666628,7.817628466666677,-4.6165339999999935
-10.469781999999961,7.84635200000001,-5.481435999999992
-10.469781999999961,7.84635200000001,-5.481435999999992
-12.33043799999996,4.488872933333344,-4.147380533333325
-14.191093999999959,1.131393866666677,-2.8133250666666587
-16.05174999999996,-2.2260851999999898,-1.479269599999992
-16.05174999999996,-2.2260851999999898,-1.479269599999992
-15.199614333333294,-8.015502466666655,0.3143647666666747
-14.347478666666627,-13.804919733333321,2.1079991333333417
-13.495342999999961,-19.594336999999985,3.901633500000008
-13.495342999999961,-19.594336999999985,3.9016335000000084
-11.363407466666628,-19.594336999999985,3.6175882000000086
-9.231471933333294,-19.594336999999985,3.3335429000000083
-7.09953639999996,-19.594336999999985,3.049497600000008
-7.09953639999996,-19.594336999999985,3.049497600000008
-6.0910161333332935,-19.307100666666656,2.194170166666675
-5.082495866666627,-19.019864333333327,1.3388427333333415
-4.07397559999996,-18.732627999999995,0.4835153000000081
-4.073975599999959,-18.732628,0.4835153000000081
1.3803322666667073,-14.679397199999999,0.13563961333334143
6.834640133333374,-10.6261664,-0.2122360733333252
12.28894800000004,-6.572935600000001,-0.5601117599999919
12.28894800000004,-6.572935600000001,-0.5601117599999919
12.28894800000004,-6.572935600000001,-0.5601117599999919
14.650673000000042,-9.895307733333333,0.4516001600000082
17.012398000000044,-13.217679866666664,1.4633120800000083
19.374123000000047,-16.540051999999996,2.4750240000000083
15.461319333333384,-17.558146999999995,1.227139566666675
11.548515666666717,-18.576241999999993,-0.020744866666658385
7.635712000000049,-19.594336999999992,-1.2686292999999917
7.6357120000000505,-19.594336999999992,-1.2686292999999917
1.399481666666717,-19.575187999999994,-1.4760780999999918
-4.836748666666616,-19.556038999999995,-1.6835268999999922
-11.072978999999949,-19.536889999999996,-1.8909756999999923
-11.072978999999947,-19.536889999999996,-1.8909756999999923
-11.446386999999945,-15.48365956666666,-1.935656999999992
-11.819794999999942,-11.430429133333327,-1.980338299999992
-12.19320299999994,-7.377198699999994,-2.025019599999992
-12.19320299999994,-7.377198699999994,-2.025019599999992
-11.25489599999994,-2.3792781333333273,-2.650557566666658
-10.31658899999994,2.61864243333334,-3.2760955333333244
-9.37828199999994,7.616563000000006,-3.9016334999999907
-9.378281999999942,7.616563000000006,-3.9016334999999907
-9.569773333333275,7.524008866666673,-4.913345333333324
-9.76126466666661,7.431454733333339,-5.925057166666658
-9.952755999999944,7.338900600000006,-6.936768999999992
-9.952755999999944,7.338900600000006,-6.936768999999994
-10.284673999999944,4.68355583333334,-6.071866999999993
-10.616591999999942,2.0282110666666737,-5.206964999999992
-10.948509999999942,-0.6271336999999928,-4.342062999999993
-10.948509999999942,-0.6271336999999928,-4.3420629999999925
-10.948509999999942,-0.6271336999999928,-4.3420629999999925
-10.948509999999942,-0.6271336999999928,-4.3420629999999925
-10.948509999999942,-0.6271336999999928,-4.3420629999999925
-8.433592033333277,-6.949534799999992,-1.763314766666659
-5.9186740666666084,-13.271935899999994,0.8154334666666743
-3.4037560999999417,-19.594336999999992,3.394181700000008
-2.765452133333275,-18.87943666666666,2.7846013666666742
-2.127148166666608,-18.164536333333327,2.1750210333333406
-1.4888441999999416,-17.449635999999995,1.565440700000007
-1.4888441999999416,-17.449635999999995,1.565440700000007
-1.4888441999999416,-17.449635999999995,1.565440700000007
3.7165252000000586,-13.683642333333326,2.063317800000007
8.92189460000006,-9.91764866666666,2.5611949000000074
14.12726400000006,-6.151654999999994,3.0590720000000076
15.866642666666728,-9.311259999999995,2.092041416666674
17.606021333333395,-12.470864999999996,1.1250108333333404
19.345400000000062,-15.630469999999997,0.15798025000000715
19.345400000000065,-15.630469999999997,0.15798025000000718
19.345400000000065,-15.630469999999997,0.15798025000000718
19.345400000000065,-15.630469999999997,0.15798025000000718
19.345400000000065,-15.630469999999997,0.15798025000000718
19.345400000000065,-15.630469999999997,0.15798025000000718
10.153821666666731,-16.65494766666666,-0.09734136666665949
0.9622433333333961,-17.679425333333327,-0.35266298333332613
-8.229334999999937,-18.703902999999993,-0.6079845999999928
-7.881459199999938,-13.150658233333326,-0.9399026999999928
-7.533583399999938,-7.5974134666666595,-1.2718207999999926
-7.185707599999939,-2.044168699999993,-1.6037388999999926
-7.185707599999939,-2.044168699999993,-1.6037388999999926
-9.27615339999994,0.6941555333333405,-2.573961033333326
-11.36659919999994,3.432479766666674,-3.5441831666666594
-13.457044999999939,6.1708040000000075,-4.514405299999993
-13.457044999999939,6.1708040000000075,-4.514405299999993
-11.577239466666605,4.137805733333341,-5.155900866666659
-9.69743393333327,2.1048074666666743,-5.797396433333326
-7.817628399999935,0.07180920000000739,-6.438891999999992
-7.817628399999935,0.07180920000000739,-6.438891999999992
-9.793179599999934,-3.7484405333333264,-3.5569492999999923
-11.768730799999934,-7.5686902666666604,-0.6750065999999922
-13.744281999999933,-11.388939999999993,2.2069361000000076
-13.744281999999933,-11.388939999999993,2.2069361000000076
-10.926169533333265,-14.124072333333329,1.9579975333333408
-8.108057066666598,-16.859204666666663,1.7090589666666742
-5.289944599999932,-19.594337,1.4601204000000074
-5.289944599999932,-19.594337,1.4601204000000074
-3.633545653333266,-19.559230333333335,1.0994786466666742
-1.9771467066665993,-19.52412366666667,0.7388368933333407
-0.3207477599999328,-19.489017000000008,0.37819514000000726
-0.3207477599999328,-19.489017000000008,0.37819514000000726
1.6803354933334005,-16.090048000000007,0.3877697000000073
3.681418746666734,-12.691079000000007,0.3973442600000074
5.682502000000067,-9.292110000000006,0.4069188200000074
10.268716333333401,-9.671901000000007,0.6111760800000074
14.854930666666734,-10.051692000000008,0.8154333400000074
19.441145000000066,-10.431483000000007,1.0196906000000074
19.441145000000066,-10.431483000000007,1.0196906000000077
19.441145000000066,-10.431483000000007,1.0196906000000077
17.606021000000066,-13.485767666666675,-0.3175563333333256
15.770897000000069,-16.54005233333334,-1.6548032666666588
13.935773000000069,-19.594337000000007,-2.9920501999999924
9.62083768000007,-19.578379666666674,-3.078221266666659
5.30590236000007,-19.56242233333334,-3.1643923333333253
0.9909670400000703,-19.54646500000001,-3.250563399999992
0.9909670400000703,-19.54646500000001,-3.2505633999999914
-4.348445973333263,-18.70390400000001,-1.2079904999999913
-9.687858986666596,-17.86134300000001,0.8345824000000087
-15.02727199999993,-17.018782000000012,2.877155300000009
-15.02727199999993,-17.018782000000012,2.877155300000009
-13.517683333333261,-11.883625800000011,1.673952233333342
-12.008094666666594,-6.7484696000000115,0.4707491666666754
-10.498505999999926,-1.6133134000000109,-0.7324538999999914
-10.498505999999928,-1.6133134000000109,-0.7324538999999914
-10.999574666666595,0.9558603999999891,-0.8154334133333249
-11.50064333333326,3.5250341999999883,-0.8984129266666582
-12.001711999999927,6.0942079999999885,-0.9813924399999916
-12.001711999999927,6.094207999999988,-0.9813924399999916
-11.430429999999928,5.09526213333332,-1.259054693333325
-10.859147999999928,4.096316266666654,-1.5367169466666581
-10.28786599999993,3.097370399999988,-1.8143791999999916
-10.28786599999993,3.0973703999999884,-1.8143791999999916
-11.318726666666597,-1.4665034000000114,0.815433366666675
-12.349587333333263,-6.030377200000011,3.445245933333341
-13.38044799999993,-10.59425100000001,6.075058500000008
-13.38044799999993,-10.594251000000009,6.075058500000008
-11.647452666666595,-13.594279666666674,6.850598000000009
-9.91445733333326,-16.59430833333334,7.626137500000009
-8.181461999999925,-19.594337000000007,8.40167700000001
-6.375061566666592,-18.20602600000001,7.109111233333344
-4.5686611333332605,-16.81771500000001,5.816545466666677
-2.7622606999999277,-15.429404000000014,4.52397970000001
-2.7622606999999277,-15.429404000000014,4.52397970000001
0.20266153333340542,-15.43259566666668,1.4633118000000096
3.167583766666738,-15.435787333333346,-1.5973560999999903
6.132506000000071,-15.438979000000012,-4.65802399999999
6.132506000000071,-15.438979000000012,-4.65802399999999
10.619783000000071,-14.290031666666678,-2.851623486666657
15.107060000000073,-13.141084333333344,-1.0452229733333238
19.594337000000074,-11.992137000000008,0.7611775400000097
19.594337000000078,-11.992137000000008,0.7611775400000097
17.462401666666747,-14.526203666666675,-0.28244957333332343
15.330466333333414,-17.06027033333334,-1.3260766866666567
13.198531000000083,-19.594337000000007,-2.3697037999999897
13.198531000000083,-19.594337000000007,-2.3697037999999897
7.201664833333417,-19.591145666666673,-1.7665064533333232
1.2047986666667505,-19.58795433333334,-1.1633091066666565
-4.7920674999999155,-19.584763000000006,-0.5601117599999902
-4.7920674999999155,-19.584763000000006,-0.5601117599999902
-8.455932666666582,-16.897503333333336,0.13244812666667627
-12.119797833333246,-14.21024366666667,0.8250080133333427
-15.783662999999914,-11.522984000000003,1.5175679000000093
-13.492151333333245,-5.966547333333335,0.6654320000000095
-11.200639666666575,-0.41011066666666923,-0.18670389999999037
-8.909127999999907,5.1463259999999975,-1.0388397999999903
-8.909127999999908,5.1463259999999975,-1.0388397999999903
-8.909127999999908,5.1463259999999975,-1.0388397999999903
-9.745306666666577,5.791013199999997,-2.2739580333333236
-10.581485333333246,6.435700399999997,-3.509076266666657
-11.417663999999915,7.080387599999997,-4.74419449999999
-11.388939999999915,4.1218483999999975,-3.8122706666666573
-11.360215999999914,1.1633091999999978,-2.8803468333333235
-11.331491999999912,-1.7952300000000019,-1.9484229999999902
-11.331491999999912,-1.7952300000000019,-1.9484229999999902
-10.36446166666658,-7.728265666666669,-0.818624866666657
-9.397431333333246,-13.661301333333336,0.3111732666666763
-8.430400999999913,-19.594337,1.4409714000000096
-8.430400999999913,-19.594337,1.4409714000000093
-5.899525346666579,-19.342207333333334,1.811187666666676
-3.368649693333245,-19.09007766666667,2.1814039333333426
-0.8377740399999117,-18.837948,2.551620200000009
-0.8377740399999117,-18.837948,2.551620200000009
-1.7154420933332448,-18.416667333333336,1.875018000000009
-2.5931101466665782,-17.995386666666672,1.198415800000009
-3.4707781999999114,-17.574106000000004,0.5218136000000091
-3.4707781999999114,-17.574106000000004,0.5218136000000092
1.6803352000000882,-13.954922000000005,1.5143764000000093
6.831448600000087,-10.335738000000006,2.506939200000009
11.982562000000087,-6.716554000000007,3.499502000000009
14.360244666666754,-10.383610666666675,3.5665239000000093
16.73792733333342,-14.050667333333342,3.6335458000000096
19.11561000000009,-17.717724000000008,3.70056770000001
19.11561000000009,-17.717724000000008,3.70056770000001
19.11561000000009,-17.717724000000008,3.70056770000001
15.170891000000088,-18.343261666666674,0.94628570000001
11.226172000000085,-18.968799333333337,-1.8079962999999901
7.281453000000085,-19.594337,-4.56227829999999
0.9047960000000854,-18.936884333333335,-4.725045699999991
-5.471860999999914,-18.279431666666667,-4.887813099999991
-11.848517999999913,-17.621979,-5.050580499999991
-11.848517999999913,-17.621979,-5.050580499999991
-11.992136666666582,-11.561282080000003,-4.983558666666657
-12.13575533333325,-5.5005851600000035,-4.916536833333325
-12.279373999999919,0.5601117599999963,-4.849514999999992
-12.279373999999919,0.5601117599999963,-4.849514999999992
-11.290002666666586,2.2324682733333296,-4.208019433333326
-10.300631333333254,3.9048247866666634,-3.566523866666659
-9.31125999999992,5.577181299999996,-2.9250282999999926
-9.31125999999992,5.577181299999996,-2.9250282999999926
-8.909128333333253,4.386744299999997,-3.840994533333326
-8.506996666666586,3.196307299999996,-4.7569607666666585
-8.10486499999992,2.0058702999999958,-5.672926999999992
-8.10486499999992,2.005870299999996,-5.672926999999992
-9.276152999999919,-0.9782009333333375,-3.0686465666666582
-10.447440999999918,-3.9622721666666707,-0.46436613333332516
-11.618728999999917,-6.946343400000004,2.139914300000008
-11.618728999999917,-6.946343400000004,2.1399143000000085
-11.660218666666582,-11.16234126666667,2.0409771666666754
-11.701708333333249,-15.378339133333336,1.9420400333333419
-11.743197999999914,-19.594337,1.8431029000000085
-9.225088799999915,-18.90177766666667,2.5452373666666754
-6.706979599999914,-18.20921833333334,3.2473718333333417
-4.188870399999914,-17.516659000000008,3.9495063000000084
-4.188870399999914,-17.516659000000008,3.9495063000000084
-1.4537375999999134,-15.681534666666673,3.5920559666666754
1.2813952000000866,-13.846410333333338,3.234605633333342
4.016528000000086,-12.011286000000004,2.877155300000009
4.016528000000086,-12.011286000000004,2.877155300000009
8.963384666666753,-12.863422000000005,1.8686349700000087
13.910241333333419,-13.715558000000007,0.8601146400000088
18.857098000000086,-14.567694000000008,-0.14840568999999126
18.857098000000086,-14.567694000000008,-0.14840568999999126
17.002824333333418,-16.243241666666673,-1.1377769599999912
15.148550666666752,-17.918789333333336,-2.127148229999991
13.294277000000086,-19.594337,-3.1165194999999906
13.294277000000086,-19.594337,-3.1165194999999906
6.745277766666753,-19.587954666666672,-3.6973761333333237
0.19627853333342019,-19.581572333333337,-4.278232766666657
-6.352720699999913,-19.575190000000003,-4.859089399999991
-6.352720699999913,-19.57519,-4.8590893999999905
-10.683613799999913,-17.644319666666668,-3.9080163666666574
-15.014506899999914,-15.713449333333337,-2.956943333333324
-19.345399999999916,-13.782579000000004,-2.0058702999999904
-19.345399999999916,-13.782579000000004,-2.0058702999999904
-16.52409599999992,-5.577181000000003,-2.2133190999999908
-13.702791999999917,2.628216999999997,-2.420767899999991
-10.881487999999914,10.833614999999996,-2.628216699999992
-12.03043533333325,12.068733333333329,-3.7037589999999923
-13.179382666666584,13.303851666666661,-4.779301299999992
-14.328329999999918,14.538969999999994,-5.854843599999992
-14.328329999999918,14.538969999999994,-5.854843599999992
-14.328329999999918,14.538969999999994,-5.854843599999992
-14.615566999999919,10.099565466666661,-5.771864066666659
-14.902803999999918,5.660160933333327,-5.688884533333326
-15.190040999999917,1.2207563999999937,-5.605904999999993
-16.425158999999915,-4.753769066666675,-5.449520566666659
-17.660276999999915,-10.728294533333342,-5.2931361333333244
-18.895394999999915,-16.702820000000013,-5.136751699999991
-18.895394999999915,-16.702820000000013,-5.13675169999999
-17.538998999999915,-17.66665900000001,-5.347391966666656
-16.18260299999992,-18.630498000000006,-5.558032233333324
-14.826206999999918,-19.594337000000007,-5.768672499999991
-14.82620699999992,-19.594337000000007,-5.768672499999991
-13.007040666666589,-18.649647000000005,-3.745248776666658
-11.187874333333255,-17.704957000000007,-1.7218250533333241
-9.368707999999922,-16.76026700000001,0.30159867000000923
-9.368707999999922,-16.76026700000001,0.30159867000000923
-3.327159999999923,-15.231529000000009,2.1303397800000092
2.7143880000000773,-13.70279100000001,3.9590808900000094
8.755936000000077,-12.17405300000001,5.787822000000009
8.755936000000077,-12.17405300000001,5.78782200000001
10.115523666666745,-14.341095333333342,4.686747466666676
11.47511133333341,-16.508137666666673,3.5856729333333437
12.834699000000079,-18.675180000000008,2.48459840000001
12.834699000000079,-18.675180000000008,2.48459840000001
11.194257466666746,-18.981565666666672,0.9303281333333436
9.553815933333413,-19.28795133333334,-0.623942133333323
7.91337440000008,-19.594337000000007,-2.1782123999999894
7.91337440000008,-19.594337000000007,-2.1782123999999894
0.917562266666747,-19.58157133333334,-3.955889266666656
-6.078249866666586,-19.568805666666673,-5.733566133333322
-13.07406199999992,-19.556040000000007,-7.511242999999989
-13.79215399999992,-15.89536616666667,-6.094207933333323
-14.510245999999922,-12.234692333333337,-4.677172866666656
-15.228337999999923,-8.574018500000005,-3.26013779999999
-15.228337999999923,-8.574018500000003,-3.2601377999999905
-13.329383666666589,-2.8899213333333367,-3.049497433333324
-11.430429333333256,2.79417583333333,-2.8388570666666575
-9.531474999999922,8.478272999999996,-2.628216699999991
-9.531474999999922,8.478272999999996,-2.628216699999991
-9.282536333333255,9.23466333333333,-4.211210699999992
-9.033597666666587,9.991053666666664,-5.794204699999992
-8.78465899999992,10.747443999999996,-7.377198699999993
-8.78465899999992,10.747443999999996,-7.377198699999993
-10.144246666666588,6.5410204999999975,-6.0208026666666585
-11.503834333333254,2.334596999999997,-4.664406633333325
-12.863421999999922,-1.871826500000003,-3.308010599999991
-12.863421999999922,-1.871826500000003,-3.308010599999991
-12.863421999999922,-1.871826500000003,-3.308010599999991
-14.200668666666587,-7.504859666666669,-2.6569404999999917
-15.537915333333254,-13.137892833333337,-2.005870399999992
-16.87516199999992,-18.770926000000003,-1.354800299999992
-16.533669666666587,-19.045396333333333,-2.286724199999992
-16.19217733333325,-19.319866666666666,-3.2186480999999922
-15.850684999999919,-19.594336999999996,-4.150571999999992
-15.850684999999919,-19.594336999999996,-4.150571999999992
-13.010231999999919,-19.495400333333333,-2.4080019666666583
-10.16977899999992,-19.396463666666666,-0.6654319333333248
-7.329325999999921,-19.297527000000002,1.0771381000000086
-7.329325999999921,-19.297527000000002,1.0771381000000086
-1.9165079999999224,-16.121964333333334,0.8569232000000087
3.496310000000076,-12.946401666666668,0.6367083000000087
8.909128000000075,-9.770839000000004,0.4164934000000086
8.909128000000075,-9.770839000000002,0.4164934000000086
12.45171533333341,-12.509163,0.3941527500000086
15.994302666666746,-15.247486999999994,0.3718121000000086
19.53689000000008,-17.98581099999999,0.3494714500000086
19.53689000000008,-17.985810999999988,0.3494714500000086
16.776225333333414,-18.352835666666653,-1.329268233333325
14.01556066666675,-18.71986033333332,-3.0080079166666582
11.254896000000082,-19.086884999999985,-4.6867475999999915
11.254896000000082,-19.086884999999985,-4.686747599999991
5.558032333333418,-19.25603566666665,-3.9143996666666574
-0.1388313333332487,-19.42518633333332,-3.1420517333333238
-5.835694999999915,-19.594336999999985,-2.3697037999999906
-5.835694999999915,-19.594336999999985,-2.3697037999999906
-9.174024999999917,-16.903885999999986,-1.389907083333324
-12.512354999999916,-14.213434999999984,-0.41011036666665746
-15.850684999999915,-11.522983999999985,0.569686350000009
-15.850684999999915,-11.522983999999985,0.569686350000009
-14.286839999999918,-6.722937566666651,-0.1420226666666576
-12.722994999999917,-1.9228911333333187,-0.8537316833333243
-11.159149999999917,2.8771553000000143,-1.565440699999991
-9.438920666666585,4.9580265333333475,-2.976092466666658
-7.7186913333332505,7.038897766666682,-4.386744233333324
-5.998461999999917,9.119769000000014,-5.797395999999991
-5.998461999999917,9.119769000000014,-5.797395999999991
-5.998461999999917,9.119769000000014,-5.797395999999991
-7.989970666666584,6.413359866666681,-5.088878666666658
-9.981479333333251,3.7069507333333473,-4.380361333333325
-11.972987999999916,1.0005416000000142,-3.6718439999999917
-12.458098999999914,-4.131422599999986,-2.982475633333325
-12.943209999999914,-9.263386799999987,-2.293107266666658
-13.428320999999912,-14.39535099999999,-1.6037388999999915
-13.428320999999912,-14.395350999999986,-1.6037388999999915
-13.428320999999912,-14.395350999999986,-1.6037388999999915
-13.428320999999912,-14.395350999999986,-1.6037388999999915
-13.428320999999912,-14.395350999999986,-1.6037388999999915
-13.428320999999912,-14.395350999999986,-1.6037388999999915
-11.258087233333248,-16.04217566666665,0.11010740000000847
-9.087853466666582,-17.689000333333315,1.8239537000000083
-6.917619699999914,-19.335824999999982,3.537800000000008
-1.7026757999999143,-15.18365719999998,3.2090734000000083
3.5122681000000857,-11.031489399999979,2.8803468000000088
8.727212000000085,-6.879321599999979,2.5516202000000088
8.727212000000085,-6.879321599999979,2.5516202000000088
12.34320466666675,-8.656998399999976,1.9452314333333416
15.959197333333416,-10.434675199999976,1.3388426666666753
19.57519000000008,-12.212351999999976,0.7324539000000088
19.57519000000008,-12.212351999999976,0.7324539000000087
17.35708300000008,-14.35386233333331,0.062234666666675244
15.138976000000083,-16.495372666666643,-0.6079845666666581
12.920869000000083,-18.63688299999998,-1.2782037999999913
12.920869000000087,-18.63688299999998,-1.2782037999999913
8.242100566666753,-18.95603433333331,-1.1856497333333247
3.5633321333334202,-19.275185666666644,-1.093095666666658
-1.115436299999913,-19.594336999999978,-1.0005415999999914
-1.115436299999913,-19.594336999999978,-1.0005415999999914
-6.33037986666658,-17.637935333333314,-0.7962842999999914
-11.545323433333246,-15.681533666666647,-0.5920269999999913
-16.760266999999914,-13.725131999999983,-0.38776969999999117
-16.760266999999914,-13.725131999999983,-0.38776969999999117
-14.264498666666578,-6.579318533333317,-0.7675605999999912
-11.768730333333243,0.5664949333333507,-1.1473514999999912
-9.272961999999909,7.712308400000016,-1.5271423999999911
-9.272961999999909,7.712308400000016,-1.5271423999999911
-9.049555333333243,8.522954600000016,-2.6154507666666578
-8.826148666666576,9.333600800000017,-3.703759133333324
-8.602741999999909,10.144247000000016,-4.79206749999999
-10.715528666666577,6.579318933333348,-4.342063166666657
-12.828315333333244,3.0143908666666817,-3.8920588333333233
-14.94110199999991,-0.5505371999999854,-3.44205449999999
-14.94110199999991,-0.5505371999999854,-3.44205449999999
-14.94110199999991,-0.5505371999999854,-3.44205449999999
-15.853876666666578,-6.876129799999986,-2.1877870799999903
-16.766651333333243,-13.201722399999987,-0.9335196599999903
-17.67942599999991,-19.527314999999987,0.32074776000000965
-16.192177666666577,-19.549655666666652,0.30479016666667635
-14.704929333333245,-19.571996333333317,0.288832573333343
-13.217680999999912,-19.59433699999998,0.27287498000000965
-13.217680999999912,-19.59433699999998,0.2728749800000096
-9.470836233333245,-19.013480666666652,0.7899012200000096
-5.723991466666578,-18.43262433333332,1.3069274600000096
-1.9771466999999106,-17.851767999999982,1.8239537000000094
-1.9771466999999106,-17.851767999999982,1.8239537000000094
2.4271508666667567,-14.746418999999982,2.7782183333333426
6.831448433333423,-11.641069999999983,3.732482966666676
11.23574600000009,-8.535720999999983,4.686747600000009
11.23574600000009,-8.535720999999983,4.68674760000001
12.445332333333424,-10.862338999999983,3.8186540000000093
13.654918666666758,-13.18895699999998,2.9505604000000094
14.864505000000092,-15.515574999999979,2.0824668000000095
14.864505000000092,-15.515574999999979,2.0824668000000095
12.53788690000009,-16.77303399999998,1.0228821666666763
10.211268800000092,-18.030492999999982,-0.036702466666657184
7.884650700000091,-19.287951999999986,-1.0962870999999905
7.884650700000091,-19.287951999999986,-1.0962870999999905
2.107999133333425,-19.390080333333316,-1.5462914999999906
-3.6686524333332415,-19.492208666666645,-1.9962958999999902
-9.445303999999908,-19.594336999999978,-2.4463002999999905
-9.445303999999908,-19.594336999999978,-2.4463002999999905
-11.258087666666574,-18.531561333333315,-0.8728807999999905
-13.070871333333239,-17.46878566666665,0.7005387000000095
-14.883654999999905,-16.40600999999999,2.2739582000000094
-13.399597666666573,-9.700625966666657,0.8026673666666762
-11.91554033333324,-2.995241933333323,-0.6686234666666572
-10.431482999999908,3.710142100000011,-2.1399142999999907
-10.431482999999908,3.710142100000011,-2.1399142999999907
-10.026159999999907,7.488902066666678,-2.9154535333333236
-9.620836999999907,11.267662033333345,-3.690992766666657
-9.215513999999907,15.046422000000012,-4.46653199999999
-9.215513999999907,15.046422000000012,-4.46653199999999
-10.734677833333242,11.797454333333347,-4.996324533333323
-12.253841666666574,8.548486666666678,-5.526117066666656
-13.773005499999906,5.299519000000012,-6.055909599999989
-13.773005499999906,5.299519000000012,-6.055909599999989
-14.23896733333324,0.09095833333334546,-4.833557333333322
-14.704929166666574,-5.117602333333321,-3.611205066666655
-15.170890999999907,-10.326162999999989,-2.3888527999999885
-15.170890999999907,-10.326162999999987,-2.3888527999999885
-15.563447999999909,-13.41555433333332,-1.2462885999999886
-15.95600499999991,-16.504945666666654,-0.10372439999998855
-16.348561999999912,-19.59433699999999,1.0388398000000114
-16.348561999999912,-19.594336999999992,1.0388398000000114
-16.418775333333244,-19.594336999999992,1.233522533333345
-16.488988666666575,-19.594336999999992,1.4282052666666782
-16.55920199999991,-19.594336999999992,1.6228880000000114
-11.039467999999909,-17.341124333333326,2.4686409000000116
-5.51973399999991,-15.087911666666662,3.314393800000012
9.000207986294602e-14,-12.834698999999995,4.160146700000012
9.000207986294602e-14,-12.834698999999995,4.160146700000012
5.35377500000009,-12.930444333333329,3.540991700000012
10.70755000000009,-13.026189666666662,2.9218367000000125
16.061325000000092,-13.121934999999995,2.302681700000013
16.061325000000092,-13.121934999999995,2.302681700000013
16.058133333333426,-15.27940233333333,2.4782153000000124
16.05494166666676,-17.436869666666663,2.653748900000012
16.051750000000094,-19.594337,2.8292825000000117
16.051750000000094,-19.594337,2.8292825000000117
9.69105056666676,-19.578379666666667,0.5281964666666782
3.3303511333334277,-19.562422333333334,-1.772889566666655
-3.0303482999999054,-19.546465,-4.073975599999988
-3.0303482999999054,-19.546465,-4.073975599999987
-8.449549533333238,-18.53475333333333,-4.23355153333332
-13.868750766666572,-17.523041666666668,-4.393127466666654
-19.287951999999905,-16.51133,-4.552703399999988
-19.287951999999905,-16.511330000000005,-4.552703399999989
-16.441115999999905,-9.461261833333339,-4.208019266666655
-13.594279999999904,-2.4111936666666742,-3.863335133333322
-10.747443999999902,4.63887449999999,-3.518650999999988
-10.747443999999902,4.63887449999999,-3.518650999999988
-9.965521666666568,7.508051333333324,-3.295244599999988
-9.183599333333234,10.377228166666656,-3.071838199999988
-8.4016769999999,13.24640499999999,-2.848431799999988
-9.860201666666567,9.965522033333325,-3.2569463999999884
-11.318726333333233,6.684639066666659,-3.6654609999999885
-12.7772509999999,3.403756099999992,-4.073975599999989
-12.7772509999999,3.403756099999992,-4.073975599999989
-12.7772509999999,3.403756099999992,-4.073975599999989
-12.933635666666568,0.11010739999999168,-2.966518066666655
-13.090020333333236,-3.183541300000009,-1.8590605333333217
-13.246404999999903,-6.477190000000008,-0.7516029999999884
-15.205998333333236,-10.772976000000012,-0.46755770666665514
-17.16559166666657,-15.068762000000014,-0.18351241333332177
-19.125184999999906,-19.364548000000017,0.10053288000001158
-19.125184999999906,-19.364548000000017,0.10053288000001158
-18.62730799999991,-19.441144333333348,-0.7196877466666551
-18.12943099999991,-19.51774066666668,-1.5399083733333219
-17.631553999999912,-19.594337000000014,-2.3601289999999886
-17.631553999999916,-19.594337000000014,-2.360128999999988
-11.47830283333325,-18.320920666666684,-1.230330899999988
-5.325051666666584,-17.047504333333354,-0.10053279999998788
0.8281995000000831,-15.774088000000026,1.0292653000000123
0.8281995000000831,-15.774088000000026,1.0292653000000123
7.0835786666667495,-14.280456666666693,0.44202556666667886
13.338957833333417,-12.78682533333336,-0.14521416666665452
19.594337000000085,-11.293194000000026,-0.7324538999999879
19.594337000000085,-11.293194000000026,-0.7324538999999879
17.641127000000086,-14.060241666666693,0.576069400000012
15.68791700000009,-16.827289333333358,1.8845927000000122
13.73470700000009,-19.594337000000024,3.193116000000012
13.73470700000009,-19.594337000000024,3.193116000000012
10.13786380000009,-19.594337000000024,-0.0015956666666549306
6.541020600000091,-19.594337000000024,-3.1963073333333214
2.944177400000091,-19.594337000000024,-6.3910189999999885
-3.7931217333332428,-19.418804000000023,-6.553786533333322
-10.530420866666576,-19.24327100000002,-6.716554066666656
-17.267719999999912,-19.06773800000002,-6.879321599999989
-17.267719999999912,-19.067738000000016,-6.879321599999989
-15.99111199999991,-12.79640062000002,-6.055909499999988
-14.714503999999911,-6.52506324000002,-5.232497399999986
-13.43789599999991,-0.25372586000002073,-4.409085299999986
-13.43789599999991,-0.25372586000002073,-4.409085299999985
-12.362353333333244,5.002707759999979,-3.9941875999999854
-11.286810666666575,10.25914137999998,-3.5792898999999854
-10.211267999999906,15.515574999999979,-3.1643921999999858
-10.211267999999906,15.515574999999979,-3.1643921999999858
-11.057021333333239,12.122989233333314,-3.6048219666666523
-11.902774666666573,8.73040346666665,-4.045251733333319
-12.748527999999908,5.337817699999984,-4.485681499999986
-12.748527999999908,5.337817699999984,-4.485681499999986
-13.804920833333242,2.819708199999983,-3.716525133333319
-14.861313666666575,0.30159869999998296,-2.9473687666666524
-15.917706499999909,-2.2165108000000173,-2.1782123999999854
-15.917706499999909,-2.2165108000000173,-2.1782123999999854
-16.204943333333244,-7.70592553333335,-1.166500546666652
-16.49218016666658,-13.195340266666683,-0.15478869333331868
-16.779416999999913,-18.684755000000017,0.8569231600000147
-16.779416999999913,-18.68475500000002,0.8569231600000147
-17.42410399999991,-18.987949000000018,0.907987473333348
-18.068790999999912,-19.29114300000002,0.9590517866666813
-18.713477999999913,-19.59433700000002,1.0101161000000147
-13.974070666666577,-19.163482333333352,1.5462915000000146
-9.234663333333243,-18.732627666666687,2.0824669000000147
-4.4952559999999115,-18.301773000000022,2.6186423000000145
-4.4952559999999115,-18.301773000000022,2.618642300000015
-4.4952559999999115,-18.301773000000022,2.618642300000015
2.803750666666756,-15.719833000000023,4.003762066666682
10.102757333333424,-13.137893000000025,5.388881833333348
17.40176400000009,-10.555953000000025,6.774001600000013
17.009206666666756,-13.377257000000023,5.88675896666668
16.616649333333424,-16.198561000000023,4.999516333333347
16.224092000000088,-19.01986500000002,4.1122737000000145
16.224092000000088,-19.01986500000002,4.1122737000000145
11.921923066666755,-19.211355666666687,1.0707550000000146
7.619754133333419,-19.402846333333354,-1.9707636999999856
3.317585200000085,-19.59433700000002,-5.012282399999986
3.317585200000085,-19.59433700000002,-5.012282399999986
-3.7675895333332483,-19.46986800000002,-5.03462293333332
-10.852764266666583,-19.345399000000018,-5.0569634666666525
-17.937938999999915,-19.22093000000002,-5.079303999999986
-17.937938999999915,-19.22093000000002,-5.079303999999986
-15.588980333333248,-13.524066533333354,-3.7835469333333194
-13.240021666666584,-7.827203066666687,-2.4877898666666525
-10.891062999999917,-2.1303396000000205,-1.1920327999999856
-10.891062999999917,-2.13033960000002,-1.1920327999999853
-10.565527666666583,3.5665239333333125,-1.7760809999999854
-10.239992333333248,9.263387466666645,-2.360129199999985
-9.914456999999913,14.960250999999978,-2.9441773999999854
-9.914456999999913,14.960250999999978,-2.9441773999999854
-11.14000066666658,12.968742333333312,-4.5399374999999855
-12.365544333333247,10.977233666666647,-6.135697599999985
-13.591087999999914,8.98572499999998,-7.731457699999985
-13.591087999999914,8.98572499999998,-7.731457699999985
-14.117688999999913,5.522925633333313,-6.869747133333317
-14.644289999999913,2.0601262666666464,-6.008036566666651
-15.170890999999912,-1.40267310000002,-5.146325999999985
-15.170890999999912,-1.40267310000002,-5.146325999999986
-16.30068933333325,-6.119739733333353,-3.885675633333319
-17.430487666666583,-10.836806366666686,-2.6250252666666523
-18.56028599999992,-15.553873000000019,-1.3643748999999854
-18.56028599999992,-15.553873000000019,-1.3643748999999854
-18.90816133333325,-16.90069433333335,-1.6516116666666523
-19.256036666666578,-18.247515666666686,-1.938848433333319
-19.60391199999991,-19.59433700000002,-2.2260851999999858
-19.603911999999905,-19.59433700000002,-2.2260851999999858
-15.866641999999906,-19.399654666666688,-1.2462885466666525
-12.129371999999906,-19.204972333333355,-0.26649189333331885
-8.392101999999907,-19.010290000000023,0.7133047600000145
-8.392101999999907,-19.010290000000023,0.7133047600000145
-0.5218133333332388,-16.01345233333336,0.907987473333348
7.348475333333429,-13.016614666666689,1.1026701866666813
15.218764000000098,-10.01977700000002,1.2973529000000148
15.218764000000098,-10.01977700000002,1.2973529000000148
15.024081333333429,-12.036818000000023,1.3165020333333481
14.829398666666762,-14.053859000000024,1.3356511666666815
14.634716000000095,-16.070900000000027,1.3548003000000148
14.634716000000095,-16.070900000000027,1.3548003000000148
12.282565566666761,-17.17197433333336,-0.37181213333331886
9.930415133333428,-18.273048666666693,-2.0984245666666523
7.578264700000095,-19.37412300000003,-3.8250369999999863
7.578264700000095,-19.37412300000003,-3.8250369999999863
0.5696864666667624,-19.447527666666698,-4.779301466666652
-6.438891766666571,-19.520932333333363,-5.733565933333318
-13.447469999999903,-19.594337000000028,-6.687830399999984
-13.447469999999905,-19.594337000000028,-6.687830399999984
-14.484713999999906,-16.01983500000003,-5.478244266666651
-15.521957999999907,-12.445333000000028,-4.268658133333318
-16.55920199999991,-8.870831000000027,-3.059071999999985
-16.55920199999991,-8.87083100000003,-3.059071999999985
-13.172999266666574,-2.088850333333363,-2.640982899999985
-9.78679653333324,4.693130333333303,-2.222893799999985
-6.400593799999906,11.475110999999968,-1.8048046999999847
-6.400593799999906,11.475110999999968,-1.8048046999999847
-7.827203199999906,11.577239666666635,-3.5409916999999846
-9.253812599999907,11.679368333333302,-5.277178699999984
-10.680421999999908,11.781496999999971,-7.0133656999999845
-10.913402999999908,8.280399266666636,-7.255921133333318
-11.146383999999907,4.779301533333304,-7.498476566666651
-11.379364999999908,1.2782037999999705,-7.741031999999984
-11.379364999999908,1.2782037999999705,-7.741031999999984
-11.379364999999908,1.2782037999999705,-7.741031999999984
-12.020860666666573,-0.2505343333333629,-6.783575999999983
-12.662356333333241,-1.7792724666666961,-5.826119999999983
-13.303851999999907,-3.3080106000000296,-4.868663999999982
-15.403871999999907,-8.736786066666697,-5.385690199999982
-17.503891999999905,-14.165561533333362,-5.902716399999982
-19.603911999999905,-19.594337000000028,-6.419742599999982
-19.603911999999905,-19.594337000000028,-6.419742599999982
-18.94007599999991,-19.594337000000028,-5.302710633333316
-18.27623999999991,-19.594337000000028,-4.185678666666649
-17.61240399999991,-19.594337000000028,-3.068646699999982
-17.612403999999913,-19.594337000000028,-3.068646699999982
-9.37189889999991,-17.159207333333367,-1.3675664666666485
-1.1313937999999115,-14.724077666666696,0.33351376666668475
7.10911130000009,-12.288948000000028,2.034594000000018
7.10911130000009,-12.288948000000028,2.034594000000018
10.466590866666756,-13.731515333333363,1.3771408813333512
13.824070433333423,-15.174082666666697,0.7196877626666848
17.18155000000009,-16.616650000000032,0.06223464400001818
17.181550000000087,-16.61665000000003,0.06223464400001818
17.181550000000087,-16.61665000000003,0.06223464400001818
17.181550000000087,-16.61665000000003,0.06223464400001818
17.181550000000087,-16.61665000000003,0.06223464400001818
9.531475833333419,-17.609212333333364,-2.5037475706666483
1.8814016666667517,-18.601774666666696,-5.069729785333315
-5.768672499999916,-19.59433700000003,-7.635711999999981
-5.768672499999916,-19.594337000000035,-7.635711999999981
-10.070841666666583,-18.85071333333337,-7.019748666666648
-14.373010833333252,-18.107089666666706,-6.403785333333315
-18.67517999999992,-17.36346600000004,-5.787821999999982
-18.675179999999923,-17.36346600000004,-5.787821999999982
-14.835781333333253,-10.27509950000004,-5.510159666666648
-10.996382666666586,-3.1867330000000407,-5.232497333333314
-7.15698399999992,3.9016334999999587,-4.954834999999981
-7.156983999999919,3.9016334999999587,-4.9548349999999814
-8.465507333333251,6.608042666666626,-5.733565833333315
-9.774030666666585,9.314451833333292,-6.512296666666647
-11.082553999999918,12.02086099999996,-7.291027499999981
-11.082553999999918,12.02086099999996,-7.291027499999981
-11.695325666666585,9.639986899999958,-7.485710333333315
-12.30809733333325,7.259112799999958,-7.680393166666648
-12.920868999999916,4.878238699999958,-7.875075999999982
-13.291085333333248,2.9314113666666244,-6.406976733333316
-13.66130166666658,0.984584033333291,-4.938877466666649
-14.031517999999911,-0.9622433000000422,-3.4707781999999816
-14.031517999999911,-0.9622433000000422,-3.4707781999999816
-15.888982666666578,-6.445275200000043,-3.592055933333315
-17.746447333333247,-11.928307100000046,-3.713333666666648
-19.603911999999916,-17.411339000000044,-3.834611399999982
-19.603911999999916,-17.411339000000044,-3.834611399999982
-19.396462999999915,-18.139005000000044,-3.3686494666666484
-19.18901399999991,-18.866671000000043,-2.902687533333315
-18.98156499999991,-19.594337000000042,-2.4367255999999813
-18.981564999999907,-19.594337000000042,-2.436725599999981
-13.153849566666574,-16.96452466666671,0.10372450000001916
-7.326134133333242,-14.334712333333377,2.6441746000000195
-1.4984186999999085,-11.704900000000043,5.184624700000019
-1.4984186999999085,-11.704900000000043,5.184624700000019
2.8994962000000917,-10.195311000000041,5.066538366666687
7.297411100000091,-8.685722000000041,4.9484520333333535
11.695326000000092,-7.17613300000004,4.83036570000002
11.695326000000092,-7.17613300000004,4.830365700000021
12.754910666666758,-8.75274400000004,3.9878043666666874
13.814495333333424,-10.32935500000004,3.1452430333333545
14.87408000000009,-11.90596600000004,2.3026817000000217
13.61662100000009,-14.408118000000039,0.04946846666668803
12.35916200000009,-16.91027000000004,-2.2037447666666456
11.101703000000091,-19.412422000000042,-4.45695799999998
11.101703000000091,-19.412422000000042,-4.456957999999979
11.101703000000091,-19.412422000000042,-4.456957999999979
5.273987166666757,-19.473060333333375,-3.304819199999979
-0.5537286666665769,-19.533698666666712,-2.1526803999999786
-6.381444499999911,-19.594337000000046,-1.0005415999999787
-8.430400666666577,-16.157070166666713,-0.44840859999997873
-10.479356833333243,-12.71980333333338,0.1037244000000213
-12.528312999999912,-9.282536500000045,0.6558574000000214
-12.528312999999912,-9.282536500000047,0.6558574000000214
-13.677259999999913,-3.3495006666667133,-1.0675634999999786
-14.826206999999917,2.583535166666621,-2.7909843999999784
-15.975153999999918,8.516570999999955,-4.514405299999979
-15.975153999999918,8.516570999999955,-4.514405299999979
-13.55279033333325,8.05699233333329,-5.184624533333312
-11.130426666666585,7.597413666666623,-5.854843766666645
-8.708062999999918,7.137834999999957,-6.525062999999978
-8.708062999999918,7.137834999999957,-6.525062999999978
-11.101702999999915,4.428234319999957,-5.717608433333311
-13.495342999999913,1.7186336399999569,-4.9101538666666436
-15.88898299999991,-0.9909670400000433,-4.102699299999976
-15.88898299999991,-0.9909670400000433,-4.102699299999976
-16.69962866666658,-5.7463320266667095,-3.8282284999999767
-17.510274333333246,-10.501697013333375,-3.553757699999977
-18.320919999999916,-15.25706200000004,-3.2792868999999776
-18.320919999999916,-15.25706200000004,-3.2792868999999776
-18.73900999999991,-16.702820333333374,-2.5675779333333106
-19.15709999999991,-18.14857866666671,-1.8558689666666444
-19.575189999999907,-19.594337000000046,-1.1441599999999779
-19.575189999999903,-19.59433700000005,-1.1441599999999779
-16.153879999999905,-18.95922500000005,-0.017553399999977737
-12.732569999999903,-18.324113000000054,1.1090532000000224
-9.311259999999903,-17.689001000000058,2.2356598000000227
-3.237797333333237,-14.507055333333389,2.6984302666666893
2.835665333333429,-11.32510966666672,3.161200733333356
8.909128000000095,-8.143164000000052,3.6239712000000224
8.909128000000095,-8.143164000000054,3.6239712000000224
11.53574933333343,-9.54424116666672,3.751632033333356
14.162370666666765,-10.945318333333388,3.8792928666666895
16.7889920000001,-12.346395500000055,4.006953700000023
16.7889920000001,-12.346395500000055,4.006953700000023
15.525150000000098,-13.830452666666721,2.111190666666689
14.261308000000097,-15.314509833333389,0.21542763333335588
12.997466000000095,-16.79856700000006,-1.6803353999999775
12.997466000000093,-16.79856700000006,-1.6803353999999775
7.0133656666667585,-17.73049033333339,-2.299490266666644
1.029265333333426,-18.66241366666672,-2.9186451333333103
-4.954834999999907,-19.59433700000005,-3.537799999999977
-4.954834999999907,-19.59433700000005,-3.537799999999977
-7.192090666666574,-18.218792333333383,-1.9069332333333102
-9.42934633333324,-16.843247666666716,-0.27606646666664353
-11.666601999999907,-15.467703000000052,1.354800300000023
-11.666601999999907,-15.467703000000052,1.354800300000023
-11.583622666666576,-8.392102666666718,0.18670386666668973
-11.500643333333244,-1.3165023333333845,-0.9813925666666435
-11.417663999999911,5.759097999999949,-2.149488999999977
-11.417663999999911,5.759097999999949,-2.149488999999977
-11.232555666666578,7.958055333333282,-3.276095666666644
-11.047447333333244,10.157012666666615,-4.40270233333331
-10.862338999999908,12.355969999999948,-5.529308999999977
-12.45809899999991,9.08466193333328,-5.934631999999977
-14.05385899999991,5.813353866666613,-6.339954999999978
-15.64961899999991,2.542045799999947,-6.745277999999978
-15.64961899999991,2.542045799999947,-6.745277999999978
-16.418775333333244,0.39096119999994716,-6.039951999999978
-17.187931666666575,-1.7601234000000527,-5.334625999999979
-17.95708799999991,-3.911208000000053,-4.629299999999979
-17.95708799999991,-3.911208000000053,-4.629299999999979
-18.50602933333324,-9.13891766666672,-4.00376199999998
-19.054970666666577,-14.366627333333385,-3.3782239999999795
-19.603911999999912,-19.594337000000053,-2.7526859999999793
-19.603911999999916,-19.594337000000053,-2.7526859999999793
-18.818798333333245,-19.594337000000053,-3.030348299999979
-18.033684666666577,-19.594337000000053,-3.3080105999999794
-17.248570999999906,-19.594337000000053,-3.585672899999979
-17.248570999999902,-19.594337000000053,-3.585672899999979
-10.51765486666657,-16.776225000000053,-0.7037301333333125
-3.7867387333332374,-13.958113000000054,2.1782126333333545
2.9441774000000955,-11.140001000000055,5.0601554000000215
2.9441774000000955,-11.140001000000055,5.0601554000000215
6.6176172666667625,-11.28361933333339,4.731428800000022
10.29105713333343,-11.427237666666722,4.402702200000022
13.964497000000096,-11.570856000000056,4.073975600000023
14.312372333333428,-13.64534433333339,3.7835472000000236
14.660247666666761,-15.719832666666726,3.493118800000024
15.008123000000092,-17.79432100000006,3.2026904000000243
15.008123000000092,-17.794321000000064,3.2026904000000243
15.008123000000092,-17.794321000000064,3.2026904000000243
10.922977333333426,-18.394326333333396,1.4824610666666906
6.837831666666759,-18.994331666666728,-0.23776826666664283
2.7526860000000926,-19.594337000000063,-1.9579975999999764
-4.010144999999908,-19.380505666666732,-2.111190599999976
-10.772975999999908,-19.1666743333334,-2.264383599999976
-17.535806999999906,-18.95284300000007,-2.417576599999976
-17.535806999999906,-18.95284300000007,-2.417576599999976
-17.64112733333324,-11.570856666666733,-3.9080165666666424
-17.74644766666657,-4.188870333333399,-5.398456533333309
-17.851767999999897,3.1931159999999346,-6.888896499999976
-17.851767999999897,3.1931159999999346,-6.888896499999976
-16.680479999999896,7.581456333333268,-7.948480999999976
-15.509191999999898,11.969796666666602,-9.008065499999978
-14.337903999999897,16.35813699999993,-10.067649999999977
-14.337903999999897,16.35813699999993,-10.067649999999977
-16.061324999999897,12.2697994666666,-10.78574233333331
-17.784745999999895,8.181461933333267,-11.503834666666643
-19.508166999999894,4.093124399999934,-12.221926999999978
-19.508166999999897,4.093124399999934,-12.221926999999978
-19.540081999999895,2.072892199999935,-11.58681433333331
-19.571996999999893,0.05265999999993465,-10.951701666666644
-19.60391199999989,-1.9675722000000653,-10.316588999999977
-19.603911999999887,-1.9675722000000653,-10.316588999999977
-19.597528999999888,-6.783576466666733,-11.23893833333331
-19.59114599999989,-11.599580733333399,-12.161287666666645
-19.58476299999989,-16.415585000000068,-13.08363699999998
-19.584762999999892,-16.415585000000068,-13.083636999999982
-19.415612666666558,-17.47516900000007,-9.936798099999981
-19.246462333333223,-18.53475300000007,-6.789959199999983
-19.07731199999989,-19.59433700000007,-3.643120299999983
-12.22511813333322,-17.015589000000073,0.052659966666683676
-5.372924266666554,-14.436841000000072,3.74844023333335
1.4792696000001129,-11.858093000000073,7.444220500000017
1.4792696000001129,-11.858093000000073,7.444220500000017
1.4792696000001129,-11.858093000000073,7.444220500000017
4.619725400000113,-11.526175000000073,8.363378500000017
7.760181200000113,-11.194257000000073,9.282536500000019
10.900637000000112,-10.862339000000075,10.201694500000018
11.599580000000111,-13.543216000000074,9.566581666666684
12.298523000000111,-16.224093000000074,8.93146883333335
12.997466000000111,-18.904970000000073,8.296356000000017
12.997466000000111,-18.904970000000073,8.296356000000019
9.21870606666678,-19.134759000000077,5.079303900000018
5.4399461333334465,-19.364548000000077,1.862251800000018
1.6611862000001132,-19.594337000000078,-1.3548002999999815
1.6611862000001132,-19.59433700000008,-1.3548002999999815
-5.427179866666553,-19.501783000000085,-3.2218396333333152
-12.515545933333222,-19.409229000000085,-5.088878966666648
-19.60391199999989,-19.31667500000009,-6.955918299999982
-19.603911999999887,-19.31667500000009,-6.955918299999982
-19.603911999999887,-10.300630766666755,-8.232526533333315
-19.603911999999887,-1.284586533333422,-9.509134766666648
-19.603911999999887,7.731457699999911,-10.78574299999998
-19.603911999999887,7.731457699999911,-10.785742999999982
-19.587954666666555,11.688942466666576,-13.40598066666665
-19.571997333333222,15.646427233333243,-16.02621833333332
-19.55603999999989,19.603911999999912,-18.646455999999986
-19.556039999999893,19.603911999999912,-18.646455999999986
-19.57199733333323,13.080444986666578,-16.31664633333332
-19.587954666666565,6.556977973333244,-13.986836666666653
-19.603911999999905,0.03351095999991097,-11.657026999999985
-19.603911999999905,-3.5218423600000883,-11.404896999999986
-19.603911999999905,-7.077195680000088,-11.152766999999988
-19.603911999999905,-10.632549000000088,-10.900636999999989
-19.603911999999905,-10.632549000000088,-10.900636999999989
-19.603911999999905,-13.619811666666754,-9.336792199999989
-19.603911999999905,-16.60707433333342,-7.772947399999989
-19.603911999999905,-19.594337000000085,-6.209102599999988
-19.603911999999905,-19.594337000000085,-6.209102599999987
-16.233666666666572,-19.498591333333422,-2.4782154999999872
-12.863421333333237,-19.402845666666753,1.2526716000000124
-9.493175999999904,-19.307100000000087,4.983558700000012
-9.493175999999904,-19.307100000000084,4.983558700000011
-1.910124333333237,-17.216654666666752,5.028239900000011
5.67292733333343,-15.126209333333422,5.07292110000001
13.255979000000096,-13.035764000000091,5.1176023000000095
13.255979000000096,-13.035764000000091,5.1176023000000095
11.937881000000095,-15.221955000000088,7.326134200000008
10.619783000000094,-17.408146000000087,9.534666100000008
9.301685000000095,-19.594337000000085,11.743198000000007
5.296327333333428,-19.594337000000085,9.821903000000006
1.2909696666667614,-19.594337000000085,7.900608000000005
-2.7143879999999054,-19.594337000000085,5.979313000000005
-2.7143879999999054,-19.594337000000085,5.979313000000005
-2.7143879999999054,-19.594337000000085,5.979313000000005
-8.242100999999906,-19.587954666666757,1.846294466666672
-13.769813999999906,-19.581572333333423,-2.2867240666666606
-19.297526999999906,-19.575190000000088,-6.419742599999993
-19.332633666666577,-18.266666333333422,-7.338900733333328
-19.367740333333245,-16.958142666666753,-8.25805886666666
-19.402846999999912,-15.649619000000085,-9.177216999999994
-19.402846999999916,-15.649619000000085,-9.177216999999994
-17.86453433333325,-6.847406333333417,-9.327217999999995
-16.326221666666587,1.9548063333332493,-9.477218999999996
-14.78790899999992,10.757018999999916,-9.627219999999996
-14.78790899999992,10.757018999999916,-9.627219999999996
-14.762376666666585,12.557035999999917,-10.188927999999997
-14.736844333333252,14.357052999999917,-10.750635999999998
-14.71131199999992,16.15706999999992,-11.312343999999998
-14.71131199999992,16.15706999999992,-11.312344000000001
-15.646427666666584,12.017668633333253,-10.568719500000002
-16.58154333333325,7.878267266666587,-9.825095000000001
-17.516658999999915,3.73886589999992,-9.0814705
-17.516658999999915,3.73886589999992,-9.0814705
-17.411338333333248,0.5250050666665866,-8.353803999999998
-17.30601766666658,-2.6888557666667467,-7.626137499999999
-17.200696999999916,-5.90271660000008,-6.898470999999998
-17.200696999999916,-5.902716600000081,-6.898470999999998
-18.00176866666658,-10.466590066666747,-7.878267666666665
-18.802840333333247,-15.030463533333416,-8.858064333333331
-19.60391199999991,-19.594337000000085,-9.837860999999998
-19.603911999999905,-19.594337000000085,-9.837861
-19.603911999999905,-19.594337000000085,-9.837861
-19.46667699999991,-19.594337000000085,-7.782522000000001
-19.329441999999908,-19.594337000000085,-5.727183000000001
-19.192206999999907,-19.594337000000085,-3.6718440000000014
-12.78682586599991,-18.777308333333423,-0.19627856666666776
-6.381444731999912,-17.960279666666754,3.279286866666666
0.02393640200008799,-17.143251000000088,6.7548523
0.02393640200008799,-17.143251000000085,6.7548523
0.02393640200008799,-17.143251000000085,6.7548523
6.419742601333422,-16.891120666666755,7.310176866666667
12.815548800666756,-16.63899033333342,7.865501433333335
19.21135500000009,-16.38686000000009,8.420826000000002
19.211355000000093,-16.386860000000095,8.420826000000003
17.092185833333428,-17.456019000000094,6.004845200000003
14.97301666666676,-18.525178000000093,3.5888644000000025
12.853847500000095,-19.594337000000092,1.172883600000003
4.230360000000094,-19.59114566666676,-2.331405599999997
-4.393127499999905,-19.587954333333425,-5.835694799999996
-13.016614999999907,-19.58476300000009,-9.339983999999996
-13.016614999999907,-19.58476300000009,-9.339983999999996
-13.016614999999907,-19.58476300000009,-9.339983999999996
-15.177273999999906,-18.429433000000092,-8.133589333333328
-17.337932999999907,-17.274103000000096,-6.927194666666662
-19.498591999999906,-16.1187730000001,-5.720799999999997
-18.06240833333324,-6.518680333333432,-7.03570633333333
-16.626224666666577,3.081412333333235,-8.350612666666663
-15.190040999999914,12.681504999999902,-9.665518999999998
-15.190040999999914,12.681504999999902,-9.665518999999998
-14.293223666666579,13.243212666666567,-9.742115499999999
-13.396406333333246,13.804920333333234,-9.818712
-12.499588999999913,14.3666279999999,-9.8953085
-12.499588999999913,14.3666279999999,-9.8953085
-13.35810799999991,9.729349213333235,-8.896362666666668
-14.21662699999991,5.0920704266665675,-7.897416833333335
-15.07514599999991,0.45479163999990035,-6.898471000000003
-15.07514599999991,0.45479163999990035,-6.898471000000003
-16.201752666666575,-4.115465240000099,-4.897387800000003
-17.328359333333243,-8.685722120000099,-2.896304600000003
-18.454965999999907,-13.255979000000101,-0.8952214000000026
-18.454965999999903,-13.255979000000101,-0.8952214000000026
-18.8379479999999,-15.368765000000101,-1.354800333333336
-19.2209299999999,-17.4815510000001,-1.8143792666666696
-19.603911999999898,-19.5943370000001,-2.273958200000003
-19.603911999999898,-19.5943370000001,-2.273958200000003
-17.75921366666656,-19.281568000000103,-1.1377770000000031
-15.914515333333226,-18.968799000000104,-0.0015958000000031447
-14.069816999999892,-18.656030000000104,1.1345853999999969
-14.069816999999892,-18.656030000000104,1.1345853999999969
-14.069816999999892,-18.656030000000104,1.1345853999999969
-7.166558666666558,-18.298580333333437,2.6824727333333303
-0.2633003333332245,-17.94113066666677,4.230360066666663
6.639958000000109,-17.5836810000001,5.778247399999998
8.069758666666777,-17.99538666666677,4.756960933333331
9.499559333333444,-18.407092333333438,3.7356744666666635
10.929360000000111,-18.818798000000104,2.714387999999996
10.929360000000111,-18.818798000000104,2.714387999999996
9.946372100000112,-19.077311000000105,1.6452287166666626
8.963384200000112,-19.335824000000102,0.5760694333333295
7.980396300000112,-19.5943370000001,-0.4930898500000039
7.980396300000112,-19.5943370000001,-0.4930898500000039
2.092041533333444,-19.591145666666765,-2.143105766666671
-3.796313233333223,-19.587954333333432,-3.793121683333337
-9.68466799999989,-19.5847630000001,-5.443137600000004
-9.68466799999989,-19.5847630000001,-5.443137600000004
-12.595334666666558,-17.48793433333343,-5.12079406666667
-15.506001333333224,-15.391105666666766,-4.7984505333333365
-18.416667999999888,-13.294277000000099,-4.4761070000000025
-18.416667999999888,-13.294277000000099,-4.4761070000000025
-15.866642999999888,-7.224005666666765,-3.588864400000002
-13.316617999999886,-1.1537343333334327,-2.7016218000000016
-10.766592999999887,4.9165369999999005,-1.8143792000000014
-10.766592999999887,4.9165369999999005,-1.8143792000000014
-11.625111999999888,8.998491333333234,-2.066509300000001
-12.483630999999889,13.08044566666657,-2.3186394000000012
-13.34214999999989,17.162399999999902,-2.5707695000000013
-14.296414333333223,14.219818333333237,-3.489927333333334
-15.250678666666554,11.277236666666568,-4.409085166666667
-16.204942999999886,8.3346549999999,-5.3282430000000005
-16.204942999999886,8.3346549999999,-5.3282430000000005
-16.204942999999886,8.3346549999999,-5.3282430000000005
-17.063461999999888,3.837802999999901,-4.070784033333333
-17.92198099999989,-0.659049000000099,-2.8133250666666663
-18.78049999999989,-5.155901000000099,-1.5558660999999996
-19.054970666666552,-7.718691666666765,-0.04627706666666639
-19.329441333333218,-10.28148233333343,1.463311966666667
-19.60391199999988,-12.844273000000099,2.9729010000000002
-19.603911999999877,-12.844273000000099,2.9729010000000002
-19.578379666666546,-15.094294333333432,3.4197139
-19.552847333333215,-17.344315666666763,3.8665268000000004
-19.527314999999884,-19.594337000000095,4.3133397
-19.527314999999888,-19.594337000000095,4.3133397
-14.749609666666553,-19.594337000000095,3.7165254
-9.97190433333322,-19.594337000000095,3.1197111
-5.194198999999884,-19.594337000000095,2.5228968
-5.194198999999884,-19.594337000000095,2.5228968
2.7654523333334495,-19.58157133333343,2.0984245666666665
10.725103666666783,-19.568805666666762,1.6739523333333333
18.684755000000113,-19.556040000000095,1.2494801000000002
18.684755000000113,-19.556040000000095,1.2494801000000002
16.83048166666678,-19.568805666666762,2.264383533333334
14.976208333333446,-19.58157133333343,3.2792869666666675
13.121935000000112,-19.594337000000095,4.2941904000000015
9.563390100000111,-19.594337000000095,3.8058877666666677
6.004845200000111,-19.594337000000095,3.3175851333333335
2.446300300000111,-19.594337000000095,2.8292824999999997
2.4463003000001113,-19.594337000000095,2.8292824999999997
2.4463003000001113,-19.594337000000095,2.8292824999999997
-4.5878097999998895,-19.594337000000095,2.340979966666666
-11.621919899999888,-19.594337000000095,1.852677433333333
-18.656029999999888,-19.594337000000095,1.3643748999999996
-17.781553999999886,-14.254924133333427,0.32713086666666635
-16.907077999999885,-8.91551126666676,-0.7101131666666669
-16.032601999999883,-3.576098400000094,-1.7473572000000004
-16.032601999999883,-3.576098400000094,-1.7473572000000004
-15.400680999999883,2.7494947333332393,-1.7760809000000004
-14.768759999999881,9.075087866666573,-1.8048046000000006
-14.136838999999881,15.400680999999906,-1.8335283000000009
-14.136838999999881,15.400680999999906,-1.8335283000000009
-13.629387333333213,14.155987999999907,-3.7548233666666673
-13.121935666666545,12.911294999999905,-5.676118433333333
-12.614483999999877,11.666601999999905,-7.597413499999999
-12.614483999999877,11.666601999999905,-7.597413499999999
-12.362353666666543,7.482519066666572,-6.8059166666666675
-12.11022333333321,3.2984361333332384,-6.014419833333335
-11.858092999999876,-0.8856468000000947,-5.222923000000002
-11.858092999999876,-0.8856468000000947,-5.222923000000002
-13.827260666666541,-4.728237200000095,-3.8409947000000018
-15.79642833333321,-8.570827600000095,-2.4590664000000015
-17.765595999999878,-12.413418000000092,-1.0771381000000015
-17.765595999999878,-12.413418000000092,-1.0771381000000015
-18.378367999999877,-14.807057666666758,0.2569173666666653
-18.991139999999874,-17.200697333333427,1.590972833333332
-19.60391199999987,-19.594337000000092,2.925028299999999
-19.60391199999987,-19.594337000000095,2.925028299999999
-16.2240923333332,-17.893257000000094,4.259083733333331
-12.844272666666534,-16.192177000000097,5.593139166666664
-9.464452999999866,-14.491097000000096,6.927194599999997
-1.7409743333332,-11.947455566666761,6.560169733333331
5.982504333333466,-9.403814133333428,6.193144866666664
13.705983000000131,-6.860172700000096,5.826119999999997
13.705983000000131,-6.860172700000096,5.826119999999997
14.321946333333464,-10.16020413333343,6.065483999999997
14.9379096666668,-13.460235566666766,6.304847999999996
15.553873000000136,-16.760267000000102,6.5442119999999955
15.553873000000138,-16.760267000000102,6.544211999999995
12.738952433333472,-17.704957000000103,5.414413866666661
9.924031866666805,-18.6496470000001,4.284615733333328
7.109111300000138,-19.5943370000001,3.1548175999999946
7.109111300000137,-19.5943370000001,3.1548175999999946
-0.004787133333196063,-19.5751880000001,0.8601146666666613
-7.118685566666529,-19.5560390000001,-1.4345882666666725
-14.232583999999862,-19.536890000000103,-3.729291200000006
-14.23258399999986,-19.536890000000103,-3.729291200000006
-14.462373333333195,-16.683671333333436,-3.225031066666672
-14.692162666666528,-13.830452666666767,-2.720770933333339
-14.921951999999862,-10.9772340000001,-2.2165108000000053
-14.921951999999862,-10.9772340000001,-2.2165108000000053
-13.59427966666653,-3.2920533333334334,-2.4303426000000052
-12.266607333333198,4.393127333333233,-2.6441744000000056
-10.938934999999866,12.078307999999899,-2.8580062000000055
-11.717665999999866,12.129372333333231,-3.9686552333333385
-12.496396999999867,12.180436666666566,-5.079304266666672
-13.275127999999867,12.2315009999999,-6.189953300000006
-13.275127999999867,12.2315009999999,-6.189953300000006
-13.275127999999867,12.2315009999999,-6.189953300000006
-14.018752166666532,8.056992633333232,-4.750577700000007
-14.762376333333199,3.8824842666665664,-3.3112021000000076
-15.506000499999864,-0.29202410000010026,-1.8718265000000078
-16.390051666666533,-4.8910044000001,-0.6398997666666745
-17.2741028333332,-9.4899847000001,0.5920269666666588
-18.158153999999865,-14.088965000000101,1.8239536999999924
-18.158153999999865,-14.088965000000101,1.8239536999999924
-18.640073333333202,-15.9240890000001,0.7835181666666591
-19.12199266666654,-17.7592130000001,-0.2569173666666742
-19.603911999999877,-19.594337000000095,-1.2973529000000072
-19.603911999999877,-19.594337000000095,-1.2973529000000072
-16.919843666666544,-19.319866666666766,-2.139914266666674
-14.23577533333321,-19.045396333333432,-2.9824756333333418
-11.551706999999878,-18.770926000000102,-3.825037000000009
-11.551706999999878,-18.770926000000102,-3.825037000000009
-6.5665526333332105,-16.4762230000001,-0.4579831666666753
-1.5813982666665443,-14.1815200000001,2.909070666666658
3.403756100000123,-11.886817000000102,6.276124499999992
3.403756100000123,-11.886817000000102,6.276124499999992
6.885704733333456,-13.75066466666677,7.374007333333324
10.36765336666679,-15.614512333333437,8.471890166666656
13.849602000000123,-17.478360000000105,9.569772999999989
13.849602000000123,-17.478360000000105,9.569772999999989
13.907049333333456,-17.950705000000106,8.609125466666656
13.96449666666679,-18.423050000000107,7.648477933333325
14.021944000000124,-18.895395000000104,6.687830399999991
14.021944000000124,-18.895395000000104,6.687830399999991
6.09420766666679,-19.128375666666773,3.1675836666666584
-1.833528666666543,-19.36135633333344,-0.3526630666666752
-9.761264999999876,-19.594337000000106,-3.872909800000008
-12.193203333333209,-17.334741000000108,-4.983558866666675
-14.625141666666542,-15.075145000000111,-6.094207933333343
-17.057079999999875,-12.815549000000113,-7.20485700000001
-17.057079999999875,-12.815549000000113,-7.20485700000001
-17.057079999999875,-12.815549000000113,-7.20485700000001
-16.75388499999988,-4.30376466666678,-7.51124300000001
-16.45068999999988,4.208019666666554,-7.81762900000001
-16.147494999999882,12.719803999999888,-8.124015000000009
-15.927280666666547,12.177245666666556,-9.017640666666678
-15.707066333333211,11.634687333333224,-9.911266333333344
-15.486851999999876,11.092128999999892,-10.804892000000011
-15.486851999999876,11.092128999999892,-10.804892000000011
-15.860259666666542,7.5208177133332255,-9.620837800000011
-16.233667333333205,3.949506426666558,-8.43678360000001
-16.60707499999987,0.3781951399998918,-7.2527294000000095
-16.60707499999987,0.3781951399998918,-7.2527294000000095
-17.606020666666538,-3.205881906666775,-6.959109600000009
-18.604966333333206,-6.789958953333442,-6.66548980000001
-19.60391199999987,-10.374036000000109,-6.371870000000011
-19.60391199999987,-10.374036000000109,-6.371870000000011
-19.60391199999987,-13.447469666666777,-7.22400600000001
-19.60391199999987,-16.52090333333344,-8.07614200000001
-19.60391199999987,-19.594337000000106,-8.928278000000008
-19.60391199999987,-19.594337000000106,-8.928278000000008
-17.325166666666536,-19.211354666666775,-5.663352766666674
-15.046421333333202,-18.828372333333444,-2.3984275333333405
-12.767675999999868,-18.445390000000113,0.8664976999999929
-4.5175966666665355,-16.157070333333447,2.6569405666666595
3.732482666666798,-13.868750666666779,4.447383433333326
11.982562000000131,-11.580431000000113,6.237826299999994
11.982562000000131,-11.580431000000113,6.237826299999992
12.355970000000132,-13.891091666666776,6.888896199999993
12.729378000000132,-16.20175233333344,7.539966099999994
13.102786000000131,-18.512413000000105,8.191035999999995
13.102786000000131,-18.512413000000105,8.191035999999995
12.349587000000133,-18.41666733333344,6.968683899999996
11.596388000000132,-18.320921666666777,5.7463317999999965
10.843189000000132,-18.225176000000115,4.523979699999997
10.843189000000132,-18.225176000000115,4.523979699999997
5.360157666666798,-18.68156300000011,2.6026845999999977
-0.12287366666653494,-19.137950000000107,0.6813894999999975
-5.6059049999998685,-19.594337000000106,-1.2399056000000026
-5.6059049999998685,-19.594337000000106,-1.2399056000000026
-10.271907333333202,-19.25922733333344,-2.3633207333333357
-14.937909666666535,-18.924117666666774,-3.486735866666669
-19.60391199999987,-18.58900800000011,-4.610151000000003
-19.60391199999987,-18.589008000000113,-4.610151000000003
-19.252844666666537,-9.304876000000114,-5.27079566666667
-18.901777333333204,-0.020744000000114227,-5.931440333333337
-18.55070999999987,9.263387999999885,-6.592085000000004
-16.56558466666654,12.668739666666552,-8.730403333333337
-14.580459333333204,16.074091333333218,-10.868721666666668
-12.595333999999871,19.479442999999883,-13.007040000000003
-12.595333999999871,19.47944299999988,-13.007040000000003
-12.595333999999871,19.47944299999988,-13.007040000000003
-14.874079333333205,12.470864833333215,-12.649589833333337
-17.152824666666536,5.462286666666547,-12.292139666666671
-19.43156999999987,-1.5462915000001203,-11.934689500000005
-19.4571023333332,-2.861197666666787,-11.771922000000005
-19.48263466666653,-4.176103833333454,-11.609154500000008
-19.50816699999986,-5.491010000000121,-11.446387000000009
-19.508166999999858,-5.491010000000121,-11.446387000000009
-19.540081999999856,-10.19211900000012,-11.609154500000008
-19.571996999999854,-14.89322800000012,-11.771922000000005
-19.603911999999852,-19.59433700000012,-11.934689500000005
-19.60391199999985,-19.59433700000012,-11.934689500000005
-18.451772999999854,-19.49859133333345,-7.967629986666672
-17.29963399999986,-19.40284566666678,-4.000570473333339
-16.14749499999986,-19.307100000000116,-0.03351096000000631
-16.147494999999864,-19.307100000000112,-0.03351096000000631
-8.618699333333195,-16.147495333333445,3.2920530266666597
-1.089903666666526,-12.987890666666779,6.6176170133333265
6.438892000000142,-9.828286000000112,9.943180999999994
6.438892000000142,-9.828286000000112,9.943180999999994
10.824040333333473,-11.851710000000113,10.70595433333333
15.209188666666806,-13.875134000000115,11.46872766666666
19.59433700000014,-15.898558000000115,12.231500999999994
19.59433700000014,-15.898558000000115,12.231500999999994
17.146441333333474,-17.13048433333345,8.918703099999995
14.698545666666808,-18.362410666666783,5.605905199999995
12.25065000000014,-19.594337000000117,2.293107299999995
12.25065000000014,-19.59433700000012,2.293107299999995
5.7973962333334725,-19.59433700000012,-1.418630800000005
-0.6558575333331943,-19.59433700000012,-5.130368900000005
-7.109111299999861,-19.59433700000012,-8.842107000000004
-10.613400533333193,-18.984756666666787,-8.382528000000006
-14.117689766666528,-18.375176333333457,-7.922949000000005
-17.62197899999986,-17.765596000000127,-7.463370000000005
-17.621978999999865,-17.765596000000127,-7.463370000000005
-17.621978999999865,-17.765596000000127,-7.463370000000005
-16.935801999999864,-10.552760733333459,-6.617617000000005
-16.249624999999863,-3.339925466666793,-5.771864000000005
-15.56344799999986,3.872909799999874,-4.926111000000006
-13.667684999999862,7.756989533333208,-6.151654666666673
-11.771921999999861,11.641069266666541,-7.3771983333333395
-9.876158999999861,15.525148999999873,-8.602742000000006
-9.876158999999861,15.525148999999873,-8.602742000000006
-10.961275999999861,11.30595966666654,-8.15592943333334
-12.04639299999986,7.086770333333209,-7.7091168666666725
-13.131509999999858,2.867580999999875,-7.2623043000000065
-13.131509999999858,2.867580999999875,-7.2623043000000065
-13.495342999999858,1.3611834333332087,-6.410168333333339
-13.859175999999858,-0.1452141333334581,-5.558032366666673
-14.223008999999857,-1.6516117000001245,-4.7058964000000065
-14.223008999999857,-1.6516117000001245,-4.7058964000000065
-16.016643333333192,-6.5059138000001235,-6.234634266666672
-17.810277666666526,-11.360215900000126,-7.7633721333333385
-19.60391199999986,-16.214518000000126,-9.292110000000006
-19.60391199999986,-16.214518000000126,-9.292110000000006
-19.390080666666528,-17.341124333333457,-10.654889333333339
-19.176249333333196,-18.467730666666792,-12.017668666666673
-18.962417999999865,-19.594337000000124,-13.380448000000007
-18.962417999999868,-19.594337000000124,-13.380448000000007
-13.153850966666534,-18.304963000000125,-7.779330200000007
-7.345283933333202,-17.015589000000123,-2.178212400000007
-1.5367168999998693,-15.726215000000124,3.4229053999999923
5.152708733333464,-14.92514366666679,5.372924266666661
11.842134366666798,-14.124072333333453,7.322943133333328
18.53156000000013,-13.323001000000119,9.272961999999994
18.53156000000013,-13.323001000000119,9.272961999999994
17.631551666666798,-15.413446333333452,8.644232533333328
16.731543333333466,-17.503891666666785,8.01550306666666
15.831535000000136,-19.59433700000012,7.3867735999999935
15.831535000000136,-19.594337000000124,7.3867735999999935
12.055967000000132,-19.59114566666679,4.00376216666666
8.28039900000013,-19.587954333333457,0.6207507333333266
4.50483100000013,-19.584763000000123,-2.7622607000000063
4.50483100000013,-19.584763000000123,-2.7622607000000063
-3.2633293333332034,-19.587954333333457,-4.651640800000007
-11.031489666666536,-19.59114566666679,-6.541020900000006
-18.79964999999987,-19.594337000000124,-8.430401000000005
-18.79964999999987,-19.594337000000124,-8.430401000000005
-18.59539266666653,-17.19112266666679,-6.758044266666672
-18.391135333333196,-14.787908333333457,-5.0856875333333385
-18.18687799999986,-12.384694000000124,-3.4133308000000055
-18.186877999999858,-12.384694000000124,-3.4133308000000055
-16.862396999999856,-3.643120333333458,-3.856952033333338
-15.537915999999855,5.098453333333208,-4.300573266666671
-14.213434999999855,13.840026999999873,-4.744194500000003
-14.213434999999853,13.840026999999873,-4.744194500000003
-13.565556333333186,13.12512666666654,-5.395264666666672
-12.91767766666652,12.410226333333208,-6.04633483333334
-12.269798999999855,11.695325999999875,-6.697405000000008
-13.284702333333188,8.191036733333208,-7.051663800000007
-14.299605666666523,4.686747466666541,-7.4059226000000065
-15.314508999999857,1.182458199999875,-7.760181400000005
-15.314508999999857,1.182458199999875,-7.760181400000005
-15.314508999999857,1.182458199999875,-7.760181400000005
-16.351752666666524,-2.532471200000125,-7.638903600000005
-17.388996333333186,-6.247400600000124,-7.517625800000005
-18.42623999999985,-9.962330000000124,-7.396348000000004
-18.818797333333183,-13.172999000000125,-8.350612666666672
-19.211354666666516,-16.383668000000124,-9.304877333333339
-19.60391199999985,-19.594337000000127,-10.259142000000006
-19.60391199999985,-19.594337000000127,-10.259142000000006
-18.094323333333183,-19.463484666666798,-6.381444866666672
-16.584734666666513,-19.332632333333464,-2.5037477333333378
-15.075145999999846,-19.20178000000013,1.3739493999999957
-15.075145999999846,-19.20178000000013,1.3739493999999957
-5.382499333333179,-17.1975056666668,5.934631599999996
4.310147333333487,-15.193231333333467,10.495313799999996
14.002794000000153,-13.188957000000135,15.055995999999995
14.002794000000153,-13.188957000000135,15.055995999999995
14.216626000000153,-15.100677333333467,12.288948099999997
14.43045800000015,-17.0123976666668,9.521900199999997
14.644290000000149,-18.92411800000013,6.754852299999999
14.644290000000149,-18.92411800000013,6.754852299999999
10.172970366666817,-19.147524333333468,4.188870133333332
5.7016507333334845,-19.3709306666668,1.6228879666666645
1.2303311000001518,-19.594337000000134,-0.9430942000000023
-5.264412266666515,-19.58157133333347,-3.5218424666666692
-11.759155633333181,-19.568805666666805,-6.100590733333335
-18.253898999999848,-19.556040000000138,-8.679339000000002
-18.253898999999848,-19.556040000000138,-8.679339000000004
-17.625169999999844,-15.79642900000014,-7.377198666666669
-16.996440999999844,-12.036818000000144,-6.0750583333333354
-16.36771199999984,-8.277207000000145,-4.772918000000002
-16.36771199999984,-8.277207000000145,-4.7729180000000015
-13.715558333333172,-1.5909723333334782,-3.9463144333333346
-11.063404666666505,5.095262333333189,-3.1197108666666673
-8.411250999999838,11.781496999999854,-2.2931073000000004
-8.411250999999838,11.781496999999854,-2.293107300000001
-9.745306666666506,11.50383466666652,-3.5218425333333343
-11.079362333333172,11.226172333333187,-4.750577766666667
-12.413417999999838,10.948509999999851,-5.979313
-12.413417999999838,10.948509999999851,-5.979313
-13.000657666666505,8.459124199999854,-5.8005878666666675
-13.587897333333173,5.969738399999852,-5.621862733333335
-14.175136999999838,3.4803525999998524,-5.443137600000003
-14.175136999999838,3.4803525999998524,-5.443137600000003
-15.132592666666504,0.604793066666519,-5.206965066666669
-16.09004833333317,-2.270766466666814,-4.970792533333335
-17.047503999999837,-5.146326000000148,-4.734620000000002
-17.047503999999833,-5.146326000000147,-4.734620000000002
-17.899639999999835,-9.553815000000148,-5.379307000000002
-18.751775999999836,-13.961304000000146,-6.023994000000002
-19.603911999999838,-18.368793000000142,-6.668681000000002
-19.60391199999984,-18.368793000000142,-6.668681000000002
-19.010289333333173,-18.77730766666681,-5.612288000000002
-18.416666666666508,-19.185822333333476,-4.555895000000002
-17.823043999999843,-19.59433700000014,-3.499502000000002
-11.130426333333176,-19.35816466666681,-1.7026761000000021
-4.437808666666509,-19.121992333333477,0.09414979999999806
2.2548090000001575,-18.88582000000014,1.8909756999999978
2.2548090000001575,-18.88582000000014,1.8909756999999978
7.22719733333349,-17.74644766666681,2.4909814666666645
12.199585666666822,-16.60707533333348,3.0909872333333315
17.171974000000155,-15.467703000000148,3.6909929999999984
17.171974000000155,-15.467703000000148,3.6909929999999984
15.99430333333349,-16.78899200000015,2.685664166666665
14.816632666666822,-18.110281000000146,1.6803353333333313
13.638962000000156,-19.431570000000146,0.6750064999999981
13.638962000000156,-19.431570000000143,0.6750064999999981
10.632549666666824,-19.46348500000014,-1.1345854666666686
7.626137333333491,-19.49540000000014,-2.9441774333333353
4.619725000000158,-19.527315000000137,-4.753769400000002
4.619725000000158,-19.527315000000133,-4.753769400000003
-3.2760959999998414,-19.549655666666798,-5.20696526666667
-11.171916999999842,-19.571996333333463,-5.660161133333337
-19.067737999999842,-19.594337000000127,-6.113357000000004
-19.067737999999842,-19.594337000000127,-6.113357000000004
-18.885821333333176,-16.90707733333346,-5.015474000000005
-18.70390466666651,-14.219817666666794,-3.917591000000004
-18.521987999999844,-11.532558000000128,-2.8197080000000043
-18.521987999999844,-11.532558000000128,-2.8197080000000043
-18.745394333333177,-2.1399146666667934,-5.111219500000003
-18.968800666666514,7.252728666666541,-7.402731000000003
-19.192206999999847,16.645371999999874,-9.694242500000003
-19.067737333333184,15.17408166666654,-11.079362333333336
-18.943267666666518,13.702791333333208,-12.46448216666667
-18.818797999999855,12.231500999999874,-13.849602000000004
-18.818797999999855,12.231500999999874,-13.849602000000004
-18.818797999999855,12.231500999999874,-13.849602000000004
-18.79326633333319,6.241017666666541,-11.36021616666667
-18.767734666666524,0.2505343333332082,-8.870830333333336
-18.742202999999858,-5.7399490000001245,-6.3814445000000015
-19.02943933333319,-10.358078333333458,-6.751660866666668
-19.316675666666523,-14.97620766666679,-7.121877233333335
-19.603911999999852,-19.59433700000012,-7.492093600000001
-19.60391199999985,-19.594337000000124,-7.492093600000001
-18.553901999999848,-19.594337000000124,-4.661215200000002
-17.503891999999848,-19.594337000000124,-1.8303368000000022
-16.453881999999847,-19.594337000000124,1.0005415999999976
-16.453881999999847,-19.594337000000124,1.0005415999999976
-9.397430999999848,-17.800703000000127,2.6920472333333305
-2.3409799999998477,-16.00706900000013,4.383552866666664
4.715471000000153,-14.213435000000132,6.075058499999997
4.715471000000153,-14.213435000000132,6.075058499999997
8.309122666666818,-12.898528666666797,6.815490999999997
11.902774333333484,-11.58362233333346,7.555923499999996
15.49642600000015,-10.268716000000127,8.296355999999996
15.49642600000015,-10.268716000000127,8.296355999999994
14.398543000000151,-13.377256333333463,7.629328433333328
13.30066000000015,-16.485796666666797,6.962300866666663
12.202777000000149,-19.594337000000127,6.295273299999997
12.202777000000149,-19.594337000000127,6.295273299999998
7.102727866666815,-19.594337000000127,4.153763346666664
2.002678733333483,-19.594337000000127,2.012253393333331
-3.09737039999985,-19.594337000000127,-0.12925656000000232
-8.599550933333184,-19.508166333333463,-2.111190540000002
-14.101731466666516,-19.4219956666668,-4.093124520000003
-19.60391199999985,-19.33582500000013,-6.075058500000002
-19.60391199999985,-19.33582500000013,-6.075058500000002
-17.465593666666514,-13.530449766666798,-5.768672666666668
-15.327275333333178,-7.725074533333465,-5.4622868333333345
-13.188956999999846,-1.9196993000001317,-5.155901000000001
-13.188956999999846,-1.9196993000001317,-5.155901000000001
-12.158095999999844,4.252700466666535,-6.004845333333335
-11.127234999999843,10.425100233333202,-6.853789666666668
-10.096373999999841,16.59749999999987,-7.702734
-10.09637399999984,16.59749999999987,-7.702734
-11.698516999999839,13.95492149999987,-8.953809666666666
-13.300659999999837,11.31234299999987,-10.204885333333335
-14.902802999999835,8.66976449999987,-11.455961000000002
-14.902802999999835,8.669764499999872,-11.455961000000002
-14.085773666666503,5.733565959999872,-9.738923333333334
-13.268744333333169,2.797367419999872,-8.021885666666668
-12.451714999999837,-0.13883112000012865,-6.304848
-12.451714999999837,-0.13883112000012865,-6.304848
-14.647480999999836,-4.549511746666795,-6.071867
-16.843246999999838,-8.960192373333461,-5.838886
-19.039012999999837,-13.37087300000013,-5.605905
-19.03901299999984,-13.370873000000126,-5.605905
-19.22731266666651,-15.445361000000124,-7.102728
-19.415612333333176,-17.51984900000012,-8.599551
-19.60391199999984,-19.59433700000012,-10.096373999999999
-16.14111266666651,-19.329441333333452,-7.846352333333332
-12.678313333333174,-19.06454566666679,-5.596330666666666
-9.21551399999984,-18.799650000000124,-3.3463089999999993
-9.21551399999984,-18.799650000000124,-3.3463089999999993
-1.9579973333331733,-15.949622333333457,-0.22819379999999923
5.299519333333493,-13.099594666666789,2.8899214000000004
12.55703600000016,-10.249567000000122,6.0080366000000005
12.557036000000162,-10.249567000000122,6.0080366000000005
12.22511800000016,-13.150659000000124,4.788875966666667
11.893200000000158,-16.051751000000124,3.5697153333333334
11.561282000000157,-18.952843000000126,2.3505547000000004
11.561282000000157,-18.952843000000126,2.3505547000000004
9.608071533333492,-18.984758000000124,2.516513733333334
7.654861066666825,-19.01667300000012,2.6824727666666672
5.70165060000016,-19.04858800000012,2.8484318000000006
5.70165060000016,-19.04858800000012,2.8484318000000006
-0.5441542666665073,-19.230504333333453,0.588835533333334
-6.789959133333174,-19.412420666666787,-1.6707607333333325
-13.035763999999842,-19.59433700000012,-3.9303569999999994
-13.035763999999842,-19.59433700000012,-3.9303569999999994
-14.928335333333175,-18.397517333333454,-3.719716733333333
-16.820906666666506,-17.200697666666787,-3.5090764666666665
-18.71347799999984,-16.003878000000125,-3.2984362
-18.71347799999984,-16.003878000000125,-3.2984362
-18.279431666666508,-7.370815833333457,-3.515459566666666
-17.845385333333173,1.26224633333321,-3.732482933333332
-17.411338999999842,9.895308499999876,-3.949506299999998
-15.253870999999842,12.43895033333321,-5.392073199999999
-13.096402999999844,14.982592166666544,-6.834640099999999
-10.938934999999844,17.526233999999878,-8.277206999999999
-10.938934999999844,17.526233999999878,-8.277207
-10.938934999999844,17.526233999999878,-8.277207
-12.54746133333318,12.001712266666544,-8.347420666666666
-14.155987666666514,6.477190533333211,-8.41763433333333
-15.76451399999985,0.9526687999998783,-8.487847999999996
-16.76026799999985,-0.9367111333334551,-7.961247099999997
-17.756021999999845,-2.826091066666788,-7.434646199999997
-18.75177599999984,-4.715471000000121,-6.908045299999998
-18.75177599999984,-4.715471000000121,-6.908045299999998
-19.03582133333317,-9.308068333333454,-7.766564533333331
-19.319866666666506,-13.900665666666788,-8.625083766666664
-19.60391199999984,-18.49326300000012,-9.483602999999997
-19.60391199999984,-18.493263000000123,-9.483602999999995
-19.421995666666508,-18.783691333333454,-9.087853999999993
-19.240079333333174,-19.07411966666679,-8.692104999999993
-19.05816299999984,-19.364548000000124,-8.296355999999994
-19.05816299999984,-19.36454800000012,-8.296355999999994
