accx,accy,accz
1.0005416,7.137835000000001,2.7431116
1.0005416,7.137835000000001,2.7431116
1.0516059333333334,6.7484695000000015,2.768643733333333
1.1026702666666666,6.359103999999999,2.7941758666666665
1.1537346,5.969738499999998,2.819708
0.7867097599999999,5.797396333333332,2.7686436666666663
0.41968491999999985,5.625054166666665,2.717579333333333
0.05266007999999981,5.452711999999998,2.666515
0.05266007999999981,5.452711999999998,2.666515
0.0015957599999998119,4.699513333333331,2.5771525
-0.04946856000000019,3.9463146666666655,2.48779
-0.1005328800000002,3.1931159999999985,2.3984275
-0.1005328800000002,3.1931159999999985,2.3984275
-0.1005328800000002,3.1931159999999985,2.3984275
0.9111789799999997,2.0122535166666657,3.0111993333333325
1.92289084,0.8313910333333322,3.623971166666666
2.9346026999999997,-0.3494714500000011,4.236743
4.485681466666667,-1.830336800000001,4.453766333333333
6.036760233333333,-3.311202150000001,4.670789666666667
7.587839,-4.792067500000001,4.887813
7.587839,-4.792067500000001,4.887813
10.093182333333333,-4.638874500000001,3.9207824333333328
12.598525666666665,-4.485681500000001,2.9537518666666656
15.103868999999998,-4.332488500000002,1.9867212999999984
15.103868999999998,-4.332488500000003,1.9867212999999984
16.600691666666663,-5.299519200000002,1.8494859333333318
18.097514333333326,-6.266549900000002,1.712250566666665
19.594336999999992,-7.2335806000000025,1.5750151999999984
19.594336999999992,-7.2335806000000025,1.5750151999999984
19.594336999999992,-7.2335806000000025,1.5750151999999984
18.059216333333325,-7.705925733333337,1.5143763333333318
16.524095666666657,-8.17827086666667,1.453737466666665
14.988974999999991,-8.650616000000005,1.3930985999999983
13.830452999999991,-7.52081766666667,1.073946566666665
12.671930999999992,-6.391019333333337,0.7547945333333317
11.51340899999999,-5.2612210000000035,0.4356424999999984
11.51340899999999,-5.2612210000000035,0.4356424999999984
11.222980666666658,-5.072921333333338,0.8313909999999983
10.932552333333325,-4.884621666666672,1.2271394999999983
10.642123999999992,-4.6963220000000065,1.6228879999999986
10.64212399999999,-4.696322000000007,1.6228879999999986
10.64212399999999,-4.696322000000007,1.6228879999999986
10.504888666666657,-4.779301500000008,1.0484143733333318
10.367653333333323,-4.862281000000008,0.473940746666665
10.230417999999988,-4.945260500000009,-0.10053288000000167
10.061267333333321,-4.766535433333341,-0.272874963333335
9.892116666666654,-4.587810366666674,-0.4452170466666683
9.722965999999987,-4.409085300000006,-0.6175591300000016
9.722965999999987,-4.409085300000006,-0.6175591300000015
9.722965999999987,-4.409085300000006,-0.6175591300000015
9.815519999999987,-3.5026935000000066,-0.18351238666666825
9.908073999999987,-2.596301700000007,0.25053435666666507
10.000627999999987,-1.689909900000007,0.6845810999999983
10.000627999999987,-1.689909900000007,0.6845810999999983
10.019777333333321,-1.0164991566666741,0.6973471666666651
10.038926666666654,-0.3430884133333409,0.7101132333333317
10.058075999999987,0.3303223299999923,0.7228792999999983
10.058075999999987,0.3303223299999923,0.7228792999999983
9.971904666666655,-0.20904458000000772,0.2792579999999983
9.885733333333322,-0.7484114900000077,-0.16436330000000168
9.79956199999999,-1.2877784000000079,-0.6079846000000017
9.927222999999989,-1.4282052666666747,-0.282449543333335
10.054883999999987,-1.568632133333341,0.04308551333333164
10.182544999999985,-1.7090590000000077,0.36862056999999826
10.182544999999985,-1.7090590000000077,0.36862056999999826
10.182544999999985,-1.7090590000000077,0.36862056999999826
10.086799499999985,-2.009061900000008,0.37181209333333154
9.991053999999986,-2.3090648000000082,0.3750036166666648
9.895308499999986,-2.609067700000008,0.3781951399999981
9.895308499999986,-2.609067700000008,0.3781951399999981
9.885733999999987,-2.363320633333341,0.21542761199999808
9.876159499999988,-2.1175735666666746,0.05266008399999811
9.866584999999988,-1.871826500000008,-0.11010744400000189
9.818711999999989,-1.680335300000008,0.00797880399999811
9.770838999999988,-1.4888441000000079,0.1260650519999981
9.722965999999987,-1.297352900000008,0.2441512999999981
9.722965999999987,-1.297352900000008,0.2441512999999981
9.722965999999987,-1.297352900000008,0.2441512999999981
9.79317933333332,-1.3707579000000079,0.29521561999999807
9.863392666666654,-1.4441629000000076,0.3462799399999981
9.933605999999985,-1.5175679000000075,0.3973442599999982
9.933605999999985,-1.5175679000000075,0.3973442599999982
9.975095999999986,-1.4313968333333411,0.2824495333333315
10.016585999999988,-1.3452257666666745,0.1675548066666648
10.058075999999987,-1.259054700000008,0.052660079999998145
10.032543999999987,-1.2207564666666748,0.1611717666666648
10.007011999999987,-1.1824582333333415,0.2696834533333315
9.981479999999985,-1.1441600000000083,0.3781951399999981
9.981479999999985,-1.1441600000000083,0.3781951399999981
9.981479999999985,-1.1441600000000083,0.3781951399999981
9.933606999999988,-1.3356512333333415,0.2888325746666648
9.885733999999987,-1.5271424666666746,0.19947000933333145
9.837860999999988,-1.7186337000000078,0.1101074439999981
9.837860999999986,-1.7186337000000078,0.1101074439999981
9.88892533333332,-1.7122506333333412,0.1292565659999981
9.939989666666653,-1.7058675666666747,0.14840568799999806
9.991053999999988,-1.6994845000000083,0.16755480999999808
9.99105399999999,-1.6994845000000083,0.16755480999999808
10.01658599999999,-1.6452286333333415,0.15478872666666474
10.04211799999999,-1.5909727666666746,0.14202264333333142
10.067649999999992,-1.5367169000000078,0.1292565599999981
10.067649999999992,-1.5367169000000078,0.1292565599999981
10.026160333333323,-1.4537374000000078,0.15478871999999813
9.984670666666654,-1.370757900000008,0.18032087999999816
9.943180999999987,-1.2877784000000083,0.20585303999999818
9.943180999999985,-1.2877784000000083,0.20585303999999818
9.93360633333332,-1.3037360000000082,0.17393784133333154
9.924031666666654,-1.3196936000000081,0.1420226426666649
9.914456999999988,-1.335651200000008,0.11010744399999822
9.91445699999999,-1.335651200000008,0.11010744399999822
9.936797999999989,-1.3484172666666747,0.1484056859999982
9.959138999999988,-1.3611833333333412,0.18670392799999816
9.981479999999989,-1.3739494000000079,0.22500216999999814
9.981479999999989,-1.3739494000000079,0.22500216999999814
9.981479999999989,-1.4282052333333413,0.21542760666666483
9.981479999999989,-1.4824610666666747,0.20585304333333151
9.981479999999989,-1.536716900000008,0.19627847999999817
9.981479999999989,-1.536716900000008,0.19627847999999817
9.984671333333322,-1.568632100000008,0.1611717633333315
9.987862666666656,-1.6005473000000079,0.12606504666666482
9.99105399999999,-1.632462500000008,0.09095832999999813
9.99105399999999,-1.632462500000008,0.09095832999999813
9.981479333333324,-1.469695000000008,0.12606504666666482
9.971904666666658,-1.3069275000000082,0.1611717633333315
9.962329999999993,-1.1441600000000083,0.19627847999999817
9.962329999999993,-1.1441600000000083,0.19627847999999817
9.959138666666659,-1.1696921333333412,0.16755480133333148
9.955947333333325,-1.1952242666666744,0.13883112266666478
9.952755999999992,-1.2207564000000077,0.1101074439999981
9.952755999999992,-1.2207564000000077,0.1101074439999981
9.939989666666657,-1.300544400000008,0.13244808599999808
9.927223333333323,-1.3803324000000081,0.15478872799999807
9.91445699999999,-1.460120400000008,0.17712936999999807
9.91445699999999,-1.460120400000008,0.17712936999999807
9.911265333333324,-1.440971300000008,0.20585305333333137
9.908073666666658,-1.421822200000008,0.23457673666666468
9.904881999999992,-1.402673100000008,0.263300419999998
9.904881999999992,-1.4026731000000083,0.263300419999998
9.904881999999992,-1.4026731000000083,0.263300419999998
9.92722299999999,-1.4569289666666752,0.19627849466666467
9.94956399999999,-1.511184833333342,0.12925656933333132
9.97190499999999,-1.5654407000000088,0.06223464399999801
9.98467099999999,-1.527142433333342,0.06223464399999801
9.997436999999989,-1.4888441666666754,0.06223464399999801
10.010202999999988,-1.4505459000000087,0.06223464399999801
10.010202999999986,-1.4505459000000087,0.06223464399999801
10.01339433333332,-1.3420342000000087,0.151597205999998
10.016585666666654,-1.233522500000009,0.240959767999998
10.019776999999987,-1.125010800000009,0.33032232999999794
10.019776999999989,-1.125010800000009,0.33032232999999794
10.022968666666655,-1.2558631666666755,0.23776824666666455
10.026160333333321,-1.3867155333333419,0.14521416333333123
10.029351999999987,-1.5175679000000084,0.05266007999999789
10.029351999999985,-1.5175679000000084,0.05266007999999789
10.03892666666665,-1.5590576666666751,0.014361838666664553
10.048501333333316,-1.600547433333342,-0.02393640266666878
10.058075999999982,-1.6420372000000087,-0.062234644000002115
10.05807599999998,-1.6420372000000087,-0.062234644000002115
10.038926666666647,-1.5494831000000089,-0.004787281333335444
10.019777333333314,-1.4569290000000092,0.05266008133333122
10.00062799999998,-1.3643749000000094,0.11010744399999789
10.00062799999998,-1.3643749000000096,0.11010744399999789
10.00062799999998,-1.3228851333333431,0.13244808599999788
10.00062799999998,-1.2813953666666762,0.1547887279999979
10.00062799999998,-1.2399056000000095,0.17712936999999793
10.00062799999998,-1.2399056000000093,0.17712936999999793
10.00062799999998,-1.2399056000000093,0.17712936999999793
9.96552149999998,-1.2718208000000093,0.13244808766666458
9.93041499999998,-1.3037360000000093,0.08776680533333125
9.89530849999998,-1.3356512000000091,0.043085522999997926
9.882542333333314,-1.3484172666666758,0.03351096233333125
9.869776166666648,-1.3611833333333425,0.023936401666664584
9.857009999999983,-1.373949400000009,0.014361840999997919
9.857009999999983,-1.373949400000009,0.014361840999997919
9.908074333333317,-1.3324596333333425,0.10372440733333126
9.959138666666652,-1.290969866666676,0.19308697366666458
10.010202999999985,-1.2494801000000095,0.2824495399999979
10.010202999999986,-1.2494801000000095,0.28244953999999795
10.010202999999986,-1.2494801000000095,0.28244953999999795
9.991053999999988,-1.332459633333343,0.25372585333333125
9.971904999999989,-1.4154391666666761,0.2250021666666646
9.95275599999999,-1.4984187000000093,0.19627847999999792
9.943181333333323,-1.555866066666676,0.16436327999999792
9.933606666666655,-1.6133134333333425,0.13244807999999794
9.92403199999999,-1.6707608000000091,0.10053287999999794
9.924031999999992,-1.6707608000000091,0.10053287999999794
9.924031999999992,-1.664377766666676,0.11649048333333129
9.924031999999992,-1.6579947333333427,0.1324480866666646
9.924031999999992,-1.6516117000000092,0.14840568999999795
9.924031999999992,-1.6516117000000092,0.14840568999999793
9.924031999999992,-1.6516117000000092,0.14840568999999793
9.946372666666658,-1.5909728000000092,0.21861912666666458
9.968713333333325,-1.5303339000000091,0.2888325633333312
9.991053999999993,-1.4696950000000089,0.3590459999999979
10.000628333333326,-1.5239508333333422,0.3526629666666646
10.01020266666666,-1.5782066666666756,0.3462799333333313
10.019776999999992,-1.632462500000009,0.339896899999998
10.019776999999992,-1.632462500000009,0.339896899999998
10.007011333333326,-1.7409742000000092,0.2824495366666646
9.994245666666659,-1.8494859000000095,0.22500217333333125
9.981479999999992,-1.9579976000000097,0.16755480999999786
9.981479999999992,-1.9579976000000097,0.16755480999999786
9.981479999999992,-1.9579976000000097,0.16755480999999786
9.927223666666661,-1.9037417333333428,0.2281936899999979
9.872967333333328,-1.849485866666676,0.2888325699999979
9.818710999999995,-1.7952300000000092,0.34947144999999796
9.841051999999996,-1.8111876333333425,0.36223753333333125
9.863392999999995,-1.8271452666666759,0.3750036166666646
9.885733999999994,-1.843102900000009,0.38776969999999794
9.885733999999994,-1.843102900000009,0.38776969999999794
9.885733999999994,-1.8622520000000093,0.3462799399999979
9.885733999999994,-1.8814011000000093,0.3047901799999979
9.885733999999994,-1.9005502000000092,0.2633004199999979
9.885733999999994,-1.9005502000000092,0.2633004199999979
9.885733999999994,-1.9005502000000092,0.2633004199999979
9.898499999999993,-1.8367198000000091,0.2601088999999979
9.911265999999992,-1.7728894000000093,0.256917379999998
9.924031999999992,-1.7090590000000094,0.253725859999998
9.924031999999992,-1.7090590000000094,0.253725859999998
9.924031999999992,-1.6611862333333427,0.25053433999999797
9.924031999999992,-1.613313466666676,0.24734281999999794
9.924031999999992,-1.5654407000000095,0.24415129999999788
9.908074333333323,-1.4888442000000095,0.2984071399999979
9.892116666666656,-1.4122477000000095,0.3526629799999979
9.876158999999989,-1.3356512000000096,0.40691881999999796
9.876158999999987,-1.3356512000000096,0.40691881999999796
9.876158999999987,-1.3356512000000096,0.40691881999999796
9.879350666666653,-1.3452257666666763,0.4739407466666646
9.882542333333319,-1.3548003333333432,0.5409626733333313
9.885733999999985,-1.36437490000001,0.6079845999999979
9.885733999999985,-1.3643749000000103,0.6079845999999979
9.888925499999985,-1.5271424333333439,0.5473457166666647
9.892116999999985,-1.6899099666666775,0.48670683333333137
9.895308499999985,-1.852677500000011,0.42606794999999803
9.892116999999985,-1.9101248666666777,0.38776969999999805
9.888925499999985,-1.9675722333333443,0.3494714499999981
9.885733999999985,-2.025019600000011,0.3111731999999981
9.885733999999985,-2.025019600000011,0.3111731999999981
9.885733999999985,-2.025019600000011,0.3111731999999981
9.895308333333318,-1.9867213333333442,0.31755624333333143
9.904882666666651,-1.9484230666666775,0.32393928666666477
9.914456999999985,-1.9101248000000108,0.33032232999999805
9.914456999999985,-1.9101248000000108,0.33032232999999805
9.908074166666651,-1.8303368000000109,0.37500360999999804
9.901691333333318,-1.7505488000000107,0.41968488999999803
9.895308499999985,-1.6707608000000107,0.46436616999999797
9.895308499999985,-1.6707608000000107,0.46436616999999797
9.882542333333319,-1.6452286666666776,0.4962813666666646
9.869776166666654,-1.6196965333333442,0.5281965633333313
9.857009999999988,-1.594164400000011,0.560111759999998
9.857009999999988,-1.594164400000011,0.560111759999998
9.869776166666654,-1.6867184333333445,0.5090474466666647
9.882542333333319,-1.7792724666666782,0.45798313333333135
9.895308499999985,-1.8718265000000116,0.40691881999999807
9.895308499999985,-1.8718265000000116,0.40691881999999807
9.888925333333319,-1.926082333333345,0.39734425999999806
9.882542166666653,-1.9803381666666782,0.387769699999998
9.876158999999987,-2.0345940000000113,0.37819513999999793
9.876158999999987,-2.034594000000011,0.37819513999999793
9.876158999999987,-2.0377855666666775,0.40053578333333134
9.876158999999987,-2.040977133333344,0.4228764266666647
9.876158999999987,-2.044168700000011,0.44521706999999805
9.876158999999987,-2.044168700000011,0.44521706999999805
9.828286333333319,-2.005870466666677,0.4643661966666648
9.780413666666652,-1.9675722333333436,0.4835153233333315
9.732540999999983,-1.9292740000000101,0.5026644499999983
9.732540999999983,-1.9292740000000101,0.5026644499999983
9.700625666666651,-1.9292740000000101,0.5313881333333316
9.668710333333317,-1.9292740000000101,0.5601118166666649
9.636794999999985,-1.9292740000000101,0.5888354999999982
9.636794999999985,-1.9292740000000101,0.5888354999999982
9.652752666666652,-1.8782096666666768,0.5952185333333314
9.66871033333332,-1.8271453333333436,0.6016015666666648
9.684667999999988,-1.7760810000000102,0.6079845999999981
9.684667999999988,-1.7760810000000102,0.6079845999999981
9.828286333333319,-1.769697966666677,0.8664977333333314
9.971904666666651,-1.7633149333333435,1.1250108666666647
10.115522999999982,-1.7569319000000103,1.383523999999998
10.11552299999998,-1.7569319000000103,1.3835239999999984
10.17616199999998,-2.0441687000000104,1.4537374666666654
10.23680099999998,-2.33140550000001,1.5239509333333323
10.297439999999979,-2.61864230000001,1.5941643999999993
10.297439999999979,-2.61864230000001,1.5941643999999993
10.01658633333331,-2.7335370333333433,1.409056199999999
9.735732666666642,-2.8484317666666765,1.223947999999999
9.454878999999975,-2.9633265000000097,1.0388397999999992
9.454878999999975,-2.9633265000000093,1.0388397999999992
9.592114333333308,-2.972901066666676,1.2047988333333326
9.729349666666643,-2.9824756333333426,1.370757866666666
9.866584999999978,-2.9920502000000098,1.5367168999999994
9.866584999999978,-2.9920502000000098,1.5367168999999994
10.128289333333308,-3.3239682666666766,1.7856554666666662
10.38999366666664,-3.6558863333333433,2.0345940333333328
10.651697999999973,-3.98780440000001,2.283532599999999
10.651697999999971,-3.98780440000001,2.2835325999999987
9.735731833333306,-4.795258933333343,1.8431028333333321
8.819765666666639,-5.602713466666676,1.4026730666666654
7.903799499999973,-6.4101680000000085,0.9622432999999987
7.903799499999974,-6.4101680000000085,0.9622432999999987
8.455932666666643,-7.105919333333342,0.333513843333332
9.008065833333312,-7.801670666666676,-0.2952156133333347
9.560198999999981,-8.49742200000001,-0.9239450700000013
9.560198999999981,-8.49742200000001,-0.9239450700000011
9.965521999999982,-8.388910333333342,-0.7164962700000013
10.370844999999983,-8.280398666666676,-0.5090474700000013
10.776167999999984,-8.171887000000007,-0.3015986700000013
10.776167999999984,-8.171887000000007,-0.3015986700000013
10.038926999999985,-8.108056766666676,-0.12606505666666795
9.301685999999984,-8.044226533333344,0.049468556666665386
8.564444999999985,-7.980396300000012,0.22500216999999875
8.564444999999985,-7.980396300000012,0.22500216999999875
8.395294333333318,-8.005928533333345,0.14202264599999873
8.226143666666651,-8.031460766666676,0.05904312199999873
8.056992999999984,-8.056993000000007,-0.023936402000001272
8.056992999999984,-8.056993000000007,-0.023936402000001272
8.056992999999984,-8.056993000000007,-0.023936402000001272
7.482519333333318,-7.1314520000000075,0.13883112199999872
6.908045666666652,-6.2059110000000075,0.30159864599999875
6.333571999999986,-5.280370000000008,0.46436616999999875
6.0846333333333185,-4.214402266666673,0.1420226299999987
5.835694666666651,-3.1484345333333406,-0.1803209100000013
5.586755999999983,-2.0824668000000077,-0.5026644500000014
5.586755999999983,-2.0824668000000077,-0.5026644500000014
7.335708999999984,-1.5973557666666742,-1.3069275333333346
9.084661999999984,-1.1122447333333407,-2.1111906166666676
10.833614999999982,-0.6271337000000073,-2.915453700000001
10.833614999999982,-0.6271337000000073,-2.915453700000001
10.833614999999982,-0.6271337000000073,-2.915453700000001
11.302768499999983,-0.5760693766666739,-2.503747600000001
11.771921999999982,-0.5250050533333406,-2.092041500000001
12.241075499999981,-0.4739407300000072,-1.6803354000000013
14.414500333333315,-2.70481325333334,-0.31117326666666795
16.587925166666647,-4.9356857766666735,1.0579888666666653
18.761349999999982,-7.166558300000006,2.4271509999999985
18.761349999999982,-7.166558300000008,2.4271509999999985
18.65602999999998,-10.635740866666675,3.939931566666665
18.550709999999977,-14.104923433333342,5.452712133333332
18.44538999999998,-17.57410600000001,6.9654926999999995
18.445389999999975,-17.57410600000001,6.965492700000001
18.445389999999975,-17.57410600000001,6.965492700000001
12.815548699999974,-18.202835666666676,5.803779333333334
7.185707399999976,-18.831565333333344,4.642065966666666
1.5558660999999756,-19.460295000000013,3.4803526000000002
-2.599493266666691,-18.046451333333348,3.0335398333333337
-6.754852633333357,-16.632607666666683,2.586727066666667
-10.910212000000024,-15.218764000000016,2.139914300000001
-10.910212000000024,-15.218764000000016,2.1399143000000014
-7.986779433333358,-16.632607666666683,2.934602766666668
-5.063346866666692,-18.046451333333348,3.729291233333335
-2.1399143000000254,-19.460295000000013,4.523979700000002
-2.139914300000025,-19.460295000000013,4.523979700000003
-2.139914300000025,-19.460295000000013,4.523979700000003
3.033539799999975,-19.504975666666677,3.748440366666669
8.206993899999974,-19.549656333333342,2.972901033333336
13.380447999999975,-19.594337000000007,2.1973617000000023
13.380447999999975,-19.594337000000007,2.1973617000000023
13.380447999999975,-19.594337000000007,2.1973617000000023
13.380447999999975,-19.594337000000007,2.1973617000000023
13.380447999999975,-19.594337000000007,2.1973617000000023
15.448552999999976,-15.544298166666673,-1.6037388666666643
17.516657999999975,-11.494259333333341,-5.404839433333332
19.58476299999997,-7.444220500000008,-9.205939999999998
19.58476299999997,-7.444220500000008,-9.205939999999998
17.94432199999997,0.6207509999999914,-11.909157333333333
16.303880999999972,8.685722499999992,-14.612374666666668
14.663439999999971,16.750693999999992,-17.315592000000002
14.663439999999971,16.750693999999992,-17.315592000000002
13.71874999999997,16.753884999999993,-13.594279666666667
12.77405999999997,16.757075999999994,-9.872967333333333
11.82936999999997,16.760266999999995,-6.151654999999998
11.829369999999974,16.760266999999995,-6.151654999999998
14.417692333333306,6.53463666666666,-1.7345911999999981
17.00601466666664,-3.690993666666674,2.682472600000002
19.59433699999997,-13.916624000000008,7.099536400000002
19.59433699999997,-13.916624000000008,7.0995364000000025
19.59433699999997,-13.916624000000008,7.0995364000000025
18.14857866666664,-15.809195000000008,9.027214600000002
16.70282033333331,-17.701766000000006,10.954892800000003
15.257061999999982,-19.594337000000007,12.882571000000004
6.882512999999982,-17.42410366666667,10.022969000000003
-1.4920360000000183,-15.253870333333339,7.163367000000004
-9.866585000000018,-13.083637000000005,4.303765000000003
-9.86658500000002,-13.083637000000005,4.303765000000003
-13.112360666666687,-11.545324166666674,4.115465300000002
-16.358136333333352,-10.007011333333342,3.9271656000000017
-19.603912000000022,-8.468698500000007,3.7388659000000017
-19.60391200000002,-8.468698500000007,3.7388659000000017
-15.518766333333353,-11.427237666666672,3.1771583000000017
-11.433620666666686,-14.385776833333338,2.6154507000000016
-7.348475000000019,-17.344316000000003,2.0537431000000015
-7.348475000000019,-17.344316000000003,2.0537431000000015
0.8888386666666467,-18.094323000000006,3.448437500000001
9.126152333333314,-18.844330000000006,4.843131900000001
17.36346599999998,-19.594337000000007,6.237826300000002
17.363465999999978,-19.59433700000001,6.237826300000002
18.107089666666642,-19.137950000000014,3.9558893333333347
18.850713333333307,-18.681563000000015,1.6739523666666678
19.59433699999997,-18.22517600000002,-0.6079845999999988
19.59433699999997,-18.22517600000002,-0.6079845999999988
19.44114466666664,-12.174053733333352,-3.975038399999999
19.28795233333331,-6.122931466666684,-7.342092199999999
19.134759999999975,-0.07180920000001716,-10.709145999999997
19.134759999999975,-0.07180920000001716,-10.709145999999995
16.725161999999973,6.486764533333317,-12.368736666666658
14.315563999999974,13.045338266666649,-14.028327333333323
11.905965999999973,19.603911999999983,-15.687917999999987
11.905965999999973,19.603911999999983,-15.687917999999987
13.479385666666643,17.63474399999998,-12.435758799999988
15.052805333333309,15.66557599999998,-9.183599599999988
16.626224999999973,13.696407999999979,-5.931440399999989
16.626224999999973,13.696407999999979,-5.931440399999989
17.615595666666636,2.59949299999998,0.41011006666667793
18.604966333333298,-8.49742200000002,6.751660533333344
19.594336999999964,-19.594337000000017,13.09321100000001
19.594336999999964,-19.59433700000002,13.09321100000001
19.594336999999964,-19.59433700000002,13.09321100000001
14.953866999999965,-19.556039000000023,9.89530800000001
10.313396999999965,-19.517741000000026,6.697405000000011
5.672926999999965,-19.47944300000003,3.4995020000000117
-1.3548003333333682,-15.920898000000028,2.436725733333345
-8.382527666666702,-12.362353000000027,1.3739494666666783
-15.410255000000035,-8.803808000000028,0.31117320000001153
-15.410255000000035,-8.803808000000028,0.31117320000001153
-16.808140666666706,-7.396347666666696,1.2047988666666782
-18.206026333333373,-5.988887333333363,2.0984245333333447
-19.60391200000004,-4.58142700000003,2.9920502000000115
-19.60391200000004,-4.581427000000031,2.9920502000000115
-19.60391200000004,-4.581427000000031,2.9920502000000115
-13.89109110000004,-9.585730333333364,3.317585233333345
-8.178270200000041,-14.590033666666697,3.643120266666678
-2.46544930000004,-19.59433700000003,3.968655300000012
4.87823879999996,-19.594337000000035,4.380361366666679
12.221926899999962,-19.594337000000035,4.792067433333346
19.565614999999962,-19.594337000000035,5.203773500000014
19.565614999999962,-19.594337000000035,5.203773500000015
19.575188999999963,-17.1719736666667,1.7633149000000146
19.584762999999963,-14.74961033333337,-1.6771436999999854
19.594336999999964,-12.327247000000037,-5.1176022999999855
19.594336999999967,-12.327247000000037,-5.1176022999999855
19.594336999999967,-12.327247000000037,-5.1176022999999855
17.775170999999972,-3.0207740000000385,-9.260195533333318
15.956004999999976,6.285698999999961,-13.402788766666651
14.136838999999975,15.59217199999996,-17.545381999999986
14.136838999999975,15.59217199999996,-17.545381999999986
13.125126999999976,16.903886333333297,-15.729406999999986
12.113414999999975,18.215600666666635,-13.913431999999986
11.101702999999974,19.52731499999997,-12.097456999999986
13.932580999999976,9.987861666666637,-8.270824376666653
16.763458999999973,0.44840833333330227,-4.444191753333319
19.59433699999997,-9.091045000000031,-0.6175591299999859
19.59433699999997,-9.091045000000031,-0.6175591299999859
19.59433699999997,-9.091045000000031,-0.6175591299999859
18.758159333333307,-12.592142333333364,2.790984246666681
17.92198166666664,-16.093239666666697,6.199527623333348
17.08580399999997,-19.59433700000003,9.608071000000015
17.08580399999997,-19.594337000000035,9.608071000000015
7.568690666666639,-16.635798000000037,6.585701546666681
-1.9484226666666942,-13.677259000000035,3.5633320933333477
-11.465536000000029,-10.718720000000033,0.5409626400000143
-14.178328000000029,-9.314451233333367,1.0547973600000142
-16.89112000000003,-7.9101824666667016,1.5686320800000144
-19.603912000000033,-6.505913700000036,2.0824668000000144
-19.60391200000003,-6.505913700000036,2.0824668000000144
-19.60391200000003,-6.505913700000036,2.0824668000000144
-13.562364533333364,-10.817657466666702,1.1345853533333474
-7.520817066666697,-15.129401233333368,0.18670390666668077
-1.4792696000000294,-19.441145000000038,-0.761177539999986
-1.4792696000000294,-19.441145000000038,-0.761177539999986
5.545265933333304,-19.492209000000038,0.7005387066666806
12.569801466666638,-19.54327300000004,2.1622549533333473
19.59433699999997,-19.594337000000042,3.623971200000014
19.59433699999997,-18.22517533333338,1.728208200000014
19.59433699999997,-16.856013666666712,-0.1675547999999861
19.59433699999997,-15.486852000000047,-2.0633177999999863
19.59433699999997,-15.486852000000047,-2.063317799999986
19.59433699999997,-15.486852000000047,-2.063317799999986
17.98900266666664,-8.200611333333379,-5.056963533333319
16.383668333333308,-0.9143706666667123,-8.050609266666653
14.778333999999978,6.371869999999955,-11.044254999999986
14.778333999999978,6.371869999999955,-11.044254999999986
11.628303666666644,10.782550666666623,-11.743198333333318
8.478273333333311,15.193231333333289,-12.44214166666665
5.328242999999977,19.603911999999955,-13.141084999999983
5.3282429999999765,19.603911999999955,-13.14108499999998
9.189982666666642,14.443223999999953,-10.24637599999998
13.051722333333307,9.282535999999952,-7.351666999999979
16.91346199999997,4.121847999999953,-4.456957999999979
16.91346199999997,4.121847999999953,-4.456957999999979
17.77836366666664,-3.783547000000047,0.16117166666668759
18.643265333333307,-11.688942000000047,4.779301333333354
19.508166999999975,-19.59433700000005,9.39743100000002
19.508166999999975,-19.59433700000005,9.39743100000002
12.936826986666643,-17.471976333333384,5.184624433333355
6.365486973333309,-15.349615666666717,0.9718178666666883
-0.2058530400000246,-13.227255000000051,-3.240988699999978
-0.2058530400000246,-13.227255000000051,-3.240988699999978
-5.7622893600000245,-9.598496666666719,-3.6909929666666446
-11.318725680000023,-5.969738333333386,-4.1409972333333105
-16.875162000000024,-2.340980000000054,-4.591001499999977
-16.87516200000002,-2.340980000000054,-4.591001499999976
-16.868779333333354,-6.097399333333388,-2.9441771833333092
-16.862396666666687,-9.85381866666672,-1.2973528666666427
-16.85601400000002,-13.610238000000054,0.34947145000002394
-16.85601400000002,-13.610238000000054,0.34947145000002394
-10.645315666666688,-15.604937666666721,1.801613100000024
-4.434617333333353,-17.599637333333387,3.253754750000024
1.7760809999999807,-19.594337000000056,4.705896400000024
1.7760809999999807,-19.594337000000056,4.705896400000024
7.715499666666646,-19.453910666666726,3.4229053200000243
13.654918333333313,-19.313484333333392,2.1399142400000244
19.594336999999978,-19.173058000000058,0.8569231600000243
19.59433699999998,-19.173058000000058,0.8569231600000243
18.786882666666646,-14.133647433333394,-2.0984245599999753
17.979428333333317,-9.094236866666728,-5.053772279999976
17.171973999999988,-4.05482630000006,-8.009119999999976
17.171973999999988,-4.05482630000006,-8.009119999999976
14.55173599999999,3.831419799999941,-10.409142999999975
11.931497999999989,11.717665899999941,-12.809165999999976
9.311259999999988,19.60391199999994,-15.209188999999975
9.311259999999987,19.603911999999944,-15.209188999999975
11.583622333333318,18.030492999999943,-12.58575953333331
13.855984666666652,16.457073999999942,-9.962330066666643
16.128346999999987,14.88365499999994,-7.338900599999977
16.128346999999987,14.88365499999994,-7.338900599999977
17.283676999999983,3.4803533333332735,-1.7824640666666431
18.43900699999998,-7.922948333333394,3.77397246666669
19.594336999999978,-19.326250000000062,9.330409000000023
19.594336999999978,-19.32625000000006,9.330409000000023
15.509191533333313,-19.10603533333339,5.896333366666689
11.424046066666648,-18.88582066666672,2.462257733333356
7.338900599999982,-18.665606000000054,-0.971817899999977
7.338900599999982,-18.665606000000054,-0.971817899999977
-0.12925660000001718,-14.344287533333386,-2.10799913333331
-7.597413800000016,-10.02296906666672,-3.2441803666666433
-15.065571000000014,-5.701650600000051,-4.3803615999999765
-15.065571000000014,-5.701650600000051,-4.380361599999976
-16.252816666666682,-7.753798066666718,-1.460120533333309
-17.440062333333348,-9.805945533333384,1.4601205333333576
-18.62730800000001,-11.858093000000048,4.3803616000000245
-18.62730800000001,-11.858093000000048,4.3803616000000245
-14.867697000000009,-14.436841000000049,4.54312906666669
-11.108086000000009,-17.01558900000005,4.705896533333356
-7.34847500000001,-19.59433700000005,4.868664000000023
-7.34847500000001,-19.59433700000005,4.868664000000023
1.0133079999999899,-19.58476300000005,3.036731433333356
9.37509099999999,-19.57518900000005,1.2047988666666891
17.73687399999999,-19.565615000000054,-0.6271336999999774
17.73687399999999,-19.565615000000058,-0.6271336999999774
18.356028333333324,-16.393243666666724,-2.5707694666666447
18.975182666666655,-13.22087233333339,-4.514405233333312
19.594336999999985,-10.048501000000057,-6.4580409999999775
19.594336999999985,-10.048501000000057,-6.4580409999999775
19.594336999999985,-10.048501000000057,-6.4580409999999775
17.31240066666665,-0.7356453333333892,-8.692105166666643
15.030464333333319,8.577210333333278,-10.926169333333307
12.748527999999984,17.890065999999944,-13.160233499999974
13.04214766666665,18.27304833333328,-11.018723499999973
13.335767333333317,18.65603066666661,-8.877213499999973
13.629386999999985,19.03901299999994,-6.735703499999975
13.629386999999985,19.03901299999994,-6.735703499999975
15.61770366666665,8.503805333333274,-4.421851319999974
17.606020333333316,-2.031402333333393,-2.1079991399999747
19.594336999999985,-12.56661000000006,0.2058530400000255
19.594336999999985,-12.56661000000006,0.2058530400000255
19.594336999999985,-12.56661000000006,0.2058530400000255
17.81985233333332,-14.909185666666724,1.1696921600000254
16.045367666666653,-17.25176133333339,2.1335312800000255
14.270882999999989,-19.594337000000056,3.0973704000000257
5.427180666666655,-15.61770333333339,0.8090504000000257
-3.4165216666666773,-11.641069666666723,-1.4792695999999743
-12.26022400000001,-7.664436000000058,-3.767589599999974
-12.26022400000001,-7.664436000000056,-3.767589599999974
-14.70812000000001,-7.578264800000056,-2.5452373599999736
-17.15601600000001,-7.492093600000056,-1.3228851199999736
-19.60391200000001,-7.405922400000056,-0.10053287999997362
-19.60391200000001,-7.405922400000056,-0.10053287999997362
-19.60391200000001,-7.405922400000056,-0.10053287999997362
-15.205997333333345,-11.46872726666672,-0.007978796666640286
-10.808082666666678,-15.531532133333387,0.08457528666669305
-6.41016800000001,-19.594337000000056,0.17712937000002638
0.9973501666666561,-19.594337000000056,0.7867096800000265
8.404868333333322,-19.594337000000056,1.3962899900000265
15.812386499999988,-19.594337000000056,2.005870300000027
15.812386499999988,-19.594337000000056,2.005870300000027
17.073036666666653,-17.851767333333395,-0.0047872999999731825
18.333686833333317,-16.10919766666673,-2.0154448999999732
19.59433699999998,-14.366628000000063,-4.026102499999973
19.59433699999998,-14.366628000000063,-4.026102499999973
17.896448333333314,-5.982504333333398,-7.182515999999974
16.19855966666665,2.401619333333269,-10.338929499999972
14.500670999999983,10.785742999999934,-13.495342999999972
14.500670999999983,10.785742999999934,-13.495342999999972
14.500670999999983,10.785742999999934,-13.495342999999972
12.844272333333317,13.725132666666601,-12.490014333333306
11.187873666666652,16.664522333333267,-11.48468566666664
9.531474999999984,19.603911999999934,-10.479356999999974
12.885762333333318,11.159149899999932,-7.32294336666664
16.24004966666665,2.714387799999932,-4.166529733333307
19.59433699999998,-5.730374300000068,-1.0101160999999734
19.59433699999998,-5.730374300000068,-1.0101160999999734
18.67198799999998,-10.35169520000007,1.93565703333336
17.749638999999984,-14.973016100000068,4.881430166666694
16.827289999999987,-19.59433700000007,7.8272033000000265
16.827289999999987,-19.59433700000007,7.8272033000000265
16.827289999999987,-19.59433700000007,7.8272033000000265
7.9516726666666555,-16.501754333333405,4.79845063333336
-0.9239446666666774,-13.409171666666737,1.7696979666666932
-9.79956200000001,-10.31658900000007,-1.2590546999999734
-13.067678666666678,-7.689967866666737,-1.1984158333333068
-16.335795333333344,-5.063346733333403,-1.13777696666664
-19.60391200000001,-2.4367256000000688,-1.0771380999999733
-19.60391200000001,-2.4367256000000688,-1.0771380999999733
-19.60391200000001,-2.4367256000000688,-1.0771380999999733
-16.208134666666677,-7.511242400000069,-1.0101161666666398
-12.812357333333345,-12.58575920000007,-0.9430942333333064
-9.416580000000012,-17.660276000000067,-0.876072299999973
-9.416580000000014,-17.660276000000067,-0.876072299999973
-2.8388570000000137,-18.30496300000007,0.6239422000000271
3.738865999999986,-18.949650000000066,2.123956700000027
10.316588999999986,-19.594337000000067,3.6239712000000277
13.409171666666653,-19.112417666666733,2.516513690000028
16.50175433333332,-18.630498333333403,1.4090561800000276
19.59433699999999,-18.14857900000007,0.30159867000002744
19.594336999999992,-18.14857900000007,0.30159867000002744
19.594336999999992,-18.14857900000007,0.30159867000002744
19.517740666666658,-11.155958500000068,-3.276095219999973
19.44114433333333,-4.163338000000067,-6.8537891099999735
19.364548000000003,2.8292824999999335,-10.431482999999973
19.364548000000006,2.8292824999999335,-10.431482999999973
16.884737000000005,8.4208256666666,-11.743197999999973
14.404926000000001,14.012368833333268,-13.054912999999972
11.925114999999998,19.603911999999934,-14.366627999999972
11.925114999999998,19.603911999999934,-14.366627999999972
14.187902666666666,14.459181666666602,-11.417663333333307
16.450690333333334,9.314451333333269,-8.46869866666664
18.713478000000002,4.169720999999936,-5.519733999999974
18.713478000000006,4.169720999999936,-5.519733999999974
18.85390533333334,-3.75163166666673,0.22181066666669302
18.994332666666676,-11.672984333333396,5.96335533333336
19.13476000000001,-19.594337000000063,11.704900000000025
19.13476000000001,-19.594337000000067,11.704900000000025
12.087883233333343,-18.135812666666737,7.153792333333359
5.041006466666677,-16.677288333333408,2.602684666666693
-2.005870299999989,-15.218764000000078,-1.948422999999974
-2.005870299999989,-15.218764000000078,-1.948422999999974
-7.702733533333322,-11.283619600000078,-1.5654405999999739
-13.399596766666656,-7.348475200000077,-1.1824581999999737
-19.09645999999999,-3.4133308000000757,-0.7994757999999736
-19.09645999999999,-3.4133308000000757,-0.7994757999999736
-18.139003999999993,-7.137834866666743,-0.9558602999999736
-17.181547999999996,-10.86233893333341,-1.1122447999999736
-16.224091999999995,-14.586843000000078,-1.2686292999999735
-16.224092,-14.586843000000078,-1.2686292999999738
-9.081470166666666,-16.256007666666743,0.4835152666666929
-1.9388483333333315,-17.925172333333407,2.2356598333333593
5.203773500000003,-19.59433700000007,3.9878044000000266
5.203773500000003,-19.59433700000007,3.9878044000000266
10.000628000000003,-19.444335666666742,3.11971093333336
14.797482500000001,-19.29433433333341,2.251617466666693
19.594337,-19.144333000000078,1.3835240000000262
19.37093066666667,-14.49428833333341,-1.7026759999999737
19.147524333333337,-9.844243666666744,-4.788875999999973
18.924118000000004,-5.194199000000077,-7.875075999999972
18.924118,-5.194199000000077,-7.875075999999972
18.924118,-5.194199000000077,-7.875075999999972
16.106006,3.0718379999999237,-11.00914866666664
13.287894000000001,11.337874999999924,-14.143221333333308
10.469782000000002,19.603911999999923,-17.277293999999976
10.469782000000002,19.603911999999927,-17.27729399999998
12.649590333333334,17.59325433333326,-14.733652666666643
14.829398666666664,15.582596666666596,-12.190011333333308
17.009206999999996,13.57193899999993,-9.646369999999973
17.009206999999993,13.57193899999993,-9.646369999999974
17.87091699999999,2.5165136666665955,-1.7473573333333074
18.73262699999999,-8.538911666666738,6.151655333333359
19.594336999999985,-19.59433700000007,14.050668000000025
19.594336999999985,-19.59433700000007,14.050668000000025
14.838972333333322,-19.17305666666674,10.252758833333358
10.083607666666655,-18.751776333333407,6.454849666666689
5.328242999999987,-18.33049600000007,2.656940500000023
5.328242999999987,-18.33049600000007,2.656940500000023
-1.919699666666679,-13.50172600000007,2.1303397000000226
-9.167642333333346,-8.672956000000072,1.6037389000000226
-16.41558500000001,-3.8441860000000716,1.0771381000000224
-16.974100333333347,-6.665490000000072,0.9430942333333556
-17.53261566666668,-9.486794000000073,0.8090503666666887
-18.09113100000001,-12.308098000000072,0.6750065000000219
-18.091131000000008,-12.308098000000072,0.6750065000000219
-18.091131000000008,-12.308098000000072,0.6750065000000219
-12.311288333333342,-14.736844333333403,1.6324625666666883
-6.531445666666676,-17.165590666666734,2.589918633333355
-0.7516030000000088,-19.594337000000067,3.547374700000022
-0.7516030000000088,-19.594337000000067,3.547374700000022
6.030376999999991,-19.52412400000007,2.7494946666666884
12.812356999999992,-19.453911000000076,1.9516146333333548
19.594336999999992,-19.38369800000008,1.1537346000000215
19.421995333333324,-14.67939710000008,-1.5207592666666454
19.24965366666666,-9.975096200000078,-4.1952531333333125
19.077311999999996,-5.270795300000075,-6.869746999999979
19.077312,-5.270795300000075,-6.869746999999979
19.077312,-5.270795300000075,-6.869746999999979
16.147496666666665,3.0207737999999247,-10.201694666666645
13.217681333333333,11.312342899999926,-13.533642333333313
10.287866000000001,19.603911999999927,-16.86558999999998
10.287866000000001,19.603911999999927,-16.86558999999998
12.572994333333334,17.516657999999925,-14.207052999999979
14.858122666666667,15.429403999999922,-11.548515999999978
17.143251,13.34214999999992,-8.889978999999977
17.96027966666667,2.363320999999921,-2.123956333333311
18.777308333333334,-8.615508000000078,4.6420663333333545
19.594337000000003,-19.59433700000008,11.40808900000002
19.594337000000007,-19.59433700000008,11.408089000000018
19.594337000000007,-19.59433700000008,11.408089000000018
15.95281283333334,-19.262419000000083,8.408060000000019
12.311288666666675,-18.93050100000009,5.408031000000019
8.669764500000008,-18.59858300000009,2.408002000000019
8.669764500000008,-18.59858300000009,2.408002000000019
0.14521400000000817,-14.10811440000009,2.3218310000000186
-8.379336499999992,-9.617645800000089,2.2356600000000184
-16.903886999999994,-5.12717720000009,2.149489000000018
-16.383668999999994,-8.200611133333425,1.6324626666666848
-15.863450999999992,-11.274045066666758,1.1154363333333517
-15.343232999999993,-14.347479000000092,0.5984100000000182
-15.343232999999993,-14.347479000000092,0.5984100000000182
-15.343232999999993,-14.347479000000092,0.5984100000000182
-9.285727833333327,-16.096431666666756,2.302681833333351
-3.2282226666666616,-17.845384333333424,4.006953666666684
2.8292825000000046,-19.594337000000092,5.711225500000016
2.8292825000000046,-19.594337000000095,5.711225500000016
8.417634000000003,-19.514549666666763,5.184624666666685
14.005985500000003,-19.434762333333428,4.658023833333353
19.594337000000003,-19.354975000000096,4.13142300000002
19.594337000000007,-19.354975000000096,4.13142300000002
18.662413666666676,-15.046422500000096,0.9718180000000199
17.730490333333346,-10.737870000000095,-2.1877869999999806
16.798567000000016,-6.429317500000097,-5.3473919999999815
16.798567000000016,-6.429317500000096,-5.3473919999999815
14.507055333333346,1.8431026666665715,-9.266578666666646
12.215543666666676,10.11552283333324,-13.185765333333313
9.924032000000008,18.387942999999908,-17.10495199999998
9.924032000000008,18.387942999999904,-17.10495199999998
11.68575100000001,17.756021999999906,-14.657056333333315
13.44747000000001,17.124100999999904,-12.209160666666653
15.20918900000001,16.4921799999999,-9.76126499999999
15.20918900000001,16.4921799999999,-9.761264999999987
16.67090500000001,4.8271739999999035,-2.909070999999987
18.132621000000007,-6.837832000000096,3.943123000000013
19.594337000000007,-18.502838000000093,10.795317000000013
19.59433700000001,-18.502838000000096,10.795317000000017
15.435786566666678,-18.4932630000001,7.906991200000015
11.277236133333346,-18.4836880000001,5.018665400000015
7.118685700000014,-18.474113000000102,2.1303396000000148
7.118685700000014,-18.474113000000102,2.1303396000000143
-0.48351553333332004,-13.495342000000102,0.5058558666666809
-8.085716766666653,-8.516571000000102,-1.1186278666666525
-15.687917999999987,-3.5378000000001024,-2.743111599999986
-15.687917999999987,-3.5378000000001024,-2.743111599999986
-16.993249333333324,-3.990995833333436,-1.9133163533333188
-18.298580666666663,-4.444191666666769,-1.0835211066666521
-19.603911999999998,-4.897387500000103,-0.25372585999998537
-19.603912,-4.897387500000103,-0.25372585999998537
-13.9676876,-9.796370666666768,0.5154304600000147
-8.3314632,-14.695353833333435,1.2845867800000146
-2.6952387999999985,-19.594337000000102,2.053743100000015
-2.6952387999999985,-19.594337000000106,2.0537431000000144
4.402701800000002,-19.594337000000106,2.5707694000000143
11.500642400000002,-19.594337000000106,3.0877957000000147
18.598583,-19.594337000000106,3.6048220000000146
18.598583,-19.594337000000106,3.6048220000000146
18.76135033333333,-17.242187000000104,0.6207506666666812
18.92411766666666,-14.890037000000106,-2.363320666666652
19.08688499999999,-12.537887000000106,-5.347391999999985
19.08688499999999,-12.537887000000106,-5.347391999999985
16.986864999999995,-3.221839666666774,-9.177215999999987
14.886844999999994,6.094207666666559,-13.00703999999999
12.786824999999993,15.410254999999893,-16.83686399999999
12.786824999999993,15.410254999999893,-16.83686399999999
12.50916266666666,16.48898866666656,-14.845355666666658
12.231500333333324,17.567722333333226,-12.853847333333325
11.95383799999999,18.64645599999989,-10.862338999999992
11.95383799999999,18.646455999999887,-10.862338999999992
14.50067099999999,7.658052333333221,-5.953780966666659
17.047503999999993,-3.330351333333445,-1.045222933333325
19.594336999999992,-14.318755000000111,3.863335100000009
19.594336999999996,-14.318755000000115,3.863335100000009
17.073036666666663,-16.077282333333446,3.831419933333342
14.551736333333329,-17.83580966666678,3.7995047666666757
12.030435999999995,-19.594337000000113,3.7675896000000093
12.030435999999995,-19.594337000000113,3.7675896000000093
5.455904333333327,-15.049612666666784,1.214373466666676
-1.1186273333333396,-10.50488833333345,-1.3388426666666575
-7.693159000000006,-5.960164000000119,-3.8920587999999907
-7.693159000000006,-5.960164000000119,-3.8920587999999903
-11.554898666666672,-5.0122825000001185,-4.140997366666657
-15.416638333333337,-4.064401000000118,-4.389935933333323
-19.278378,-3.1165195000001185,-4.638874499999989
-18.100706666666667,-8.277207333333452,-3.3846070999999895
-16.92303533333333,-13.437895166666785,-2.1303396999999897
-15.745363999999995,-18.598583000000115,-0.8760722999999896
-15.745363999999995,-18.598583000000115,-0.8760722999999896
-15.745363999999995,-18.598583000000115,-0.8760722999999896
-7.243154333333327,-18.93050100000011,0.32713080000001044
1.2590553333333403,-19.262419000000108,1.5303339000000105
9.761265000000007,-19.594337000000106,2.7335370000000108
9.761265000000007,-19.594337000000106,2.7335370000000108
13.038955666666673,-18.470922000000105,0.4867067666666773
16.316646333333342,-17.347507000000107,-1.7601234666666563
19.594337000000007,-16.22409200000011,-4.00695369999999
19.59433700000001,-16.22409200000011,-4.00695369999999
18.512412000000012,-8.203802100000107,-7.54315779999999
17.430487000000014,-0.1835122000001069,-11.07936189999999
16.348562000000015,7.836777699999893,-14.615565999999992
16.348562000000015,7.836777699999893,-14.615565999999992
13.514492000000017,11.759155799999894,-14.111305999999992
10.680422000000016,15.681533899999893,-13.607045999999992
7.846352000000017,19.603911999999895,-13.102785999999993
7.846352000000017,19.603911999999898,-13.102785999999993
11.762347000000018,13.50491713333323,-10.967658999999992
15.678342000000017,7.405922266666562,-8.832531999999993
19.594337000000017,1.3069273999998952,-6.697404999999994
19.59433700000002,1.3069273999998952,-6.697404999999994
19.310292333333354,-5.660160733333438,-1.2782036666666599
19.02624766666669,-12.62724886666677,4.140997666666674
18.74220300000003,-19.594337000000102,9.56019900000001
18.74220300000003,-19.594337000000106,9.56019900000001
11.698517733333361,-17.567722000000106,5.637820633333344
4.654832466666694,-15.54110700000011,1.7154422666666764
-2.3888527999999734,-13.514492000000113,-2.2069360999999907
-2.3888527999999734,-13.514492000000113,-2.2069360999999907
-7.948481199999974,-11.366598900000113,-1.6069303399999904
-13.50810959999997,-9.218705800000114,-1.0069245799999902
-19.06773799999997,-7.070812700000115,-0.40691881999999024
-18.78688399999997,-11.037871800000113,0.4579831200000098
-18.50602999999997,-15.004930900000113,1.32288506000001
-18.22517599999997,-18.971990000000115,2.1877870000000095
-18.225175999999966,-18.971990000000115,2.1877870000000095
-10.830423766666632,-19.179439000000112,1.4537373863333427
-3.4356715333332972,-19.38688800000011,0.7196877726666759
3.9590807000000363,-19.594337000000106,-0.014361840999990752
3.9590807000000363,-19.594337000000106,-0.014361840999990752
3.9590807000000363,-19.594337000000106,-0.014361840999990752
9.170832800000035,-19.026246666666776,-1.5303339939999907
14.382584900000035,-18.458156333333445,-3.046306146999991
19.594337000000035,-17.890066000000115,-4.562278299999991
18.656030333333366,-10.185736333333447,-7.118685866666659
17.7177236666667,-2.4814066666667784,-9.675093433333325
16.779417000000034,5.222922999999889,-12.231500999999989
16.77941700000003,5.222922999999889,-12.231500999999989
14.832589666666697,10.016585999999888,-12.08469099999999
12.885762333333362,14.810248999999887,-11.93788099999999
10.93893500000003,19.603911999999887,-11.79107099999999
10.93893500000003,19.603911999999887,-11.79107099999999
10.93893500000003,19.603911999999887,-11.79107099999999
13.824069000000028,13.964496066666554,-9.394239466666656
16.709203000000027,8.325080133333218,-6.9974079333333234
19.594337000000024,2.6856641999998856,-4.60057639999999
19.565613666666692,-4.741002866666781,0.9335197333333433
19.53689033333336,-12.167669933333448,6.4676158666666765
19.50816700000003,-19.594337000000113,12.00171200000001
19.50816700000003,-19.594337000000113,12.00171200000001
19.50816700000003,-19.594337000000113,12.00171200000001
13.342150033333361,-18.352836000000114,7.871884766666677
7.176133066666694,-17.111335000000114,3.742057533333344
1.0101161000000272,-15.869834000000116,-0.3877696999999891
1.0101161000000272,-15.869834000000116,-0.3877696999999891
-5.558032599999973,-12.33362966666678,0.856923200000011
-12.126181299999972,-8.797425333333447,2.1016161000000113
-18.694329999999972,-5.261221000000113,3.346309000000011
-18.694329999999972,-5.261221000000113,3.346309000000011
-17.717724666666637,-8.593168000000112,2.577152600000011
-16.741119333333305,-11.925115000000112,1.8079962000000112
-15.76451399999997,-15.257062000000111,1.038839800000011
-15.764513999999968,-15.257062000000111,1.0388398000000112
-9.362324499999968,-16.702820333333445,2.3282140000000116
-2.960134999999967,-18.148578666666783,3.6175882000000112
3.4420545000000335,-19.594337000000117,4.906962400000011
3.4420545000000335,-19.59433700000012,4.906962400000011
8.8261486666667,-19.431569666666785,3.271308266666677
14.210242833333368,-19.26880233333345,1.6356541333333434
19.594337000000035,-19.106035000000116,1.0066022089934753e-14
19.594337000000035,-19.106035000000112,1.0066022089934753e-14
18.553902000000036,-13.999602866666779,-2.8420486666666567
17.513467000000038,-8.893170733333447,-5.684097333333324
16.473032000000043,-3.7867386000001133,-8.526145999999992
16.473032000000043,-3.7867386000001133,-8.526145999999992
14.47194866666671,4.01014493333322,-10.84957266666666
12.470865333333379,11.807028466666553,-13.172999333333328
10.469782000000047,19.603911999999887,-15.496425999999994
10.469782000000045,19.603911999999887,-15.496425999999994
12.59214266666671,16.52728666666655,-12.145329866666662
14.714503333333376,13.450661333333217,-8.794233733333328
16.83686400000004,10.374035999999883,-5.443137599999996
16.836864000000038,10.374035999999881,-5.443137599999996
17.7560216666667,0.3845783333332153,0.7516032666666715
18.675179333333364,-9.604879333333452,6.946344133333338
19.594337000000028,-19.59433700000012,13.141085000000004
19.594337000000028,-19.59433700000012,13.141085000000004
14.877270533333364,-18.844330000000117,8.762319093333337
10.160204066666697,-18.094323000000117,4.383553186666671
5.443137600000032,-17.344316000000116,0.004787280000003946
5.443137600000032,-17.344316000000113,0.004787280000003945
-0.9494772666666348,-12.786825333333447,-2.219702146666662
-7.342092133333302,-8.22933466666678,-4.444191573333328
-13.734706999999966,-3.671844000000114,-6.668680999999995
-15.691108666666635,-4.734620233333447,-5.599521866666662
-17.6475103333333,-5.79739646666678,-4.530362733333329
-19.603911999999966,-6.860172700000113,-3.461203599999996
-19.603911999999962,-6.860172700000113,-3.461203599999996
-16.179410999999963,-11.104894133333447,-2.0792753666666632
-12.75490999999996,-15.349615566666783,-0.6973471333333299
-9.330408999999959,-19.594337000000117,0.6845811000000035
-9.330408999999957,-19.59433700000012,0.6845811000000035
-1.2782036666666237,-19.59433700000012,0.9143705333333368
6.7740016666667096,-19.59433700000012,1.1441599666666702
14.826207000000045,-19.59433700000012,1.3739494000000034
14.826207000000045,-19.59433700000012,1.3739494000000034
16.41558366666671,-17.55176450000012,-1.02607373333333
18.004960333333376,-15.509192000000127,-3.4260968666666636
19.594337000000042,-13.466619500000126,-5.826119999999997
19.594337000000042,-13.466619500000126,-5.826119999999997
17.867725000000046,-4.367595333333459,-8.21018533333333
16.141113000000047,4.731428833333207,-10.594250666666664
14.41450100000005,13.830452999999872,-12.978315999999998
14.41450100000005,13.830452999999872,-12.978315999999998
13.514492333333381,15.333658666666539,-11.388939333333331
12.614483666666715,16.836864333333207,-9.799562666666665
11.714475000000048,18.340069999999876,-8.210185999999998
11.714475000000048,18.34006999999988,-8.210185999999998
11.714475000000048,18.34006999999988,-8.210185999999998
14.341095666666716,8.242100666666547,-4.766535599999997
16.96771633333338,-1.8558686666667874,-1.322885199999997
19.59433700000005,-11.95383800000012,2.1207652000000032
18.304963000000054,-14.500671000000123,4.610150966666669
17.015589000000052,-17.047504000000124,7.099536733333335
15.726215000000053,-19.594337000000127,9.588922500000002
15.726215000000053,-19.594337000000127,9.588922500000002
15.726215000000053,-19.594337000000127,9.588922500000002
7.651669333333387,-15.863450333333466,5.229305900000002
-0.4228763333332803,-12.132563666666798,0.8696893000000016
-8.497421999999947,-8.40167700000013,-3.4899272999999984
-8.497421999999949,-8.401677000000133,-3.4899272999999984
-12.199585333333282,-6.754852533333465,-3.1260940333333322
-15.901748666666615,-5.108028066666798,-2.7622607666666656
-19.60391199999995,-3.4612036000001307,-2.398427499999999
-17.082611166666616,-8.621891733333465,-1.287778446666666
-14.561310333333283,-13.782579866666799,-0.17712939333333258
-12.040009499999952,-18.943268000000135,0.9335196600000008
-12.040009499999954,-18.94326800000013,0.9335196600000008
-12.040009499999954,-18.94326800000013,0.9335196600000008
-5.08249566666662,-19.16029100000013,1.6867184400000006
1.8750181666667132,-19.377314000000126,2.4399172200000003
8.832532000000047,-19.594337000000124,3.1931160000000003
8.832532000000048,-19.594337000000124,3.1931160000000003
12.419800333333379,-18.601774666666795,1.255863233333334
16.00706866666671,-17.60921233333346,-0.6813895333333325
19.594337000000042,-16.616650000000124,-2.618642299999999
19.594337000000042,-16.616650000000124,-2.6186422999999994
18.177302333333376,-9.403814333333457,-5.685693199999999
16.76026766666671,-2.1909786666667905,-8.7527441
15.343233000000046,5.021856999999876,-11.819795
15.343233000000046,5.021856999999876,-11.819795
13.683642666666714,9.882541999999876,-11.941072666666665
12.024052333333382,14.743226999999877,-12.062350333333333
10.364462000000051,19.603911999999877,-12.183627999999999
10.364462000000051,19.603911999999877,-12.183627999999999
13.441087000000053,13.035763706666543,-8.925086
16.51771200000005,6.467615413333209,-5.666543999999999
19.59433700000005,-0.1005328800001249,-2.4080019999999993
19.59433700000005,-0.1005328800001249,-2.4080019999999993
19.22092900000005,-6.598467586666792,3.359075000000001
18.847521000000054,-13.096402293333457,9.126152000000001
18.474113000000056,-19.594337000000124,14.893229000000003
18.474113000000056,-19.594337000000124,14.893229
10.785741500000057,-17.65070166666679,9.186790933333333
3.097370000000057,-15.707066333333458,3.480352866666666
-4.591001499999943,-13.763431000000125,-2.2260852000000013
-4.591001499999943,-13.763431000000125,-2.2260852000000013
-9.576155999999942,-9.994245566666793,-2.0154449333333346
-14.561310499999943,-6.225060133333458,-1.8048046666666682
-19.546464999999944,-2.4558747000001246,-1.5941644000000015
-19.546464999999944,-2.4558747000001246,-1.5941644000000015
-17.858150999999946,-6.818682800000125,-1.3356512333333346
-16.169836999999944,-11.181490900000123,-1.077138066666668
-14.481522999999944,-15.544299000000123,-0.8186249000000013
-14.481522999999944,-15.544299000000123,-0.8186249000000013
-7.677201866666611,-16.894311666666788,0.03670246666666536
-0.8728807333332776,-18.244324333333456,0.8920298333333321
5.931440400000056,-19.59433700000012,1.7473571999999986
5.931440400000056,-19.594337000000124,1.7473571999999986
10.485739266666721,-19.345399000000125,0.732453833333332
15.040038133333388,-19.096461000000122,-0.2824495333333346
19.594337000000053,-18.847523000000123,-1.297352900000001
19.594337000000053,-18.847523000000123,-1.297352900000001
18.774117000000057,-13.335767433333459,-4.1792956000000006
17.953897000000058,-7.824011866666793,-7.0612383
17.133677000000063,-2.312256300000127,-9.943181000000001
17.133677000000066,-2.312256300000127,-9.943181
15.062380000000067,4.993133133333207,-11.325108999999998
12.991083000000067,12.298522566666541,-12.707037
10.919786000000068,19.603911999999877,-14.088965000000002
10.919786000000068,19.603911999999877,-14.088965000000002
13.0995943333334,15.723023666666547,-11.797453766666669
15.279402666666732,11.842135333333212,-9.505942533333334
17.459211000000064,7.961246999999879,-7.214431300000001
17.459211000000064,7.961246999999879,-7.214431300000001
18.17091966666673,-1.2239476666667872,-0.34308853333333494
18.882628333333397,-10.409142333333454,6.528254233333331
19.594337000000063,-19.59433700000012,13.399596999999998
19.594337000000063,-19.59433700000012,13.399596999999998
13.967687333333396,-18.697520333333454,9.365515633333331
8.34103766666673,-17.800703666666788,5.3314342666666645
2.7143880000000635,-16.903887000000122,1.2973528999999975
2.7143880000000635,-16.903887000000122,1.2973528999999975
-3.8824846666666026,-12.151713333333452,1.3579917999999978
-10.479357333333269,-7.399539666666784,1.4186306999999978
-17.076229999999935,-2.6473660000001176,1.4792695999999979
-17.076229999999935,-2.6473660000001176,1.4792695999999979
-17.146443333333266,-5.995270666666784,2.0920414666666645
-17.216656666666605,-9.34317533333345,2.704813333333331
-17.28686999999994,-12.691080000000118,3.3175851999999977
-17.286869999999944,-12.691080000000118,3.3175851999999977
-12.984700533333276,-14.992165666666784,4.029294133333331
-8.682531066666611,-17.293251333333448,4.741003066666664
-4.380361599999944,-19.594337000000113,5.452711999999997
-4.380361599999944,-19.594337000000113,5.452711999999998
2.9090702666667227,-19.562422000000115,3.6080134116666653
10.19850213333339,-19.530507000000117,1.7633148233333322
17.487934000000056,-19.49859200000012,-0.08138376500000118
17.487934000000056,-19.49859200000012,-0.08138376500000118
17.92198100000006,-16.19536883333345,-2.580344076666668
18.356028000000062,-12.892145666666787,-5.079304388333335
18.790075000000062,-9.588922500000121,-7.578264700000001
18.790075000000062,-9.588922500000121,-7.578264700000001
15.971962666666732,-0.9654350000001207,-9.505942966666668
13.153850333333397,7.658052499999879,-11.433621233333335
10.335738000000063,16.281539999999882,-13.361299500000003
10.335738000000063,16.281539999999882,-13.361299500000003
11.583622500000063,16.613457999999884,-11.778305333333336
12.831507000000064,16.945375999999886,-10.195311166666668
14.079391500000064,17.277293999999888,-8.612317
14.079391500000064,17.277293999999888,-8.612317
15.917706666666732,7.543157666666556,-4.7824929
17.756021833333396,-2.190978666666778,-0.9526688000000009
19.594337000000063,-11.925115000000112,2.8771552999999987
18.419858000000062,-14.481522333333446,5.743140533333332
17.24537900000006,-17.03792966666678,8.609125766666665
16.070900000000062,-19.594337000000117,11.475110999999998
16.07090000000006,-19.59433700000012,11.475110999999998
16.07090000000006,-19.59433700000012,11.475110999999998
6.068675666666725,-15.917706333333456,8.108057133333332
-3.933548666666608,-12.241075666666788,4.741003266666666
-13.93577299999994,-8.564445000000122,1.3739493999999997
-13.93577299999994,-8.564445000000122,1.3739493999999997
-15.815578666666608,-6.9974083666667894,0.8824553066666662
-17.695384333333276,-5.430371733333456,0.3909612133333329
-19.57518999999994,-3.8633351000001235,-0.10053288000000049
-19.575189999999942,-3.8633351000001235,-0.10053288000000049
-15.024081833333277,-9.107002400000123,0.5505372466666661
-10.472973666666611,-14.350669700000124,1.2016073733333328
-5.921865499999946,-19.594337000000124,1.8526774999999995
-5.921865499999946,-19.594337000000124,1.8526774999999993
1.7409743333333874,-19.594337000000124,2.6760896666666656
9.40381416666672,-19.594337000000124,3.4995018333333316
17.066654000000053,-19.594337000000124,4.322913999999998
17.066654000000057,-19.594337000000124,4.322913999999997
17.909215000000057,-18.41347466666679,1.5079933333333306
18.751776000000053,-17.23261233333346,-1.306927333333336
19.594337000000053,-16.051750000000126,-4.121848000000003
19.594337000000053,-16.051750000000126,-4.121848000000003
18.23474966666672,-8.07614133333346,-7.354858000000003
16.87516233333339,-0.10053266666679406,-10.587868000000002
15.515575000000055,7.875075999999872,-13.820878000000002
15.515575000000055,7.875075999999872,-13.820878000000002
13.820877666666723,11.784687999999873,-13.090020000000003
12.126180333333389,15.694299999999872,-12.359162000000003
10.431483000000057,19.603911999999873,-11.628304000000002
10.431483000000057,19.603911999999873,-11.628304000000002
13.46981033333339,11.63787786666654,-7.993162433333336
16.508137666666723,3.671843733333206,-4.35802086666667
19.546465000000055,-4.2941904000001285,-0.722879300000003
19.546465000000055,-4.2941904000001285,-0.722879300000003
18.76454233333339,-9.394239266666792,2.902687466666664
17.982619666666725,-14.49428813333346,6.528254233333331
17.200697000000062,-19.594337000000124,10.153820999999997
17.200697000000062,-19.594337000000124,10.153820999999995
10.083607333333395,-16.830481000000123,6.225059833333329
2.9665176666667286,-14.066625000000125,2.296298666666663
-4.150571999999939,-11.302769000000126,-1.6324625000000041
-4.150571999999939,-11.302769000000126,-1.6324625000000041
-9.26338699999994,-8.663381666666794,-2.2005531000000045
-14.37620199999994,-6.02399433333346,-2.768643700000004
-19.489016999999944,-3.3846070000001265,-3.3367343000000047
-19.489016999999944,-3.384607000000127,-3.3367343000000047
-18.349644666666606,-7.555924000000126,-2.372895223333338
-17.210272333333275,-11.727241000000125,-1.4090561466666713
-16.07089999999994,-15.898558000000124,-0.4452170700000046
-16.070899999999945,-15.898558000000124,-0.4452170700000046
-9.008065899999943,-17.13048433333346,0.5473456866666622
-1.9452317999999427,-18.362410666666793,1.539908443333329
5.1176023000000574,-19.594337000000127,2.532471199999996
5.1176023000000574,-19.594337000000127,2.532471199999996
9.94318053333339,-19.262419000000133,0.901604466666662
14.768758766666721,-18.930501000000135,-0.7292622666666714
19.594337000000053,-18.598583000000136,-2.3601290000000046
19.594337000000053,-18.598583000000136,-2.3601290000000046
16.96452466666672,-13.358107100000135,-4.568661000000005
14.334712333333385,-8.117631200000135,-6.777193000000004
11.704900000000052,-2.8771553000001346,-8.985725000000004
11.704900000000052,-2.8771553000001346,-8.985725000000004
10.594251000000051,4.616533799999866,-10.04530966666667
9.483602000000053,12.110222899999867,-11.104894333333336
8.372953000000052,19.603911999999866,-12.164479000000002
8.372953000000052,19.60391199999987,-12.164479000000002
11.23893866666672,16.425157999999872,-10.172970433333335
14.104924333333384,13.24640399999987,-8.181461866666668
16.97091000000005,10.06764999999987,-6.189953300000002
16.970910000000046,10.06764999999987,-6.189953300000002
17.84538566666671,0.1803209999998702,-0.7228795333333347
18.719861333333373,-9.70700800000013,4.744194233333332
19.59433700000004,-19.594337000000127,10.211267999999999
19.59433700000004,-19.594337000000127,10.211267999999999
14.921951766666709,-18.994331666666795,6.761234959999999
10.249566533333375,-18.394326333333463,3.3112019199999985
5.577181300000043,-17.794321000000128,-0.13883112000000195
5.577181300000043,-17.794321000000128,-0.13883112000000195
-2.62183413333329,-12.834698566666797,-0.2952156133333353
-10.820849566666624,-7.875076133333464,-0.4516001066666686
-19.019864999999957,-2.9154537000001306,-0.6079846000000019
-19.019864999999957,-2.9154537000001306,-0.6079846000000019
-19.080503333333294,-4.166529466666797,-2.088849900000002
-19.141141666666627,-5.417605233333464,-3.5697152000000014
-19.20177999999996,-6.66868100000013,-5.0505805000000015
-19.20177999999996,-6.66868100000013,-5.050580500000002
-12.620865786666627,-10.977233000000128,-3.614396466666669
-6.039951573333293,-15.28578500000013,-2.178212433333336
0.5409626400000404,-19.59433700000013,-0.7420284000000027
0.5409626400000404,-19.594337000000134,-0.7420284000000027
6.8920874266667065,-19.594337000000134,-0.5313880813333359
13.243212213333374,-19.594337000000134,-0.3207477626666693
19.59433700000004,-19.594337000000134,-0.11010744400000261
19.59433700000004,-19.594337000000134,-0.11010744400000261
19.04539600000004,-16.492180000000133,-2.143105829333336
18.49645500000004,-13.390023000000133,-4.176104214666669
17.94751400000004,-10.287866000000133,-6.209102600000001
17.94751400000004,-10.28786600000013,-6.209102600000001
17.94751400000004,-10.28786600000013,-6.209102600000001
16.374094333333375,-1.568632666666798,-8.67933906666667
14.800674666666708,7.150600666666535,-11.149575533333335
13.227255000000042,15.86983399999987,-13.619812000000003
13.268745000000044,16.016644333333204,-11.944264000000004
13.310235000000043,16.16345466666654,-10.268716000000003
13.351725000000044,16.310264999999873,-8.593168000000004
13.351725000000044,16.310264999999873,-8.593168000000004
15.432595666666709,4.958026999999873,-2.337788333333337
17.513466333333373,-6.394211000000126,3.917591333333329
19.59433700000004,-17.746449000000126,10.172970999999995
19.59433700000004,-17.746449000000126,10.172970999999995
19.59433700000004,-17.746449000000126,10.172970999999995
16.342178333333376,-18.36241166666679,8.778276666666661
13.090019666666711,-18.97837433333346,7.383582333333329
9.837861000000045,-19.594337000000124,5.988887999999995
3.304819000000046,-15.16450733333346,3.173967099999995
-3.228222999999954,-10.734677666666792,0.35904619999999543
-9.761264999999954,-6.304848000000127,-2.4558747000000043
-9.761264999999954,-6.304848000000128,-2.4558747000000043
-9.761264999999954,-6.304848000000128,-2.4558747000000043
-12.518737999999955,-4.8910046000001275,-2.2420428666666705
-15.276210999999954,-3.4771612000001273,-2.0282110333333367
-18.033683999999955,-2.0633178000001267,-1.8143792000000036
-16.571967999999952,-7.003790866666794,-0.8377740333333369
-15.110251999999953,-11.944263933333461,0.13883113333332986
-13.648535999999952,-16.88473700000013,1.1154362999999965
-13.648535999999952,-16.88473700000013,1.1154362999999965
-7.185707666666619,-17.787937000000127,2.0537431999999964
-0.7228793333332858,-18.691137000000126,2.992050099999996
5.739949000000046,-19.594337000000124,3.9303569999999954
5.739949000000046,-19.594337000000124,3.930356999999995
5.739949000000046,-19.594337000000124,3.930356999999995
10.35807833333338,-18.786882666666788,1.517567799999995
14.976207666666712,-17.97942833333346,-0.8952214000000048
19.594337000000046,-17.17197400000013,-3.3080106000000047
17.743255666666713,-9.499559666666796,-6.3718700666666725
15.892174333333381,-1.827145333333462,-9.435729533333339
14.041093000000052,5.845268999999871,-12.499589000000006
14.041093000000052,5.845268999999871,-12.499589000000006
14.041093000000052,5.845268999999871,-12.499589000000006
12.82512400000005,10.431483333333205,-12.209160666666671
11.60915500000005,15.017697666666537,-11.918732333333338
10.393186000000048,19.60391199999987,-11.628304000000005
13.332575666666715,11.81979449999987,-8.12082326666667
16.271965333333384,4.035676999999869,-4.613342533333338
19.21135500000005,-3.748440500000131,-1.1058618000000042
19.21135500000005,-3.748440500000131,-1.1058618000000042
18.659222000000053,-9.03040600000013,2.9346027999999955
18.107089000000055,-14.31237150000013,6.975067399999996
17.554956000000058,-19.594337000000127,11.015531999999995
17.554956000000058,-19.594337000000127,11.015531999999995
9.780413166666722,-16.565584833333464,7.33570919933333
2.0058703333333887,-13.536832666666797,3.655886398666663
-5.768672499999945,-10.50808050000013,-0.02393640200000391
-5.768672499999945,-10.508080500000132,-0.02393640200000391
-10.230417666666613,-7.725074766666798,-0.11649049133333723
-14.69216283333328,-4.942069033333465,-0.20904458066667056
-19.153907999999948,-2.1590633000001316,-0.3015986700000039
-19.153907999999944,-2.1590633000001316,-0.30159867000000395
-17.296443333333276,-6.837832200000132,-0.4803237933333373
-15.438978666666609,-11.51660110000013,-0.6590489166666706
-13.581513999999942,-16.19537000000013,-0.8377740400000039
-13.581513999999942,-16.19537000000013,-0.8377740400000038
-7.702733899999941,-17.32835900000013,-0.4803237833333371
-1.8239537999999402,-18.46134800000013,-0.12287352666667044
4.054826300000061,-19.594337000000127,0.23457672999999624
4.054826300000061,-19.594337000000127,0.23457672999999624
4.054826300000061,-19.594337000000127,0.23457672999999624
9.234663200000059,-19.358164666666795,-0.40691881333333696
14.41450010000006,-19.121992333333463,-1.0484143566666702
19.594337000000056,-18.885820000000127,-1.6899099000000033
18.26666483333339,-14.005985800000127,-3.8058879333333366
16.938992666666724,-9.12615160000013,-5.92186596666667
15.611320500000062,-4.24631740000013,-8.037844000000003
15.611320500000062,-4.24631740000013,-8.037844000000005
14.55811866666673,3.6495033999998703,-9.260196000000006
13.504916833333397,11.54532419999987,-10.482548000000007
12.451715000000064,19.44114499999987,-11.704900000000007
12.451715000000064,19.44114499999987,-11.704900000000007
14.104923000000063,16.45707366666654,-9.33679213333334
15.758131000000065,13.473002333333206,-6.968684266666673
17.411339000000066,10.488930999999873,-4.600576400000007
17.41133900000007,10.488930999999873,-4.600576400000006
18.13900500000007,0.4611749999998735,2.1175733999999937
18.866671000000068,-9.566581000000127,8.835723199999995
19.594337000000067,-19.594337000000127,15.553872999999994
19.594337000000067,-19.594337000000127,15.553872999999996
19.594337000000067,-19.594337000000127,15.553872999999996
13.792153666666735,-19.045396000000128,11.053829699999994
7.989970333333402,-18.49645500000013,6.553786399999994
2.187787000000069,-17.94751400000013,2.053743099999995
-3.962271999999931,-12.55065330000013,1.4728864666666615
-10.112330999999932,-7.15379260000013,0.892029833333328
-16.26238999999993,-1.7569319000001293,0.3111731999999945
-16.26238999999993,-1.7569319000001293,0.3111731999999945
-17.162399333333266,-2.3984274000001293,-0.17712940000000557
-18.0624086666666,-3.0399229000001298,-0.6654320000000057
-18.962417999999932,-3.6814184000001298,-1.1537346000000055
-18.962417999999932,-3.6814184000001298,-1.1537346000000055
-18.962417999999932,-3.6814184000001298,-1.1537346000000055
-14.835782166666599,-8.98572460000013,-0.08138380000000549
-10.709146333333265,-14.29003080000013,0.9909669999999946
-6.582510499999931,-19.594337000000127,2.0633177999999948
1.418630333333402,-19.594337000000127,2.0154449666666614
9.419771166666735,-19.594337000000127,1.9675721333333278
17.42091200000007,-19.594337000000127,1.9196992999999942
17.42091200000007,-19.594337000000127,1.9196992999999942
17.42091200000007,-19.594337000000127,1.9196992999999942
17.960279000000067,-17.660276000000128,-1.1856498000000057
18.499646000000066,-15.72621500000013,-4.290998900000005
19.039013000000065,-13.79215400000013,-7.396348000000006
19.039013000000065,-13.79215400000013,-7.396348000000006
17.701766000000063,-4.686747000000128,-9.965521666666671
16.36451900000006,4.418659999999872,-12.534695333333337
15.027272000000062,13.524066999999873,-15.103869000000003
14.992165333333395,15.317701333333204,-12.99427416666667
14.957058666666725,17.111335666666537,-10.884679333333338
14.921952000000056,18.904969999999867,-8.775084500000004
14.921952000000056,18.904969999999867,-8.775084500000006
14.921952000000056,18.904969999999867,-8.775084500000006
16.479413666666723,7.5399663333332,-2.806942000000006
18.03687533333339,-3.825037333333467,3.1612004999999943
19.59433700000006,-15.190041000000134,9.129342999999993
19.594337000000063,-15.190041000000134,9.129342999999993
17.270910666666733,-16.658139666666802,9.01763966666666
14.947484333333401,-18.12623833333347,8.905936333333328
12.624058000000067,-19.594337000000134,8.794232999999993
12.624058000000067,-19.594337000000138,8.794232999999993
4.7058966666667335,-15.407062866666806,5.072920733333327
-3.2122646666666,-11.219788733333473,1.3516084666666603
-11.130425999999934,-7.03251460000014,-2.3697038000000066
-11.130425999999934,-7.03251460000014,-2.3697038000000066
-13.696408333333268,-5.88675890000014,-2.762260766666673
-16.262390666666604,-4.74100320000014,-3.1548177333333403
-18.828372999999942,-3.59524750000014,-3.5473747000000073
-18.82837299999994,-3.59524750000014,-3.5473747000000073
-17.25814499999994,-8.570827666666807,-1.94204003333334
-15.68791699999994,-13.546407833333475,-0.33670536666667344
-14.11768899999994,-18.521988000000142,1.2686292999999933
-14.117688999999942,-18.521988000000142,1.2686292999999933
-6.413359666666607,-18.87943766666681,2.15587186666666
1.2909696666667283,-19.236887333333478,3.043114433333326
8.995299000000063,-19.594337000000145,3.9303569999999923
8.995299000000065,-19.59433700000015,3.9303569999999923
12.52831166666673,-19.173056666666813,1.0196906666666592
16.061324333333392,-18.75177633333348,-1.8909756666666742
19.594337000000056,-18.33049600000015,-4.801642000000008
19.594337000000056,-18.33049600000015,-4.801642000000008
18.180494000000056,-11.26127890000015,-7.705925333333341
16.766651000000056,-4.19206180000015,-10.610208666666674
15.352808000000058,2.8771552999998495,-13.51449200000001
15.352808000000058,2.8771552999998495,-13.51449200000001
13.680451333333389,8.452740866666517,-12.55384433333334
12.008094666666722,14.028326433333184,-11.593196666666671
10.335738000000054,19.603911999999852,-10.632549000000003
10.335738000000056,19.60391199999985,-10.632549000000004
13.185765333333391,12.180436333333184,-7.067621118666672
16.035792666666726,4.756960666666518,-3.502693237333339
18.88582000000006,-2.6665150000001496,0.0622346439999942
18.885820000000063,-2.6665150000001496,0.0622346439999942
18.544327666666728,-8.309122333333482,4.399510429333327
18.202835333333393,-13.951729666666816,8.73678621466666
17.86134300000006,-19.59433700000015,13.074061999999993
17.86134300000006,-19.594337000000152,13.074061999999993
11.277236766666727,-17.519849000000153,8.401676599999995
4.693130533333396,-15.445361000000156,3.7292911999999947
-1.8909756999999352,-13.37087300000016,-0.943094200000005
-1.8909756999999352,-13.37087300000016,-0.943094200000005
-5.893141799999936,-9.486793233333492,-1.6356541333333385
-9.895307899999937,-5.602713466666827,-2.3282140666666717
-13.897473999999939,-1.7186337000001604,-3.020774000000005
-13.897473999999939,-1.7186337000001604,-3.020774000000005
-15.269827999999938,-3.614396600000161,-2.449491800000005
-16.642181999999938,-5.51015950000016,-1.878209600000005
-18.014535999999936,-7.40592240000016,-1.3069274000000048
-18.014535999999932,-7.40592240000016,-1.3069274000000048
-13.137892999999934,-11.468727266666825,0.31755633333332844
-8.261249999999935,-15.531532133333492,1.942040066666662
-3.384606999999935,-19.59433700000016,3.5665237999999952
-3.384606999999935,-19.594337000000163,3.5665237999999952
3.722908333333398,-19.556039000000165,3.090987299999995
10.830423666666732,-19.517741000000168,2.6154507999999947
17.937939000000068,-19.47944300000017,2.1399142999999943
17.937939000000068,-19.47944300000017,2.1399142999999943
17.025164333333397,-15.9528133333335,-1.3069274666666726
16.11238966666673,-12.426183666666835,-4.7537692333333395
15.199615000000064,-8.899554000000169,-8.200611000000007
15.199615000000064,-8.899554000000167,-8.200611000000007
13.342150000000062,-0.0015956666668343427,-10.846381333333339
11.484685000000063,8.8963626666665,-13.49215166666667
9.627220000000063,17.794320999999833,-16.137922
9.627220000000063,17.794320999999837,-16.137922
11.867667333333396,17.207081333333168,-14.168753999999998
14.10811466666673,16.619841666666503,-12.199585999999996
16.34856200000006,16.032601999999837,-10.230417999999997
16.34856200000006,16.032601999999837,-10.230417999999995
17.43048700000006,4.897387999999836,-4.351637866666662
18.512412000000058,-6.237826000000164,1.5271422666666712
19.594337000000056,-17.373040000000163,7.405922400000004
19.594337000000056,-17.373040000000163,7.405922400000004
17.625169333333393,-18.113472333333494,7.07081286666667
15.65600166666673,-18.853904666666825,6.735703333333336
13.686834000000061,-19.594337000000156,6.400593800000002
13.686834000000061,-19.594337000000156,6.400593800000002
6.662298133333397,-15.783662166666824,4.9867503000000015
-0.3622377333332694,-11.972987333333492,3.572906800000002
-7.386773599999937,-8.162312500000159,2.1590633000000024
-7.386773599999937,-8.16231250000016,2.159063300000003
-11.459153066666603,-8.26125000000016,1.983529700000003
-15.531532533333271,-8.36018750000016,1.8079961000000029
-19.60391199999994,-8.459125000000162,1.6324625000000026
-19.603911999999944,-8.459125000000162,1.6324625000000026
-15.981536999999944,-12.170862333333494,2.2069361333333357
-12.359161999999943,-15.882599666666826,2.7814097666666697
-8.736786999999943,-19.594337000000156,3.3558834000000033
-8.736786999999943,-19.594337000000156,3.3558834000000033
-1.8686353333332761,-19.594337000000156,2.7750267333333363
4.99951633333339,-19.594337000000156,2.1941700666666697
11.867668000000057,-19.594337000000156,1.6133134000000027
11.867668000000057,-19.594337000000156,1.6133134000000027
13.690026000000058,-17.261336000000156,-1.6548030666666642
15.512384000000056,-14.928335000000155,-4.922919533333331
17.334742000000055,-12.595334000000156,-8.191035999999997
17.334742000000052,-12.595334000000156,-8.191035999999995
14.81024966666672,-4.262275000000154,-9.96552133333333
12.285757333333388,4.070783999999845,-11.740006666666664
9.761265000000055,12.403842999999846,-13.514491999999999
9.761265000000053,12.403842999999846,-13.514491999999999
10.374036666666719,13.463427666666512,-11.724049333333332
10.986808333333384,14.523012333333178,-9.933606666666664
11.599580000000048,15.582596999999843,-8.143163999999997
11.599580000000046,15.582596999999843,-8.143163999999999
14.264499000000043,8.963384333333176,-5.730374646666665
16.92941800000004,2.3441716666665093,-3.317585293333332
19.59433700000004,-4.275041000000158,-0.9047959399999984
19.59433700000004,-4.275041000000158,-0.9047959399999984
19.412420666666705,-9.381473000000156,2.730345373333335
19.23050433333337,-14.487905000000154,6.365486686666668
19.048588000000038,-19.594337000000152,10.000628
19.048588000000038,-19.594337000000152,10.000628
12.148521433333372,-17.740064000000157,6.371869733333334
5.248454866666706,-15.88579100000016,2.743111466666667
-1.65161169999996,-14.031518000000156,-0.8856468
-1.65161169999996,-14.031518000000156,-0.8856468
-7.63571179999996,-11.593196666666826,-0.4164933333333334
-13.619811899999961,-9.154875333333493,0.0526601333333333
-19.603911999999962,-6.716554000000161,0.5218136
-19.603911999999962,-6.716554000000161,0.5218136
-18.04964199999996,-10.185736666666827,-0.3462798666666667
-16.495371999999957,-13.654919333333494,-1.2143733333333335
-14.941101999999956,-17.12410200000016,-2.0824668
-14.941101999999956,-17.12410200000016,-2.0824668
-6.777193333333289,-17.94751366666683,-0.9462856666666665
1.3867153333333775,-18.770925333333498,0.18989546666666693
9.550624000000044,-19.594337000000163,1.3260766000000004
9.550624000000044,-19.594337000000166,1.3260766000000004
12.89852833333338,-19.2879513333335,0.04627706666666698
16.24643266666671,-18.981565666666835,-1.2335224666666667
19.594337000000042,-18.675180000000168,-2.513322
19.594337000000042,-18.675180000000168,-2.513322
19.192205666666712,-12.678313700000169,-4.891004666666666
18.790074333333383,-6.68144740000017,-7.268687333333332
18.387943000000053,-0.6845811000001696,-9.64637
18.387943000000057,-0.6845811000001696,-9.64637
15.391105666666725,6.078249933333164,-10.393185666666668
12.394268333333391,12.841080966666498,-11.140001333333336
9.397431000000056,19.603911999999834,-11.886817000000002
9.397431000000056,19.60391199999983,-11.886817000000002
11.972988000000058,15.592171333333162,-9.572964833333337
14.54854500000006,11.580430666666494,-7.259112666666671
17.12410200000006,7.568689999999826,-4.945260500000006
17.124102000000057,7.568689999999826,-4.945260500000006
17.947513666666726,-1.4856523333335068,1.239905666666661
18.77092533333339,-10.539994666666841,7.425071833333329
19.59433700000006,-19.594337000000174,13.610237999999997
19.594337000000063,-19.594337000000177,13.610237999999997
13.93577210000006,-18.54432700000018,9.221897689999997
8.27720720000006,-17.494317000000184,4.833557379999996
2.6186423000000603,-16.44430700000019,0.4452170699999953
2.6186423000000603,-16.44430700000019,0.4452170699999953
-3.288861466666606,-12.043200900000192,-0.9079874866666714
-9.196365233333273,-7.642094800000192,-2.261192043333338
-15.10386899999994,-3.240988700000191,-3.6143966000000045
-16.319837999999937,-5.06972980000019,-3.3782240666666716
-17.535806999999938,-6.8984709000001905,-3.1420515333333383
-18.75177599999994,-8.72721200000019,-2.9058790000000045
-18.751775999999943,-8.727212000000188,-2.9058790000000045
-18.751775999999943,-8.727212000000188,-2.9058790000000045
-13.846409799999941,-12.349587000000186,-0.607984533333338
-8.941043599999942,-15.971962000000188,1.6899099333333287
-4.035677399999941,-19.594337000000188,3.987804399999995
2.2388514000000588,-19.587954666666857,3.3558834333333287
8.513380200000059,-19.581572333333526,2.7239624666666624
14.787909000000058,-19.57519000000019,2.0920414999999957
14.787909000000058,-19.575190000000187,2.0920414999999957
14.787909000000058,-19.575190000000187,2.0920414999999957
15.41663833333339,-17.58368100000019,-0.6622403333333376
16.045367666666724,-15.592172000000192,-3.4165221666666716
16.67409700000006,-13.600663000000194,-6.170804000000005
16.67409700000006,-13.600663000000196,-6.170804000000005
15.601746333333395,-4.935686000000196,-8.487847666666672
14.52939566666673,3.7292909999998045,-10.80489133333334
13.457045000000065,12.394267999999805,-13.121935000000008
13.632578333333397,14.104923333333138,-11.337875333333342
13.808111666666731,15.815578666666473,-9.553815666666674
13.983645000000065,17.526233999999807,-7.769756000000008
13.983645000000067,17.526233999999807,-7.769756000000008
13.983645000000067,17.526233999999807,-7.769756000000008
15.853875666666733,5.8835679999998085,-2.5260883333333415
17.7241063333334,-5.759098000000191,2.7175793333333256
19.594337000000067,-17.40176400000019,7.961246999999993
19.594337000000067,-17.40176400000019,7.961246999999993
16.469839000000068,-18.132621666666854,7.211239833333326
13.34534100000007,-18.86347933333352,6.461232666666658
10.220843000000071,-19.594337000000184,5.7112254999999905
10.220843000000071,-19.594337000000184,5.7112254999999905
1.76012300000007,-14.768758766666854,3.9207826333333244
-6.700596999999931,-9.943180533333521,2.130339766666658
-15.161316999999933,-5.117602300000187,0.339896899999992
-15.161316999999933,-5.117602300000187,0.339896899999992
-16.485797999999928,-4.195253100000188,-0.20904453333334136
-17.81027899999993,-3.2729039000001876,-0.7579859666666747
-19.134759999999932,-2.350554700000188,-1.306927400000008
-19.134759999999932,-2.350554700000188,-1.306927400000008
-14.650673999999933,-8.09848213333352,-0.14840560000000788
-10.166587999999933,-13.846409566666852,1.0101161999999921
-5.682501999999933,-19.594337000000184,2.168637999999992
-5.682501999999933,-19.594337000000184,2.1686379999999925
1.0196903333334004,-19.594337000000184,2.334596999999993
7.721882666666733,-19.594337000000184,2.500555999999993
14.424075000000066,-19.594337000000184,2.6665149999999933
15.981536666666733,-18.474113666666852,0.0845753333333265
17.538998333333396,-17.35389033333352,-2.4973643333333406
19.09646000000006,-16.233667000000185,-5.079304000000008
19.096460000000057,-16.233667000000185,-5.079304000000008
19.096460000000057,-16.233667000000185,-5.079304000000008
17.794320333333392,-8.47827313333352,-7.425071666666675
16.492180666666723,-0.7228792666668534,-9.770839333333342
15.190041000000058,7.032514599999813,-12.116607000000009
14.050668000000057,11.222980399999813,-11.23893900000001
12.911295000000054,15.413446199999813,-10.36127100000001
11.771922000000053,19.603911999999813,-9.48360300000001
11.771922000000052,19.603911999999813,-9.48360300000001
11.771922000000052,19.603911999999813,-9.48360300000001
14.344287000000051,10.868721566666478,-5.641012433333342
16.916652000000052,2.1335311333331433,-1.798421866666675
19.48901700000005,-6.601659300000191,2.0441686999999917
19.48901700000005,-6.601659300000191,2.0441686999999917
18.573051333333385,-10.932551866666858,5.669735466666658
17.65708566666672,-15.263444433333525,9.295302233333326
16.741120000000056,-19.59433700000019,12.92086899999999
9.866585266666723,-16.354944333333524,8.197419299999991
2.9920505333333884,-13.11555166666686,3.4739695999999918
-3.8824841999999458,-9.876159000000195,-1.2494801000000078
-3.8824841999999458,-9.876159000000193,-1.2494801000000078
-3.8824841999999458,-9.876159000000193,-1.2494801000000078
-8.146355133333278,-6.9112368133335265,-2.9888586000000075
-12.410226066666612,-3.94631462666686,-4.728237100000007
-16.674096999999943,-0.9813924400001935,-6.4676156000000065
-16.674096999999943,-0.9813924400001935,-6.4676156000000065
-17.178357333333278,-5.044197293333528,-5.041006066666674
-17.682617666666605,-9.10700214666686,-3.614396533333341
-18.186877999999936,-13.169807000000192,-2.1877870000000086
-18.186877999999933,-13.169807000000192,-2.1877870000000086
-18.186877999999933,-13.169807000000192,-2.1877870000000086
-18.186877999999933,-13.169807000000192,-2.1877870000000086
-18.186877999999933,-13.169807000000192,-2.1877870000000086
-5.593139666666599,-15.084719666666858,-1.386715466666675
7.0005986666667335,-16.999632333333526,-0.5856439333333417
19.594337000000067,-18.914545000000192,0.21542759999999164
19.594337000000067,-18.91454500000019,0.21542759999999164
18.071982000000066,-14.140030500000188,-2.752685933333342
16.54962700000007,-9.365516000000188,-5.720799466666676
15.027272000000067,-4.591001500000188,-8.68891300000001
15.027272000000067,-4.591001500000188,-8.688913000000012
13.329383333333402,3.3367346666664788,-9.924031333333346
11.631494666666734,11.264470833333144,-11.159149666666679
9.933606000000067,19.192206999999808,-12.394268000000011
9.933606000000069,19.19220699999981,-12.394268000000011
12.087882333333402,16.03260166666648,-9.962329833333346
14.242158666666734,12.872996333333148,-7.53039166666668
16.396435000000068,9.713390999999815,-5.098453500000013
16.396435000000068,9.713390999999815,-5.098453500000013
16.396435000000068,9.713390999999815,-5.098453500000013
17.4624023333334,-0.05585166666685204,1.054797499999987
18.528369666666734,-9.825094333333519,7.208048499999987
19.594337000000067,-19.594337000000184,13.361299499999987
14.4464153333334,-19.026246666666854,10.06126753333332
9.298493666666733,-18.458156333333523,6.7612355666666515
4.150572000000067,-17.890066000000193,3.461203599999985
4.150572000000067,-17.890066000000193,3.4612035999999846
-2.8835386666666003,-12.872996400000195,1.9388484666666512
-9.917649333333268,-7.855926800000194,0.4164933333333177
-16.951759999999933,-2.8388572000001937,-1.1058618000000158
-16.951759999999933,-2.8388572000001937,-1.1058618000000158
-16.951759999999933,-2.8388572000001937,-1.1058618000000158
-17.7847466666666,-4.029294133333527,-1.1569261000000155
-18.617733333333266,-5.21973106666686,-1.2079904000000157
-19.45071999999993,-6.410168000000193,-1.2590547000000158
-14.605992333333262,-10.804891000000191,0.06223459999998419
-9.761264666666595,-15.19961400000019,1.3835238999999842
-4.916536999999928,-19.59433700000019,2.7048131999999843
-4.916536999999929,-19.59433700000019,2.7048131999999843
2.079275333333405,-19.59433700000019,1.7218250333333174
9.07508766666674,-19.59433700000019,0.7388368666666505
16.070900000000073,-19.59433700000019,-0.24415130000001625
16.070900000000073,-19.59433700000019,-0.24415130000001625
15.44536166666674,-17.057078666666857,-2.3601292000000167
14.819823333333405,-14.519820333333527,-4.476107100000017
14.194285000000072,-11.982562000000195,-6.592085000000018
14.194285000000072,-11.982562000000195,-6.592085000000018
13.319808666666738,-4.383552666666863,-8.401677000000017
12.445332333333404,3.2154566666664706,-10.211269000000017
11.57085600000007,10.814465999999804,-12.020861000000016
11.57085600000007,10.814465999999806,-12.020861000000016
11.510217333333403,12.764484666666476,-10.51127186666668
11.449578666666737,14.714503333333147,-9.001682733333348
11.38894000000007,16.664521999999817,-7.492093600000015
11.38894000000007,16.664521999999817,-7.492093600000015
14.124072333333404,5.98888733333315,-2.2165107333333482
16.859204666666738,-4.686747333333518,3.059072133333318
19.594337000000074,-15.362382000000187,8.334654999999985
19.594337000000078,-15.362382000000187,8.334654999999985
19.594337000000078,-15.362382000000187,8.334654999999985
16.492180000000076,-16.77303366666685,9.008065666666653
13.390023000000076,-18.183685333333518,9.68147633333332
10.287866000000076,-19.594337000000184,10.354886999999986
3.7165256666667434,-15.193231000000187,7.003790889999986
-2.8548146666665897,-10.792125000000189,3.6526947799999863
-9.426154999999923,-6.391019000000188,0.3015986699999864
-9.426154999999923,-6.391019000000188,0.3015986699999864
-12.81874066666659,-2.979284000000188,-0.8537316200000138
-16.211326333333258,0.43245099999981207,-2.0090619100000136
-19.60391199999992,3.8441859999998123,-3.164392200000014
-19.60391199999992,3.8441859999998123,-3.164392200000014
-19.60391199999992,3.8441859999998123,-3.164392200000014
-17.16239933333325,-2.0473603333335215,-3.1069448666666806
-14.720886666666585,-7.938906666666855,-3.0494975333333474
-12.279373999999917,-13.830453000000189,-2.9920502000000138
-4.977175999999916,-15.751747666666857,-0.5473458000000139
2.325022000000084,-17.673042333333523,1.897358599999986
9.627220000000085,-19.59433700000019,4.342062999999986
9.627220000000085,-19.594337000000195,4.342062999999985
9.627220000000085,-19.594337000000195,4.342062999999985
11.800645000000086,-18.640072666666864,2.5899184866666523
13.974070000000088,-17.68580833333353,0.8377739733333188
16.147495000000088,-16.7315440000002,-0.9143705400000144
16.14749500000009,-16.7315440000002,-0.9143705400000144
15.202805333333423,-9.451686666666866,-3.9143993600000146
14.258115666666754,-2.1718293333335326,-6.914428180000015
13.313426000000085,5.108027999999801,-9.914457000000015
13.313426000000085,5.108027999999801,-9.914457000000015
12.263416000000085,9.939989333333134,-10.533612000000014
11.213406000000084,14.771950666666468,-11.152767000000017
10.163396000000084,19.603911999999802,-11.771922000000018
13.307043000000085,10.380418999999803,-6.908045333333352
16.450690000000087,1.156925999999802,-2.044168666666684
19.59433700000009,-8.066567000000198,2.8197079999999826
19.594337000000092,-8.066567000000198,2.8197079999999826
18.36879350000009,-11.9091570000002,5.746331999999984
17.14325000000009,-15.7517470000002,8.672955999999983
15.917706500000088,-19.594337000000202,11.599579999999982
15.917706500000088,-19.594337000000206,11.59957999999998
10.610208573333422,-16.60707433333354,7.322942966666646
5.302710646666755,-13.619811666666871,3.0463059333333127
-0.004787279999911576,-10.632549000000205,-1.2303311000000205
-0.004787279999911575,-10.632549000000205,-1.2303311000000205
-4.048443519999911,-8.36976133333354,-3.26332940000002
-8.092099759999913,-6.106973666666875,-5.2963277000000195
-12.13575599999991,-3.8441860000002084,-7.329326000000019
-12.13575599999991,-3.8441860000002084,-7.329326000000019
-12.13575599999991,-3.8441860000002084,-7.329326000000019
-14.625141333333245,-6.451658000000208,-4.948451980000019
-17.114526666666578,-9.059130000000208,-2.5675779600000195
-19.60391199999991,-11.666602000000205,-0.18670394000001966
-14.424074899999908,-14.309180333333538,2.190978506666647
-9.244237799999908,-16.951758666666873,4.568660953333314
-4.064400699999908,-19.594337000000206,6.946343399999981
-4.064400699999908,-19.594337000000206,6.946343399999981
3.2920532000000904,-19.57199633333354,4.44100014999998
10.648507100000089,-19.549655666666876,1.9356568999999804
18.004961000000087,-19.52731500000021,-0.56968635000002
18.00496100000009,-19.52731500000021,-0.56968635000002
18.00496100000009,-19.52731500000021,-0.56968635000002
18.23155900000009,-16.045366833333542,-3.5026935666666863
18.45815700000009,-12.563418666666875,-6.435700783333353
18.68475500000009,-9.081470500000208,-9.368708000000018
16.859205333333424,0.06223499999979213,-10.881488333333351
15.03365566666676,9.205940499999793,-12.394268666666685
13.208106000000095,18.349645999999794,-13.90704900000002
13.208106000000095,18.34964599999979,-13.90704900000002
14.321946333333427,17.711341333333127,-11.711283100000019
15.435786666666758,17.07303666666646,-9.51551720000002
16.54962700000009,16.434731999999794,-7.319751300000019
16.54962700000009,16.434731999999798,-7.319751300000019
17.564530333333426,4.760151999999798,-1.2047988666666862
18.579433666666763,-6.9144280000002025,4.910153566666646
19.5943370000001,-18.589008000000202,11.02510599999998
19.5943370000001,-18.5890080000002,11.02510599999998
16.3294120000001,-18.924117666666866,9.413388433333312
13.0644870000001,-19.259227333333534,7.801670866666645
9.7995620000001,-19.594337000000202,6.189953299999978
9.7995620000001,-19.594337000000206,6.189953299999978
2.5037470000000996,-14.695353833333536,5.028239933333311
-4.7920679999999,-9.79637066666687,3.866526566666645
-12.0878829999999,-4.897387500000203,2.704813199999979
-12.0878829999999,-4.897387500000203,2.704813199999979
-14.593225999999902,-5.797396166666869,2.3537460333333122
-17.0985689999999,-6.697404833333535,2.0026788666666455
-19.603911999999905,-7.597413500000201,1.6516116999999788
-19.603911999999905,-7.597413500000201,1.6516116999999788
-15.735789666666575,-11.596388000000198,2.6633236666666456
-11.86766733333324,-15.595362500000197,3.6750356333333123
-7.999544999999905,-19.594337000000195,4.686747599999979
-7.999544999999905,-19.594337000000195,4.686747599999979
0.15798066666676083,-19.594337000000195,3.987804599999979
8.315506333333426,-19.594337000000195,3.2888615999999793
16.473032000000092,-19.594337000000195,2.5899185999999794
16.473032000000092,-19.594337000000195,2.5899185999999794
17.242188000000095,-17.44006133333353,0.08776673333331268
18.011344000000094,-15.285785666666868,-2.4143851333333544
18.780500000000092,-13.1315100000002,-4.916537000000021
18.780500000000092,-13.1315100000002,-4.916537000000021
16.73473566666676,-5.4048396666668665,-7.000599666666687
14.688971333333427,2.3218306666664668,-9.084662333333355
12.643207000000094,10.048500999999801,-11.168725000000023
12.643207000000094,10.048500999999801,-11.168725000000023
12.13894666666676,12.691079333333134,-10.460207333333356
11.634686333333425,15.333657666666467,-9.751689666666687
11.13042600000009,17.976235999999798,-9.04317200000002
11.13042600000009,17.9762359999998,-9.04317200000002
13.951729666666756,10.412333666666468,-6.004844933333352
16.77303333333342,2.8484313333331337,-2.966517866666685
19.594337000000085,-4.7154710000002,0.07180919999998163
19.594337000000085,-4.7154710000002,0.07180919999998163
19.11560933333342,-9.675093000000201,4.958026466666648
18.636881666666753,-14.6347150000002,9.844243733333313
18.158154000000085,-19.594337000000202,14.730460999999979
18.158154000000085,-19.594337000000206,14.730460999999979
10.629358000000085,-17.136867000000205,10.466590166666647
3.1005620000000853,-14.679397000000202,6.202719333333313
-4.4282339999999145,-12.221927000000202,1.93884849999998
-4.4282339999999145,-12.221927000000202,1.93884849999998
-9.48679333333325,-8.982533833333536,1.1728836666666467
-14.545352666666583,-5.743140666666869,0.4069188333333132
-19.60391199999992,-2.503747500000202,-0.3590460000000201
-19.603911999999916,-2.503747500000202,-0.3590460000000201
-17.44963633333325,-7.182515666666869,-0.44840856666668677
-15.29536066666658,-11.861283833333536,-0.5377711333333534
-13.141084999999912,-16.540052000000202,-0.6271337000000201
-13.14108499999991,-16.540052000000202,-0.62713370000002
-6.1580386666665765,-17.5581470000002,1.4728865333333132
0.8250076666667567,-18.576242000000196,3.5729067666666463
7.80805400000009,-19.594337000000195,5.67292699999998
11.73681500000009,-19.40603733333353,4.19844469999998
15.665576000000092,-19.217737666666864,2.72396239999998
19.594337000000092,-19.029438000000198,1.24948009999998
19.594337000000092,-19.029438000000198,1.24948009999998
18.652838666666756,-13.88470783333353,-2.19097860000002
17.711340333333425,-8.739977666666865,-5.63143730000002
16.769842000000093,-3.595247500000198,-9.071896000000022
16.769842000000093,-3.595247500000198,-9.071896000000022
14.69854566666676,4.137805666666469,-10.86233900000002
12.62724933333343,11.870858833333136,-12.652782000000018
10.555953000000097,19.603911999999802,-14.443225000000018
10.555953000000095,19.603911999999802,-14.443225000000018
12.742144333333428,15.920897999999802,-11.229364000000018
14.92833566666676,12.237883999999802,-8.015503000000018
17.11452700000009,8.554869999999802,-4.80164200000002
17.11452700000009,8.554869999999802,-4.801642000000019
17.11452700000009,8.554869999999802,-4.801642000000019
17.941130333333422,-0.8281990000001974,2.175020999999982
18.767733666666757,-10.211268000000198,9.151683999999983
19.594337000000092,-19.5943370000002,16.128346999999984
13.533640566666756,-18.6273070000002,11.966604766666649
7.472944133333424,-17.660277000000203,7.804862533333314
1.4122477000000906,-16.693247000000202,3.6431202999999805
1.4122477000000906,-16.693247000000202,3.6431202999999805
1.4122477000000906,-16.693247000000202,3.6431202999999805
-4.016528199999909,-11.886817400000204,2.4558747883333143
-9.445304099999909,-7.080387800000206,1.2686292766666474
-14.874079999999909,-2.273958200000205,0.08138376499998075
-14.874079999999909,-2.2739582000002048,0.08138376499998075
-16.24962499999991,-3.078221333333539,-0.7611775900000192
-17.62516999999991,-3.8824844666668725,-1.6037389450000192
-19.000714999999907,-4.686747600000206,-2.446300300000019
-13.169807733333242,-9.655944066666873,-0.34308850000001917
-7.338900466666575,-14.625140533333541,1.7601232999999807
-1.507993199999909,-19.594337000000206,3.8633350999999805
-1.507993199999909,-19.594337000000206,3.8633350999999805
-1.507993199999909,-19.594337000000206,3.8633350999999805
5.465478533333425,-19.594337000000206,3.60163039999998
12.438950266666758,-19.594337000000206,3.3399256999999793
19.41242200000009,-19.594337000000206,3.0782209999999792
19.412422000000095,-19.594337000000206,3.0782209999999792
19.13475966666676,-17.53261533333354,0.5154303333333123
18.857097333333424,-15.470893666666873,-2.0473603333333545
18.579435000000093,-13.409172000000206,-4.6101510000000205
17.75283100000009,-5.002707666666874,-7.7569900000000205
16.926227000000093,3.40375666666646,-10.903829000000021
16.09962300000009,11.810220999999792,-14.050668000000021
16.099623000000086,11.810220999999792,-14.050668000000021
14.918760666666754,14.264499999999794,-12.857039333333354
13.73789833333342,16.718778999999795,-11.663410666666687
12.557036000000089,19.173057999999795,-10.469782000000022
12.55703600000009,19.173057999999795,-10.469782000000022
12.55703600000009,19.173057999999795,-10.469782000000022
14.902803000000091,8.130397999999795,-4.8048336666666875
17.24857000000009,-2.9122620000002057,0.8601146666666452
19.594337000000092,-13.954922000000204,6.525062999999978
19.594337000000092,-13.954922000000204,6.525062999999978
17.507083333333426,-15.834727000000205,9.158066999999978
15.419829666666763,-17.714532000000204,11.79107099999998
13.332576000000097,-19.594337000000206,14.42407499999998
6.343146666666765,-15.474084866666871,9.726157443333314
-0.6462826666665679,-11.353832733333538,5.028239886666648
-7.635711999999901,-7.233580600000203,0.3303223299999806
-7.635711999999901,-7.233580600000203,0.3303223299999806
-7.635711999999901,-7.233580600000203,0.3303223299999806
-11.596388666666568,-5.30271086666687,-0.7739436133333527
-15.557065333333234,-3.371841133333536,-1.878209556666686
-19.5177419999999,-1.440971400000203,-2.982475500000019
-19.5177419999999,-1.440971400000203,-2.982475500000019
-18.084749333333235,-6.403784933333537,-1.4696949666666856
-16.65175666666657,-11.36659846666687,0.04308556666664787
-15.218763999999908,-16.3294120000002,1.5558660999999814
-7.827203233333241,-17.417720333333538,2.8580063999999816
-0.43564246666657347,-18.50602866666687,4.160146699999982
6.955918300000094,-19.594337000000206,5.462286999999982
6.955918300000094,-19.59433700000021,5.462286999999982
6.955918300000094,-19.59433700000021,5.462286999999982
11.168724533333426,-19.00709766666688,3.3048192999999824
15.381530766666758,-18.419858333333547,1.1473515999999826
19.594337000000092,-17.83261900000021,-1.0101161000000174
19.594337000000095,-17.83261900000021,-1.0101161000000174
18.66560533333343,-11.277236566666877,-4.57185273333335
17.736873666666767,-4.721854133333543,-8.133589366666683
16.808142000000103,1.8335282999997908,-11.695326000000017
16.808142000000103,1.8335282999997908,-11.695326000000017
14.602801333333437,7.756989533333125,-11.797454666666683
12.397460666666769,13.680450766666459,-11.899583333333348
10.192120000000104,19.60391199999979,-12.001712000000014
10.192120000000104,19.60391199999979,-12.001712000000014
13.179382666666768,14.302797233333125,-9.815520533333348
16.166645333333435,9.001682466666459,-7.629329066666682
19.1539080000001,3.7005676999997923,-5.443137600000017
19.1539080000001,3.7005676999997923,-5.443137600000017
19.300717666666767,-4.064400533333541,1.734591599999984
19.44752733333343,-11.829368766666875,8.912320799999984
19.594337000000095,-19.594337000000206,16.090049999999987
19.594337000000095,-19.59433700000021,16.090049999999987
14.864504500000095,-18.64326466666688,12.333630399999985
10.134672000000096,-17.692192333333548,8.577210799999985
5.404839500000095,-16.741120000000212,4.820791199999984
5.404839500000094,-16.741120000000212,4.8207911999999835
-2.0633176666665736,-12.215544066666878,3.039922933333317
-9.531474833333242,-7.689968133333544,1.2590546666666504
-16.99963199999991,-3.16439220000021,-0.5218136000000163
-16.999631999999906,-3.16439220000021,-0.5218136000000163
-17.4528279999999,-6.330380133333544,-0.4547916533333496
-17.906023999999903,-9.496368066666877,-0.3877697066666829
-18.359219999999905,-12.66235600000021,-0.3207477600000162
-18.359219999999905,-12.66235600000021,-0.3207477600000162
-12.311289199999905,-14.973016333333542,1.8718264933333169
-6.2633583999999045,-17.283676666666874,4.06440074666665
-0.2154275999999046,-19.594337000000206,6.256974999999983
-0.2154275999999046,-19.594337000000206,6.256974999999983
6.387827266666762,-19.501783000000206,4.996324666666649
12.991082133333428,-19.40922900000021,3.7356743333333164
19.594337000000095,-19.316675000000213,2.475023999999984
19.594337000000095,-19.316675000000213,2.475023999999984
17.10176033333343,-15.46770200000021,-1.2335226666666834
14.609183666666766,-11.61872900000021,-4.94206933333335
12.116607000000101,-7.769756000000211,-8.650616000000017
12.116607000000101,-7.769756000000211,-8.650616000000019
11.5548990000001,-0.9718180000002107,-10.409143333333352
10.9931910000001,5.82611999999979,-12.167670666666686
10.4314830000001,12.62405799999979,-13.926198000000019
10.4314830000001,12.62405799999979,-13.926198000000019
11.069787166666766,13.769813666666458,-11.91234890000002
11.708091333333433,14.915569333333126,-9.89849980000002
12.3463955000001,16.061324999999794,-7.88465070000002
12.3463955000001,16.061324999999798,-7.88465070000002
14.762376000000097,5.953780666666464,-3.4803528000000203
17.178356500000096,-4.153763666666868,0.9239450999999793
19.594337000000095,-14.2613080000002,5.328242999999979
19.594337000000095,-14.2613080000002,5.328242999999979
17.71134033333343,-16.038984333333534,7.552732666666645
15.828343666666763,-17.816660666666866,9.777222333333311
13.945347000000098,-19.5943370000002,12.001711999999976
13.945347000000098,-19.5943370000002,12.001711999999976
6.132506000000099,-15.295359666666869,7.843161089999977
-1.680334999999901,-10.996382333333537,3.684610179999977
-9.4931759999999,-6.697405000000206,-0.4739407300000232
-9.4931759999999,-6.697405000000205,-0.4739407300000232
-12.818740666666569,-5.561223833333538,-1.8111876533333566
-16.144305333333236,-4.4250426666668705,-3.1484345766666895
-19.469869999999904,-3.2888615000002037,-4.485681500000022
-19.469869999999904,-3.2888615000002037,-4.485681500000022
-17.478360999999907,-8.315505333333537,-3.5154594000000223
-15.486851999999908,-13.34214916666687,-2.545237300000022
-13.495342999999908,-18.368793000000203,-1.5750152000000217
-13.495342999999908,-18.368793000000206,-1.5750152000000217
-5.925057333333243,-18.77730766666687,-0.26968346666668847
1.6452283333334243,-19.185822333333537,1.035648266666645
9.215514000000091,-19.594337000000206,2.3409799999999783
9.215514000000091,-19.594337000000206,2.3409799999999787
9.215514000000091,-19.594337000000206,2.3409799999999787
12.67512166666676,-18.62411533333354,1.2973529133333122
16.134729333333425,-17.653893666666875,0.2537258266666454
19.594337000000092,-16.68367200000021,-0.7899012600000214
18.439007000000093,-9.295302666666876,-4.811216673333354
17.283677000000097,-1.9069333333335408,-8.832532086666689
16.1283470000001,5.4814359999997935,-12.853847500000022
16.1283470000001,5.4814359999997935,-12.853847500000022
15.129401333333433,10.179353999999792,-12.55065300000002
14.130455666666768,14.877271999999792,-12.247458500000022
13.1315100000001,19.575189999999793,-11.944264000000024
13.1315100000001,19.57518999999979,-11.944264000000024
13.1315100000001,19.57518999999979,-11.944264000000024
15.285785666666767,11.14000189999979,-8.459124066666691
17.440061333333436,2.704813799999792,-4.9739841333333565
19.594337000000102,-5.730374300000207,-1.4888442000000228
19.303909000000104,-10.351695200000206,4.128231199999977
19.01348100000011,-14.973016100000207,9.745306599999976
18.723053000000107,-19.594337000000206,15.362381999999977
18.723053000000103,-19.59433700000021,15.362381999999977
10.504888533333437,-18.282622666666878,10.689996566666645
2.286724066666771,-16.970908333333544,6.017611133333312
-5.931440399999896,-15.659194000000213,1.345225699999979
-5.931440399999896,-15.659194000000213,1.345225699999979
-5.931440399999896,-15.659194000000213,1.345225699999979
-10.431483599999895,-12.432567000000212,2.152680333333312
-14.931526799999896,-9.205940000000211,2.9601349666666454
-19.431569999999894,-5.979313000000211,3.7675895999999782
-17.258144999999892,-9.857010000000214,3.620779599999979
-15.084719999999892,-13.734707000000215,3.473969599999979
-12.911294999999894,-17.612404000000218,3.327159599999979
-12.911294999999894,-17.61240400000022,3.327159599999979
-6.99421666666656,-18.273048333333552,4.79845039999998
-1.0771383333332267,-18.933692666666886,6.26974119999998
4.839940000000107,-19.59433700000022,7.74103199999998
4.839940000000107,-19.59433700000022,7.74103199999998
4.839940000000107,-19.59433700000022,7.74103199999998
9.75807233333344,-19.492208666666887,4.642065966666647
14.676204666666772,-19.390080333333557,1.5430999333333135
19.594337000000106,-19.287952000000228,-1.5558661000000205
19.594337000000106,-19.287952000000228,-1.5558661000000205
18.716669333333442,-14.94748453333356,-4.90696240000002
17.839001666666775,-10.607017066666893,-8.258058700000019
16.961334000000107,-6.266549600000226,-11.609155000000017
15.004932333333441,2.2548092666664403,-13.035764333333349
13.048530666666773,10.776168133333107,-14.46237366666668
11.092129000000106,19.29752699999977,-15.888983000000012
11.092129000000106,19.29752699999977,-15.888983000000012
11.092129000000106,19.29752699999977,-15.888983000000012
13.077254000000105,16.948567999999767,-12.853847333333347
15.062379000000107,14.599608999999768,-9.81871166666668
17.047504000000107,12.250649999999771,-6.783576000000013
17.047504000000107,12.250649999999771,-6.783576000000013
17.89644833333344,1.635654333333104,0.5409629999999869
18.74539266666677,-8.979341333333563,7.865501999999988
19.5943370000001,-19.59433700000023,15.190040999999987
14.152795466666769,-18.853904666666896,12.333630199999986
8.711253933333436,-18.113472333333565,9.477219399999983
3.269712400000104,-17.373040000000234,6.620808599999982
3.269712400000104,-17.373040000000234,6.620808599999982
3.269712400000104,-17.373040000000234,6.620808599999982
-3.1005617333332296,-11.877242266666903,4.37397839666665
-9.470835866666564,-6.38144453333357,2.1271481933333174
-15.841109999999896,-0.8856468000002368,-0.1196820100000154
-16.5719679999999,-2.29629863333357,-0.2920240933333487
-17.3028259999999,-3.7069504666669033,-0.46436617666668206
-18.033683999999905,-5.117602300000237,-0.6367082600000155
-18.033683999999905,-5.117602300000237,-0.6367082600000155
-14.200668499999907,-9.94318053333357,1.1377770266666511
-10.367652999999907,-14.7687587666669,2.912262313333318
-6.534637499999907,-19.594337000000234,4.686747599999985
-6.534637499999907,-19.594337000000234,4.686747599999985
-6.534637499999907,-19.594337000000234,4.686747599999985
-0.43883399999990785,-19.594337000000234,4.977175899999985
5.656969500000091,-19.594337000000234,5.267604199999984
11.752773000000092,-19.594337000000234,5.558032499999984
14.36662766666676,-18.6847546666669,3.106944999999984
16.98048233333343,-17.77517233333357,0.6558574999999841
19.5943370000001,-16.865590000000235,-1.795230000000016
19.5943370000001,-16.865590000000235,-1.795230000000016
19.204971333333436,-9.298495000000234,-5.637820333333349
18.815605666666773,-1.731400000000234,-9.480410666666682
18.42624000000011,5.835694999999766,-13.323001000000014
18.426240000000114,5.835694999999766,-13.323001000000014
18.426240000000114,5.835694999999766,-13.323001000000014
16.31026266666678,10.425100666666435,-13.067679333333347
14.194285333333447,15.014506333333102,-12.812357666666683
12.078308000000114,19.603911999999767,-12.557036000000018
14.583651000000115,11.133617666666433,-8.101673866666685
17.088994000000117,2.6633233333331,-3.646311733333352
19.594337000000117,-5.806971000000234,0.8090503999999813
19.59433700000012,-5.806971000000234,0.8090503999999813
18.365602333333452,-10.4027596666669,5.175049933333315
17.136867666666785,-14.998548333333568,9.541049466666648
15.908133000000115,-19.594337000000234,13.907048999999985
15.908133000000115,-19.594337000000237,13.907048999999985
7.511243166666783,-15.770896333333573,9.89211666666665
-0.8856466666665508,-11.947455666666906,5.877184333333317
-9.282536499999884,-8.12401500000024,1.8622519999999838
-9.282536499999885,-8.124015000000242,1.8622519999999838
-9.282536499999885,-8.124015000000242,1.8622519999999838
-11.529366666666553,-5.963355733333575,0.7005386666666503
-13.776196833333218,-3.8026964666669087,-0.461174666666683
-16.023026999999885,-1.6420372000002423,-1.6228880000000163
-15.355999333333218,-6.106973800000241,-0.42606793333334947
-14.688971666666552,-10.57191040000024,0.7707521333333173
-14.021943999999884,-15.036847000000241,1.967572199999984
-14.021943999999884,-15.036847000000241,1.967572199999984
-14.021943999999884,-15.036847000000241,1.967572199999984
-7.967630199999886,-16.55601033333357,4.166529799999984
-1.9133163999998863,-18.075173666666906,6.365487399999984
4.1409974000001135,-19.59433700000024,8.564444999999983
4.1409974000001135,-19.59433700000024,8.564444999999985
9.174024933333447,-19.425186333333574,7.099536999999985
14.20705246666678,-19.256035666666907,5.634628999999985
19.240080000000116,-19.08688500000024,4.169720999999985
17.823045000000114,-14.401733900000243,-0.08457533333334795
16.406010000000116,-9.716582800000243,-4.33887166666668
14.988975000000117,-5.031431700000244,-8.593168000000013
14.988975000000119,-5.031431700000244,-8.593168000000013
14.408118333333453,3.081412199999756,-11.743198333333346
13.827261666666786,11.194256099999755,-14.89322866666668
13.246405000000118,19.307099999999753,-18.043259000000013
13.246405000000118,19.307099999999753,-18.043259000000013
13.246405000000118,19.307099999999753,-18.043259000000013
14.92833600000012,15.426211999999753,-15.13259266666668
16.61026700000012,11.545323999999754,-12.221926333333345
18.292198000000123,7.664435999999756,-9.311260000000011
18.29219800000012,7.664435999999756,-9.31126000000001
18.71028700000012,-1.4218216666669108,-0.6686233333333433
19.12837600000012,-10.508079333333578,7.974013333333324
19.54646500000012,-19.594337000000245,16.616649999999993
13.527258066666784,-18.49645466666691,13.284702866666658
7.508051133333452,-17.39857233333358,9.952755733333325
1.4888442000001174,-16.300690000000248,6.6208085999999895
1.4888442000001174,-16.300690000000248,6.6208085999999895
1.4888442000001174,-16.300690000000248,6.6208085999999895
-5.072920866666549,-11.140001633333583,5.8165454999999895
-11.634685933333216,-5.979313266666917,5.01228239999999
-18.196450999999882,-0.8186249000002507,4.208019299999991
-18.196450999999882,-0.8186249000002507,4.20801929999999
-18.09751433333322,-2.3314054333335843,2.6154507499999906
-17.998577666666552,-3.844185966666918,1.0228821999999909
-17.89964099999989,-5.356966500000251,-0.5696863500000092
-11.72404943333322,-10.102756666666918,2.4686407666666574
-5.548457866666554,-14.848546833333586,5.506967883333324
0.6271337000001118,-19.59433700000025,8.54529499999999
0.6271337000001118,-19.59433700000025,8.54529499999999
0.6271337000001118,-19.59433700000025,8.54529499999999
5.430371466666777,-19.59433700000025,8.04741799999999
10.233609233333445,-19.59433700000025,7.54954099999999
15.03684700000011,-19.59433700000025,7.051663999999989
15.03684700000011,-19.59433700000025,7.051663999999989
15.876216666666776,-18.17411066666692,3.6941846666666565
16.71558633333344,-16.753884333333588,0.3367053333333236
17.554956000000107,-15.333658000000256,-3.02077400000001
15.866642000000104,-7.7889045333335885,-6.850598000000011
14.178328000000102,-0.24415106666692132,-10.680422000000009
12.490014000000102,7.300602399999746,-14.51024600000001
12.490014000000102,7.300602399999746,-14.51024600000001
12.490014000000102,7.300602399999746,-14.51024600000001
11.098511333333434,11.401705599999744,-13.728323666666675
9.707008666666766,15.502808799999743,-12.946401333333341
8.315506000000099,19.60391199999974,-12.164479000000007
8.315506000000099,19.603911999999745,-12.164479000000007
11.9857540000001,10.147437666666413,-8.33465483333334
15.6560020000001,0.690963333333079,-4.504830666666674
19.3262500000001,-8.765511000000254,-0.6750065000000074
19.3262500000001,-8.765511000000256,-0.6750065000000074
17.752830666666767,-12.375119666666924,2.1143819999999924
16.179411333333434,-15.984728333333587,4.903770499999992
14.6059920000001,-19.59433700000025,7.693158999999992
14.6059920000001,-19.59433700000025,7.693158999999992
8.963384333333432,-15.95919566666692,5.99207886666666
3.3207766666667653,-12.324054333333587,4.290998733333327
-2.3218309999999014,-8.688913000000253,2.5899185999999936
-2.3218309999999014,-8.688913000000255,2.5899185999999936
-6.710171333333235,-5.408030466666922,1.7569318433333272
-11.098511666666568,-2.1271479333335885,0.9239450866666604
-15.4868519999999,1.1537345999997453,0.09095832999999365
-15.4868519999999,1.1537345999997453,0.09095832999999365
-15.4198299999999,-1.721825033333588,-0.42925944666667304
-15.352807999999902,-4.597384666666922,-0.9494772233333397
-15.285785999999902,-7.472944300000255,-1.4696950000000066
-15.285785999999902,-7.472944300000255,-1.4696950000000066
-9.914457499999903,-11.513408533333587,0.3430884333333268
-4.5431289999999045,-15.55387276666692,2.15587186666666
0.8281995000000949,-19.594337000000255,3.968655299999993
0.8281995000000949,-19.594337000000255,3.968655299999993
5.286753000000096,-19.514549666666923,3.2824784666666598
9.745306500000096,-19.43476233333359,2.596301633333326
14.203860000000098,-19.354975000000255,1.910124799999993
14.203860000000098,-19.354975000000255,1.910124799999993
13.032572333333432,-15.550682566666927,-0.46436626666667363
11.861284666666764,-11.746390133333591,-2.8388573333333404
10.689997000000098,-7.942097700000257,-5.213348400000007
10.689997000000098,-7.942097700000258,-5.213348400000007
10.913403333333433,-1.233522466666925,-7.195282266666673
11.136809666666766,5.475052766666408,-9.17721613333334
11.3602160000001,12.183627999999741,-11.159150000000006
11.3602160000001,12.183627999999741,-11.159150000000006
12.199585666666765,12.908103333333074,-10.083607766666672
13.038955333333432,13.63257866666641,-9.00806553333334
13.878325000000096,14.357053999999744,-7.932523300000008
13.878325000000094,14.357053999999744,-7.932523300000008
15.783662333333424,3.3271599999997448,-1.942039866666675
17.688999666666756,-7.702734000000255,4.048443566666658
19.594337000000085,-18.732628000000258,10.038926999999992
19.594337000000085,-18.732628000000254,10.038926999999992
15.908131666666753,-18.962417000000254,9.73254099999999
12.22192633333342,-19.192206000000258,9.426154999999989
8.535721000000086,-19.42199500000026,9.11976899999999
8.535721000000086,-19.421995000000255,9.11976899999999
2.7080050000000835,-14.500671333333585,6.039951996666656
-3.1197109999999175,-9.579347666666916,2.9601349933333236
-8.94742699999992,-4.658024000000247,-0.11968201000000948
-8.94742699999992,-4.658024000000247,-0.11968201000000948
-12.107031333333252,-3.627162900000247,-0.6941556400000094
-15.266635666666582,-2.596301800000247,-1.2686292700000095
-18.42623999999991,-1.5654407000002466,-1.8431029000000094
-18.426239999999915,-1.5654407000002466,-1.8431029000000094
-16.195367833333247,-6.70059713333358,-0.26649193333334265
-13.964495666666581,-11.835753566666915,1.310119033333324
-11.733623499999915,-16.97091000000025,2.8867299999999907
-11.733623499999915,-16.97091000000025,2.8867299999999907
-6.512296666666582,-17.845385666666914,3.6495033333333233
-1.2909698333332476,-18.71986133333358,4.412276666666656
3.930357000000086,-19.59433700000024,5.175049999999989
3.930357000000086,-19.59433700000024,5.175049999999989
7.437837666666752,-19.291143000000243,3.9782298999999894
10.945318333333418,-18.987949000000242,2.7814097999999894
14.452799000000084,-18.68475500000024,1.5845896999999896
14.452799000000084,-18.68475500000024,1.584589699999989
14.334712666666752,-12.655973333333577,-1.294161533333344
14.216626333333418,-6.627191666666911,-4.172912766666678
14.098540000000085,-0.5984100000002451,-7.05166400000001
14.098540000000085,-0.5984100000002451,-7.05166400000001
14.098540000000085,-0.5984100000002451,-7.05166400000001
14.162370333333419,6.135697333333089,-9.346367000000011
14.22620066666675,12.869804666666424,-11.641070000000012
14.290031000000084,19.603911999999756,-13.93577300000001
15.981536666666754,11.816602999999757,-10.393185533333344
17.673042333333424,4.029293999999756,-6.85059806666668
19.364548000000088,-3.758015000000244,-3.308010600000013
19.36454800000009,-3.758015000000244,-3.308010600000013
18.837947333333425,-9.036789000000244,3.4356712666666542
18.311346666666758,-14.315563000000244,10.17935313333332
17.78474600000009,-19.59433700000024,16.923034999999988
17.784746000000094,-19.59433700000024,16.923034999999988
17.784746000000094,-19.59433700000024,16.923034999999988
10.78893386666676,-18.31453766666691,12.515545899999987
