accx,accy,accz
-1.6516117,3.3654580000000003,8.526146
-1.6516117,3.3654580000000003,8.526146
-1.6165049666666667,3.387798633333334,8.538912333333334
-1.5813982333333332,3.410139266666667,8.551678666666666
-1.5462915,3.4324799000000006,8.564445000000001
-1.5462915,3.4324799000000006,8.564445
-1.5718236666666663,3.3814155666666665,8.564445
-1.5973558333333326,3.330351233333333,8.564445
-1.622887999999999,3.279286899999999,8.564445
-1.603738899999999,3.2633292666666662,8.503805666666667
-1.5845897999999992,3.2473716333333336,8.443166333333336
-1.5654406999999992,3.231414000000001,8.382527000000003
-1.5654406999999992,3.231414000000001,8.382527000000005
-1.5654406999999992,3.231414000000001,8.382527000000005
-1.581398266666666,3.209073400000001,8.411250833333337
-1.5973558333333326,3.1867328000000015,8.43997466666667
-1.6133133999999993,3.1643922000000018,8.468698500000004
-1.686718366666666,3.1484346333333346,8.56125266666667
-1.7601233333333328,3.1324770666666684,8.653806833333336
-1.8335282999999996,3.116519500000002,8.746361000000002
-1.8335282999999996,3.1165195000000026,8.746361000000002
-1.8175706999999994,3.1069449000000033,8.589976333333338
-1.8016130999999993,3.0973703000000037,8.43359166666667
-1.7856554999999992,3.0877957000000045,8.277207000000002
-1.7856554999999992,3.0877957000000045,8.277207
-1.6420370999999994,2.784601266666671,7.709116533333334
-1.4984186999999993,2.4814068333333372,7.141026066666668
-1.3548002999999993,2.178212400000004,6.572935600000001
-1.3548002999999993,2.1782124000000045,6.572935600000001
-1.539908466666666,1.7665063333333375,6.719745633333335
-1.7250166333333328,1.3548002666666707,6.866555666666668
-1.9101247999999995,0.943094200000004,7.013365700000001
-1.9101247999999995,0.943094200000004,7.013365700000001
-2.012253466666666,1.195224300000004,6.799533800000002
-2.114382133333333,1.4473544000000038,6.585701900000001
-2.2165107999999996,1.6994845000000038,6.371870000000001
-2.2165107999999996,1.6994845000000034,6.371870000000001
-2.7782183666666658,1.0867126266666702,6.496339333333334
-3.339925933333333,0.47394075333333685,6.620808666666666
-3.9016334999999995,-0.13883111999999653,6.745277999999999
-3.9016335000000004,-0.13883111999999653,6.745277999999999
-4.4346173333333345,-0.16436327999999653,7.064429999999999
-4.967601166666668,-0.18989543999999656,7.383582
-5.500585000000002,-0.21542759999999658,7.7027339999999995
-6.288890466666669,-1.25905473333333,7.185707666666666
-7.077195933333336,-2.3026818666666635,6.668681333333332
-7.865501400000002,-3.3463089999999966,6.151654999999998
-7.865501400000002,-3.3463089999999966,6.151654999999998
-7.769755833333335,-3.6973761333333304,5.427179933333332
-7.674010266666667,-4.048443266666664,4.702704866666666
-7.578264700000001,-4.399510399999998,3.9782297999999994
-7.578264700000001,-4.399510399999998,3.9782297999999994
-7.578264700000001,-4.399510399999998,3.9782297999999994
-8.235717800000002,-4.054826266666665,3.5888643666666664
-8.893170900000001,-3.7101421333333313,3.199498933333334
-9.550624000000001,-3.365457999999998,2.810133500000001
-10.485739333333335,-3.7931216666666643,2.143105800000001
-11.420854666666669,-4.220785333333331,1.4760781000000012
-12.355970000000001,-4.648448999999997,0.8090504000000012
-12.355970000000001,-4.648448999999997,0.8090504000000012
-12.355970000000001,-4.648448999999997,0.8090504000000012
-12.276182333333336,-5.181432933333331,0.34947148333333455
-12.19639466666667,-5.714416866666665,-0.1101074333333321
-12.116607000000004,-6.2474007999999985,-0.5696863499999988
-12.116607000000004,-6.2474007999999985,-0.5696863499999988
-11.513409333333337,-5.3920733333333315,-0.1994700199999988
-10.91021166666667,-4.536745866666664,0.1707463100000012
-10.307014000000004,-3.681418399999996,0.5409626400000013
-10.01020266666667,-3.333542733333329,0.3622375200000012
-9.713391333333336,-2.9856670666666623,0.18351240000000116
-9.416580000000003,-2.6377913999999953,0.004787280000001133
-9.416580000000005,-2.6377913999999953,0.004787280000001133
-9.317643000000006,-2.6058761999999955,-0.08776680666666553
-9.218706000000006,-2.5739609999999957,-0.18032089333333215
-9.119769000000007,-2.5420457999999964,-0.2728749799999988
-9.119769000000007,-2.5420457999999964,-0.2728749799999988
-9.228280666666675,-2.3377885333333293,-0.25691737666666553
-9.336792333333342,-2.133531266666662,-0.24095977333333218
-9.445304000000009,-1.9292739999999953,-0.22500216999999886
-9.445304000000009,-1.9292739999999953,-0.22500216999999886
-9.419772000000009,-1.9611891999999955,-0.17393784666666554
-9.394240000000009,-1.9931043999999958,-0.1228735233333322
-9.368708000000007,-2.0250195999999963,-0.07180919999999887
-9.368708000000007,-2.0250195999999963,-0.07180919999999887
-9.247430000000008,-2.168637966666663,-0.1707463233333322
-9.12615200000001,-2.31225633333333,-0.2696834466666655
-9.00487400000001,-2.4558746999999967,-0.36862056999999887
-9.00487400000001,-2.4558746999999967,-0.36862056999999887
-9.148492333333342,-2.1558718333333293,-0.2601088876666655
-9.292110666666673,-1.8558689666666623,-0.15159720533333218
-9.435729000000004,-1.5558660999999958,-0.04308552299999887
-9.435729000000004,-1.5558660999999958,-0.04308552299999887
-9.43892066666667,-1.5399084666666623,-0.04308552299999887
-9.442112333333336,-1.5239508333333287,-0.04308552299999887
-9.445304000000002,-1.5079931999999951,-0.04308552299999887
-9.458070333333334,-1.5207592999999953,-0.10053288199999887
-9.470836666666669,-1.5335253999999956,-0.15798024099999886
-9.483603000000002,-1.546291499999996,-0.21542759999999883
-9.483603000000002,-1.546291499999996,-0.21542759999999883
-9.483603000000002,-1.546291499999996,-0.21542759999999883
-9.410198000000001,-1.5367169666666622,-0.20904455999999882
-9.336793,-1.5271424333333286,-0.20266151999999882
-9.263387999999999,-1.5175678999999949,-0.1962784799999988
-9.263387999999999,-1.5175678999999949,-0.1962784799999988
-9.304877499999998,-1.568632199999995,-0.1739378399999988
-9.346366999999999,-1.6196964999999952,-0.15159719999999877
-9.387856499999998,-1.6707607999999954,-0.12925655999999874
-9.387856499999998,-1.6707607999999954,-0.12925655999999874
-9.429346333333333,-1.7696979333333287,-0.2154276066666654
-9.470836166666667,-1.868635066666662,-0.30159865333333213
-9.512326000000002,-1.9675721999999956,-0.38776969999999883
-9.512326000000002,-1.9675721999999956,-0.38776969999999883
-9.422963333333334,-1.919699366666662,-0.35585449999999885
-9.333600666666664,-1.8718265333333284,-0.3239392999999989
-9.244237999999996,-1.823953699999995,-0.29202409999999895
-9.272961666666664,-1.760123299999995,-0.1867039326666656
-9.30168533333333,-1.696292899999995,-0.08138376533333225
-9.330408999999998,-1.6324624999999953,0.02393640200000109
-9.330408999999998,-1.6324624999999953,0.02393640200000109
-9.397431,-1.6292709999999955,-0.004787279999998916
-9.464452999999997,-1.6260794999999957,-0.033510961999998916
-9.531474999999997,-1.622887999999996,-0.06223464399999892
-9.531474999999995,-1.6228879999999961,-0.06223464399999892
-9.483602166666662,-1.702675999999996,-0.14840568266666557
-9.435729333333327,-1.7824639999999963,-0.23457672133333227
-9.387856499999993,-1.8622519999999962,-0.32074775999999894
-9.387856499999993,-1.8622519999999962,-0.320747759999999
-9.378281999999993,-1.7952300666666632,-0.2537258433333323
-9.368707499999994,-1.72820813333333,-0.1867039266666657
-9.359132999999995,-1.6611861999999968,-0.11968200999999902
-9.359132999999995,-1.6611861999999968,-0.11968200999999902
-9.381473666666663,-1.6548031999999966,-0.11010744999999904
-9.40381433333333,-1.6484201999999966,-0.10053288999999903
-9.426154999999996,-1.6420371999999963,-0.09095832999999902
-9.426154999999996,-1.6420371999999963,-0.09095832999999902
-9.39743133333333,-1.6165050333333297,-0.10372440666666567
-9.368707666666664,-1.590972866666663,-0.11649048333333234
-9.339983999999996,-1.5654406999999964,-0.129256559999999
-9.339983999999996,-1.5654406999999964,-0.129256559999999
-9.365515999999994,-1.5431000333333298,-0.119681999999999
-9.391047999999993,-1.5207593666666632,-0.11010743999999899
-9.41657999999999,-1.4984186999999967,-0.10053287999999898
-9.413388333333325,-1.51756783333333,-0.06861767999999897
-9.410196666666659,-1.5367169666666634,-0.036702479999998976
-9.407004999999993,-1.5558660999999967,-0.004787279999998978
-9.407004999999993,-1.5558660999999967,-0.004787279999998977
-9.407004999999993,-1.5558660999999967,-0.004787279999998977
-9.39743066666666,-1.54948303333333,0.0015957603333343559
-9.387856333333326,-1.5430999666666632,0.00797880066666769
-9.378281999999993,-1.5367168999999965,0.014361841000001022
-9.378281999999993,-1.5207593333333298,0.014361841000001022
-9.378281999999993,-1.504801766666663,0.014361841000001022
-9.378281999999993,-1.4888441999999964,0.014361841000001022
-9.378281999999993,-1.4888441999999964,0.014361841000001022
-9.35274966666666,-1.4984187666666628,0.0047872803333343554
-9.327217333333328,-1.5079933333333295,-0.004787280333332311
-9.301684999999994,-1.517567899999996,-0.014361840999998978
-9.301684999999994,-1.517567899999996,-0.014361840999998978
-9.336791666666661,-1.5303339666666629,-0.0015957599999989781
-9.371898333333327,-1.5431000333333298,0.011170321000001022
-9.407004999999993,-1.5558660999999967,0.023936402000001022
-9.407004999999993,-1.5558660999999967,0.023936402000001022
-9.40381366666666,-1.5399084666666631,0.03031944233333436
-9.400622333333326,-1.5239508333333296,0.036702482666667695
-9.397430999999992,-1.507993199999996,0.04308552300000102
-9.397430999999992,-1.507993199999996,0.043085523000001014
-9.403813999999992,-1.4920355999999961,0.06861768533333434
-9.410196999999991,-1.4760779999999964,0.09414984766666767
-9.41657999999999,-1.4601203999999965,0.119682010000001
-9.41657999999999,-1.4601203999999965,0.119682010000001
-9.407005499999991,-1.4441628333333298,0.11329896666666767
-9.397430999999992,-1.4282052666666631,0.10691592333333433
-9.387856499999993,-1.4122476999999964,0.10053288000000099
-9.387856499999993,-1.4122476999999964,0.10053288000000099
-9.38147366666666,-1.4633120333333298,0.113298960000001
-9.375090833333326,-1.514376366666663,0.12606504000000102
-9.368707999999993,-1.5654406999999964,0.13883112000000103
-9.33998416666666,-1.55905763333333,0.12925656133333438
-9.311260333333328,-1.5526745666666635,0.11968200266666769
-9.282536499999994,-1.546291499999997,0.11010744400000101
-9.282536499999994,-1.546291499999997,0.11010744400000101
-9.35274966666666,-1.5175677999999972,0.103724406000001
-9.422962833333328,-1.4888440999999972,0.09734136800000102
-9.493175999999993,-1.4601203999999974,0.09095833000000103
-9.493175999999993,-1.4601203999999974,0.09095833000000104
-9.445303333333328,-1.466503466666664,0.10053289000000105
-9.397430666666663,-1.472886533333331,0.11010745000000106
-9.349557999999996,-1.4792695999999976,0.11968201000000107
-9.349557999999996,-1.4792695999999976,0.11968201000000107
-9.38147333333333,-1.5399084666666643,0.09734136666666775
-9.413388666666663,-1.600547333333331,0.07500072333333441
-9.445303999999995,-1.6611861999999977,0.052660080000001074
-9.445303999999995,-1.6611861999999977,0.052660080000001074
-9.45487866666666,-1.7026759666666642,0.04308552066666774
-9.464453333333326,-1.7441657333333307,0.0335109613333344
-9.474027999999992,-1.7856554999999972,0.023936402000001068
-9.474027999999992,-1.7856554999999972,0.023936402000001068
-9.467644999999992,-1.7345911666666638,0.0398940013333344
-9.461261999999993,-1.6835268333333306,0.05585160066666773
-9.454878999999993,-1.6324624999999973,0.07180920000000106
-9.41658066666666,-1.5750151333333307,0.062234641000001055
-9.378282333333326,-1.517567766666664,0.05266008200000105
-9.339983999999994,-1.4601203999999974,0.04308552300000105
-9.339983999999994,-1.4601203999999974,0.04308552300000105
-9.34955866666666,-1.495227166666664,0.02712792200000105
-9.359133333333325,-1.5303339333333306,0.011170321000001046
-9.368707999999991,-1.5654406999999972,-0.004787279999998953
-9.368707999999991,-1.5654406999999972,-0.004787279999998952
-9.394239999999991,-1.571823699999997,-0.007978800333332287
-9.419771999999993,-1.5782066999999973,-0.011170320666665621
-9.445303999999993,-1.5845896999999975,-0.014361840999998954
-9.445303999999993,-1.5845896999999975,-0.014361840999998954
-9.445303999999993,-1.5941642666666642,-0.05266008066666563
-9.445303999999993,-1.6037388333333311,-0.0909583203333323
-9.445303999999993,-1.613313399999998,-0.129256559999999
-9.445303999999993,-1.613313399999998,-0.129256559999999
-9.407005666666661,-1.5622490666666646,-0.068617679999999
-9.368707333333326,-1.5111847333333313,-0.007978799999999009
-9.33040899999999,-1.460120399999998,0.05266008000000099
-9.33040899999999,-1.460120399999998,0.05266008000000099
-9.37828199999999,-1.4984186666666648,0.039894000333334324
-9.42615499999999,-1.5367169333333315,0.027127920666667655
-9.474027999999992,-1.5750151999999982,0.01436184100000099
-9.474027999999992,-1.5750151999999982,0.01436184100000099
-9.422963333333325,-1.571823699999998,0.017553361333334322
-9.371898666666658,-1.568632199999998,0.020744881666667655
-9.320833999999993,-1.565440699999998,0.023936402000000984
-9.362323999999994,-1.5877812999999978,0.004787281333334319
-9.403813999999995,-1.6101218999999978,-0.014361839333332347
-9.445303999999995,-1.632462499999998,-0.033510959999999014
-9.445303999999995,-1.632462499999998,-0.03351095999999901
-9.445303999999995,-1.632462499999998,-0.03351095999999901
-9.419771999999995,-1.6292709999999977,-0.017553359666665675
-9.394239999999995,-1.626079499999998,-0.0015957593333323407
-9.368707999999993,-1.622887999999998,0.014361841000000992
-9.39743166666666,-1.5909727999999983,-0.011170320666665678
-9.426155333333327,-1.559057599999998,-0.03670248233333235
-9.454878999999993,-1.5271423999999978,-0.06223464399999903
-9.454878999999993,-1.5271423999999978,-0.06223464399999903
-9.451687333333327,-1.5048017333333312,-0.06223464399999903
-9.44849566666666,-1.4824610666666647,-0.06223464399999903
-9.445303999999995,-1.460120399999998,-0.06223464399999903
-9.445303999999995,-1.460120399999998,-0.06223464399999903
-9.371898999999997,-1.4473543333333314,-0.055851603666665695
-9.298493999999998,-1.4345882666666647,-0.04946856333333236
-9.225088999999999,-1.4218221999999983,-0.043085522999999036
-9.225089,-1.4218221999999983,-0.043085522999999036
-9.288919333333334,-1.4696950333333314,-0.0239364016666657
-9.352749666666666,-1.5175678666666645,-0.004787280333332367
-9.41658,-1.565440699999998,0.014361841000000966
-9.41658,-1.565440699999998,0.014361841000000966
-9.451686666666665,-1.5973558666666647,0.014361841000000966
-9.486793333333333,-1.6292710333333316,0.014361841000000966
-9.521899999999999,-1.6611861999999984,0.014361841000000966
-9.521899999999997,-1.6611861999999984,0.014361841000000966
-9.489984999999997,-1.6101218666666648,-0.004787280333332367
-9.458069999999998,-1.5590575333333312,-0.0239364016666657
-9.426154999999996,-1.5079931999999976,-0.043085522999999036
-9.426154999999996,-1.5079931999999976,-0.043085522999999036
-9.413388833333329,-1.4920355999999977,-0.0239364016666657
-9.400622666666662,-1.4760779999999978,-0.004787280333332367
-9.387856499999993,-1.460120399999998,0.014361841000000966
-9.416580333333329,-1.4824610666666647,0.014361841000000966
-9.445304166666665,-1.5048017333333312,0.014361841000000966
-9.474027999999999,-1.5271423999999978,0.014361841000000966
-9.474028,-1.5271423999999978,0.014361841000000966
-9.458070333333334,-1.5175678333333311,-0.0207448826666657
-9.442112666666665,-1.5079932666666647,-0.05585160633333236
-9.426154999999998,-1.4984186999999982,-0.09095832999999903
-9.426154999999996,-1.4984186999999982,-0.09095832999999905
-9.375090666666663,-1.4984186999999982,-0.06223464666666572
-9.324026333333329,-1.4984186999999982,-0.03351096333333239
-9.272961999999994,-1.4984186999999982,-0.004787279999999052
-9.272961999999994,-1.4984186999999982,-0.004787279999999052
-9.349558333333327,-1.5111847666666647,0.03989400000000095
-9.42615466666666,-1.5239508333333314,0.08457528000000093
-9.502750999999991,-1.536716899999998,0.12925656000000094
-9.502750999999991,-1.536716899999998,0.12925656000000096
-9.502750999999991,-1.536716899999998,0.12925656000000096
-9.502750999999991,-1.5335253999999978,0.06223464000000096
-9.502750999999991,-1.5303338999999978,-0.004787279999999038
-9.502750999999991,-1.5271423999999978,-0.07180919999999903
-9.38466499999999,-1.4792695999999976,-0.0558516006666657
-9.26657899999999,-1.431396799999998,-0.03989400133333237
-9.14849299999999,-1.383523999999998,-0.023936401999999038
-9.14849299999999,-1.3835239999999984,-0.023936401999999038
-9.244238333333323,-1.4345882999999986,-0.01436184133333237
-9.339983666666656,-1.4856525999999988,-0.004787280666665706
-9.43572899999999,-1.536716899999999,0.004787280000000961
-9.43572899999999,-1.536716899999999,0.004787280000000961
-9.43572899999999,-1.536716899999999,0.004787280000000961
-9.47083599999999,-1.6005473333333322,0.004787280000000961
-9.505942999999991,-1.6643777666666655,0.004787280000000961
-9.541049999999993,-1.728208199999999,0.004787280000000961
-9.464453333333326,-1.6707608333333324,0.02712792000000096
-9.387856666666659,-1.6133134666666658,0.04946856000000096
-9.311259999999995,-1.5558660999999991,0.07180920000000096
-9.311259999999995,-1.5558660999999991,0.07180920000000096
-9.336792166666664,-1.507993299999999,0.046277040000000956
-9.36232433333333,-1.4601204999999988,0.02074488000000095
-9.387856499999996,-1.4122476999999989,-0.00478727999999905
-9.387856499999998,-1.4122476999999989,-0.004787279999999049
-9.394239333333331,-1.507993299999999,-0.04946855999999905
-9.400622166666665,-1.603738899999999,-0.09414983999999905
-9.407004999999998,-1.6994844999999994,-0.13883111999999906
-9.407004999999998,-1.6994844999999994,-0.1388311199999991
-9.400622166666665,-1.622887999999999,-0.0925540799999991
-9.394239333333331,-1.5462914999999988,-0.046277039999999096
-9.387856499999998,-1.4696949999999986,9.066821367772111e-16
-9.387856499999998,-1.4696949999999986,9.066821367772111e-16
-9.387856499999998,-1.492035633333332,0.02393640000000091
-9.387856499999998,-1.5143762666666654,0.04787280000000091
-9.387856499999998,-1.536716899999999,0.0718092000000009
-9.371898999999999,-1.5718236666666654,0.0813837600000009
-9.3559415,-1.606930433333332,0.09095832000000088
-9.339984000000001,-1.6420371999999988,0.10053288000000088
-9.339984000000001,-1.6420371999999988,0.10053288000000088
-9.339984000000001,-1.6420371999999988,0.10053288000000088
-9.346367,-1.6739523666666651,0.09414984166666755
-9.35275,-1.7058675333333317,0.08776680333333421
-9.359133,-1.7377826999999983,0.08138376500000088
-9.359133,-1.737782699999998,0.08138376500000088
-9.365516,-1.7250166333333314,0.09734136333333421
-9.371898999999999,-1.7122505666666648,0.11329896166666753
-9.378281999999999,-1.699484499999998,0.12925656000000085
-9.378281999999999,-1.699484499999998,0.12925656000000085
-9.378281999999999,-1.6899099333333314,0.13883112333333422
-9.378281999999999,-1.6803353666666645,0.14840568666666756
-9.378281999999999,-1.6707607999999976,0.15798025000000093
-9.378281999999999,-1.6707607999999976,0.15798025000000096
-9.381473499999998,-1.6516116666666643,0.13563961000000097
-9.384664999999998,-1.632462533333331,0.11329897000000098
-9.387856499999998,-1.6133133999999976,0.09095833000000099
-9.371898999999999,-1.6101218999999976,0.10372440666666767
-9.3559415,-1.6069303999999975,0.11649048333333434
-9.339984000000001,-1.6037388999999973,0.129256560000001
-9.339984000000001,-1.6037388999999973,0.129256560000001
-9.320834833333334,-1.5941643333333309,0.129256560000001
-9.301685666666666,-1.5845897666666644,0.129256560000001
-9.282536499999999,-1.5750151999999977,0.129256560000001
-9.282536499999999,-1.5750151999999977,0.129256560000001
-9.269770333333334,-1.5909727999999979,0.129256560000001
-9.257004166666668,-1.606930399999998,0.129256560000001
-9.244238000000003,-1.622887999999998,0.129256560000001
-9.244238000000005,-1.6228879999999986,0.129256560000001
-9.282536333333338,-1.6739523333333317,0.11010744000000101
-9.320834666666673,-1.725016666666665,0.09095832000000104
-9.359133000000009,-1.7760809999999985,0.07180920000000104
-9.359133000000009,-1.7760809999999985,0.07180920000000103
-9.365516000000008,-1.7792724999999983,0.0430855196666677
-9.371899000000008,-1.782463999999998,0.014361839333334367
-9.378282000000008,-1.7856554999999978,-0.014361840999998968
-9.378282000000008,-1.7856554999999978,-0.014361840999998968
-9.352749666666675,-1.7505487999999978,-0.03989400399999897
-9.327217333333342,-1.7154420999999977,-0.06542616699999898
-9.301685000000008,-1.6803353999999977,-0.09095832999999899
-9.301685000000008,-1.6803353999999977,-0.09095832999999902
-9.263386666666676,-1.689909933333331,-0.116490489999999
-9.225088333333344,-1.6994844666666644,-0.142022649999999
-9.186790000000011,-1.7090589999999979,-0.16755480999999903
-9.301685000000012,-1.7409742333333311,-0.21223609666666574
-9.41658000000001,-1.7728894666666646,-0.2569173833333324
-9.53147500000001,-1.804804699999998,-0.30159866999999907
-9.53147500000001,-1.804804699999998,-0.30159866999999907
-9.53147500000001,-1.804804699999998,-0.30159866999999907
-9.521900333333344,-1.8462944666666647,-0.33032234666666577
-9.512325666666678,-1.8877842333333312,-0.3590460233333324
-9.502751000000012,-1.9292739999999977,-0.3877696999999991
-9.324026000000014,-1.961189199999998,-0.3622375333333325
-9.145301000000014,-1.9931043999999982,-0.3367053666666658
-8.966576000000014,-2.0250195999999985,-0.31117319999999915
-8.966576000000014,-2.0250195999999985,-0.31117319999999915
-9.126152000000015,-2.050551733333332,-0.3303223233333325
-9.285728000000017,-2.076083866666665,-0.3494714466666658
-9.445304000000018,-2.101615999999998,-0.36862056999999915
-9.44530400000002,-2.101615999999998,-0.36862056999999915
-9.474027666666686,-2.1686378999999985,-0.3526629666666658
-9.502751333333352,-2.2356597999999988,-0.3367053633333324
-9.53147500000002,-2.302681699999999,-0.32074775999999905
-9.53147500000002,-2.302681699999999,-0.32074775999999905
-9.496368333333352,-2.315447799999999,-0.3047901666666657
-9.461261666666687,-2.3282138999999984,-0.28883257333333234
-9.426155000000021,-2.3409799999999983,-0.272874979999999
-9.426155000000021,-2.3409799999999983,-0.27287497999999893
-9.496368333333352,-2.315447866666665,-0.03031943999999896
-9.566581666666686,-2.289915733333332,0.21223610000000104
-9.636795000000019,-2.2643835999999986,0.454791640000001
-9.636795000000019,-2.2643835999999986,0.454791640000001
-9.659135666666685,-2.538854299999999,0.5026644266666677
-9.681476333333352,-2.8133249999999985,0.5505372133333343
-9.70381700000002,-3.087795699999998,0.598410000000001
-9.70381700000002,-3.0877956999999974,0.5984100000000011
-9.748498333333353,-3.904824799999998,0.19947000000000112
-9.793179666666688,-4.721853899999997,-0.1994699999999989
-9.837861000000023,-5.538882999999996,-0.5984099999999989
-9.630412000000023,-5.047388899999996,-0.33351383999999884
-9.422963000000022,-4.555894799999996,-0.06861767999999883
-9.215514000000024,-4.0644006999999975,0.19627848000000117
-9.215514000000026,-4.0644006999999975,0.19627848000000117
-8.644232000000025,-3.9654636666666647,-0.01755336999999882
-8.072950000000027,-3.8665266333333315,-0.23138521999999884
-7.501668000000026,-3.7675895999999987,-0.4452170699999988
-7.501668000000026,-3.7675895999999987,-0.4452170699999988
-7.501668000000026,-3.611205133333332,-0.6303252466666655
-7.501668000000026,-3.454820666666665,-0.8154334233333321
-7.501668000000026,-3.298436199999999,-1.000541599999999
-7.501668000000026,-3.298436199999999,-1.000541599999999
-8.108056666666693,-2.976092599999999,-1.083521099999999
-8.71444533333336,-2.6537489999999986,-1.166500599999999
-9.320834000000028,-2.3314053999999986,-1.2494800999999993
-9.320834000000028,-2.331405399999999,-1.2494800999999993
-9.320834000000028,-2.331405399999999,-1.2494800999999993
-10.176161666666696,-1.9133162999999993,-1.5845897333333323
-11.031489333333363,-1.4952271999999993,-1.9196993666666655
-11.88681700000003,-1.0771380999999993,-2.254808999999999
-12.955976333333366,-0.8601147166666658,-2.5228966666666657
-14.0251356666667,-0.6430913333333325,-2.7909843333333324
-15.094295000000033,-0.4260679499999991,-3.059071999999999
-15.094295000000033,-0.4260679499999991,-3.059071999999999
-13.5527906666667,-0.1643632999999991,-2.586727066666666
-12.011286333333366,0.09734135000000088,-2.114382133333333
-10.469782000000032,0.35904600000000086,-1.6420371999999996
-10.469782000000032,0.35904600000000086,-1.6420371999999996
-10.508080333333366,0.5728778666666675,-1.4792696666666663
-10.546378666666698,0.786709733333334,-1.3165021333333329
-10.58467700000003,1.0005416000000007,-1.1537345999999997
-10.58467700000003,1.0005416000000007,-1.1537345999999997
-10.243184333333366,0.47713228333333396,-1.1345854333333332
-9.901691666666698,-0.04627703333333274,-1.1154362666666664
-9.560199000000031,-0.5696863499999995,-1.0962870999999996
-9.56019900000003,-0.5696863499999995,-1.0962870999999994
-8.972959200000028,-0.9718178999999995,-0.8090503099999995
-8.385719400000026,-1.3739494499999996,-0.5218135199999995
-7.798479600000025,-1.7760809999999996,-0.23457672999999954
-7.798479600000025,-1.7760809999999996,-0.23457672999999954
-7.252729600000026,-1.7760809999999996,0.0015957566666671326
-6.706979600000025,-1.7760809999999996,0.2377682433333338
-6.161229600000024,-1.7760809999999996,0.4739407300000004
-6.442083400000025,-1.709059066666666,0.4388340100000004
-6.722937200000025,-1.6420371333333328,0.4037272900000004
-7.003791000000025,-1.5750151999999993,0.3686205700000004
-7.003791000000025,-1.5750151999999993,0.3686205700000004
-7.613371333333359,-2.012253466666666,0.509047466666667
-8.222951666666694,-2.449491733333333,0.6494743633333337
-8.832532000000027,-2.88673,0.7899012600000005
-8.832532000000027,-2.88673,0.7899012600000005
-9.646369666666693,-2.861197833333333,0.751603006666667
-10.46020733333336,-2.835665666666666,0.7133047533333335
-11.274045000000028,-2.810133499999999,0.6750065000000002
-11.274045000000028,-2.810133499999999,0.6750065000000002
-11.274045000000028,-2.810133499999999,0.6750065000000002
-12.52831233333336,-2.8165164999999988,0.3590460066666668
-13.782579666666694,-2.8228994999999983,0.04308551333333351
-15.036847000000028,-2.829282499999998,-0.2728749799999998
-14.171945333333362,-2.6888556666666648,-0.8026673199999997
-13.307043666666694,-2.548428833333331,-1.3324596599999996
-12.442142000000025,-2.408001999999998,-1.8622519999999996
-12.442142000000024,-2.408001999999998,-1.8622519999999996
-12.442142000000024,-2.0697008666666648,-2.0441686666666663
-12.442142000000024,-1.7313997333333315,-2.2260853333333332
-12.442142000000024,-1.3930985999999983,-2.4080019999999998
-12.442142000000024,-1.3930985999999983,-2.4080019999999998
-11.96979666666669,-1.453737466666665,-2.012253466666666
-11.497451333333359,-1.5143763333333318,-1.6165049333333326
-11.025106000000028,-1.5750151999999984,-1.2207563999999989
-11.025106000000028,-1.5750151999999984,-1.2207563999999989
-10.34531233333336,-1.2335225333333317,-1.373949399999999
-9.665518666666694,-0.892029866666665,-1.527142399999999
-8.985725000000029,-0.5505371999999983,-1.6803353999999988
-8.985725000000029,-0.5505371999999982,-1.6803353999999988
-8.385719200000027,-0.5186220133333315,-1.8750181333333324
-7.785713400000027,-0.48670682666666476,-2.0697008666666656
-7.185707600000026,-0.4547916399999981,-2.264383599999999
-7.185707600000026,-0.4547916399999981,-2.2643835999999986
-7.648477900000027,-0.5026644266666648,-2.1686379666666653
-8.111248200000027,-0.5505372133333315,-2.072892333333332
-8.574018500000028,-0.5984099999999982,-1.9771466999999987
-8.574018500000028,-0.5984099999999982,-1.9771466999999987
-8.966575666666692,-0.7611775333333317,-1.7728894333333318
-9.35913283333336,-0.923945066666665,-1.5686321666666647
-9.751690000000027,-1.0867125999999983,-1.3643748999999978
-10.351695666666695,-1.1250108333333315,-1.3101190333333312
-10.95170133333336,-1.1633090666666648,-1.2558631666666646
-11.551707000000027,-1.201607299999998,-1.2016072999999978
-11.551707000000027,-1.201607299999998,-1.2016072999999976
-11.838944000000026,-1.606930399999998,-0.9686263499999977
-12.126181000000026,-2.0122534999999977,-0.7356453999999978
-12.413418000000027,-2.4175765999999976,-0.5026644499999978
-12.413418000000027,-2.417576599999997,-0.5026644499999978
-12.081500000000027,-2.558003466666664,-0.2505343466666644
-11.749582000000027,-2.6984303333333304,0.001595756666668946
-11.417664000000029,-2.8388571999999965,0.2537258600000023
-11.417664000000029,-2.8388571999999965,0.2537258600000023
-11.229364000000027,-2.8228995999999973,0.014361850000002285
-11.041064000000027,-2.806941999999997,-0.22500215999999773
-10.852764000000027,-2.790984399999997,-0.46436616999999775
-10.852764000000027,-2.790984399999997,-0.46436616999999786
-9.85381833333336,-2.9729010333333306,-0.19947000333333118
-8.854872666666694,-3.154817666666664,0.06542616333333551
-7.855927000000027,-3.3367342999999976,0.33032233000000216
-7.855927000000027,-3.3367342999999976,0.3303223300000022
-7.4059225666666935,-3.266520866666664,0.2186191266666689
-6.95591813333336,-3.196307433333331,0.10691592333333559
-6.5059137000000264,-3.126093999999998,-0.004787279999997747
-6.90166213333336,-3.3048191333333308,-0.03031944166666441
-7.297410566666694,-3.483544266666664,-0.05585160333333108
-7.693159000000027,-3.6622693999999973,-0.08138376499999773
-7.693159000000027,-3.6622693999999973,-0.08138376499999773
-7.693159000000027,-3.6622693999999973,-0.08138376499999773
-8.05380083333336,-3.636737233333331,-0.011170323333331076
-8.414442666666693,-3.6112050666666646,0.05904311833333559
-8.775084500000025,-3.5856728999999983,0.12925656000000227
-9.841052333333359,-3.9335485999999977,0.08617104000000227
-10.907020166666692,-4.281424299999997,0.04308552000000227
-11.972988000000027,-4.629299999999996,2.275957200481571e-15
-11.972988000000027,-4.629299999999996,2.275957200481571e-15
-12.320863666666694,-4.578235666666662,0.19308696666666894
-12.668739333333361,-4.527171333333328,0.38617393333333566
-13.016615000000028,-4.4761069999999945,0.5792609000000023
-13.016615000000028,-4.4761069999999945,0.5792609000000023
-11.98894533333336,-4.4761069999999945,0.1994700133333357
-10.961275666666692,-4.4761069999999945,-0.180320873333331
-9.933606000000024,-4.4761069999999945,-0.5601117599999976
-9.933606000000024,-4.4761069999999945,-0.5601117599999976
-9.933606000000024,-4.4761069999999945,-0.5601117599999976
-10.629357666666692,-4.134614333333328,-0.8377740399999977
-11.325109333333359,-3.793121666666662,-1.1154363199999977
-12.020861000000025,-3.4516289999999956,-1.3930985999999976
-11.797454333333357,-2.8835383999999955,-1.1282023999999977
-11.574047666666692,-2.3154477999999954,-0.8633061999999977
-11.350641000000024,-1.747357199999995,-0.5984099999999977
-11.350641000000024,-1.747357199999995,-0.5984099999999977
-10.517654333333358,-1.5079932333333286,-0.5377711333333312
-9.684667666666693,-1.268629266666662,-0.4771322666666644
-8.851681000000026,-1.0292652999999958,-0.41649339999999774
-8.851681000000028,-1.0292652999999958,-0.41649339999999774
-8.851681000000028,-1.0292652999999958,-0.41649339999999774
-8.222951566666694,-0.9813924666666626,-0.598410033333331
-7.594222133333361,-0.9335196333333292,-0.7803266666666643
-6.965492700000027,-0.8856467999999958,-0.9622432999999976
-7.402730800000026,-0.9207535466666625,-1.1026701999999977
-7.839968900000026,-0.9558602933333292,-1.243097099999998
-8.277207000000026,-0.990967039999996,-1.383523999999998
-8.277207000000024,-0.990967039999996,-1.3835239999999984
-8.277207000000024,-0.990967039999996,-1.3835239999999984
-9.199556333333359,-0.9303281599999959,-1.6196964999999988
-10.121905666666693,-0.8696892799999958,-1.855868999999999
-11.044255000000026,-0.8090503999999957,-2.092041499999999
-11.072978666666693,-0.8058588666666625,-1.9548061333333326
-11.101702333333359,-0.8026673333333293,-1.817570766666666
-11.130426000000027,-0.7994757999999961,-1.6803353999999995
-11.130426000000027,-0.7994757999999961,-1.6803353999999995
-11.191065333333361,-1.1186278333333293,-1.4505459466666661
-11.251704666666692,-1.4377798666666628,-1.220756493333333
-11.312344000000024,-1.756931899999996,-0.9909670399999998
-11.312344000000024,-1.756931899999996,-0.9909670399999998
-11.39851466666669,-1.5909728333333295,-0.8952214166666664
-11.484685333333355,-1.4250137666666631,-0.7994757933333331
-11.57085600000002,-1.2590546999999963,-0.7037301699999997
-11.57085600000002,-1.2590546999999965,-0.7037301699999997
-11.242129666666687,-1.3260765999999966,-0.7739436266666665
-10.913403333333354,-1.3930984999999965,-0.8441570833333332
-10.58467700000002,-1.4601203999999965,-0.9143705399999998
-10.58467700000002,-1.4601203999999965,-0.9143705399999998
-9.98467100000002,-1.8335282666666632,-0.79947581
-9.38466500000002,-2.20693613333333,-0.6845810800000001
-8.784659000000019,-2.580343999999997,-0.5696863500000001
-8.653806666666688,-2.7494945666666637,-0.4228764200000001
-8.522954333333354,-2.9186451333333303,-0.27606649000000005
-8.392102000000023,-3.0877956999999974,-0.12925656000000005
-8.392102000000023,-3.0877956999999974,-0.12925656000000005
-8.60593400000002,-3.4548205999999966,0.11329895999999995
-8.81976600000002,-3.8218454999999962,0.3558544799999999
-9.03359800000002,-4.188870399999995,0.5984099999999999
-9.03359800000002,-4.188870399999995,0.5984099999999999
-9.789988333333353,-4.1122738333333295,0.3590459966666666
-10.546378666666685,-4.035677266666664,0.11968199333333325
-11.30276900000002,-3.9590806999999977,-0.11968201000000007
-11.30276900000002,-3.9590806999999977,-0.11968201000000007
-11.928306666666685,-3.955889233333331,-0.033510966666666746
-12.553844333333354,-3.9526977666666645,0.05266007666666659
-13.179382000000023,-3.9495062999999977,0.13883111999999995
-13.179382000000023,-3.9495062999999977,0.13883111999999995
-12.429374666666689,-3.7197167999999983,0.17074632333333328
-11.679367333333355,-3.489927299999998,0.20266152666666662
-10.929360000000022,-3.2601377999999976,0.23457672999999998
-10.929360000000022,-3.2601377999999976,0.23457672999999998
-10.610208333333354,-2.9505603333333306,-0.2058530466666667
-10.291056666666686,-2.640982866666664,-0.6462828233333334
-9.97190500000002,-2.3314053999999973,-1.0867126
-10.402760000000017,-1.9962957999999975,-1.2590547
-10.833615000000016,-1.6611861999999977,-1.4313968
-11.264470000000015,-1.326076599999998,-1.6037388999999997
-11.264470000000012,-1.3260765999999977,-1.6037388999999997
-11.264470000000012,-1.3260765999999977,-1.6037388999999997
-10.47616466666668,-1.1984157999999976,-1.4313968
-9.687859333333346,-1.0707549999999975,-1.2590547
-8.899554000000013,-0.9430941999999973,-1.0867126000000003
-8.392102233333345,-0.8888383533333307,-1.2526716333333336
-7.8846504666666775,-0.834582506666664,-1.418630666666667
-7.377198700000011,-0.7803266599999974,-1.5845897000000004
-7.377198700000011,-0.7803266599999974,-1.5845897000000004
-7.76975580000001,-0.7101132233333307,-1.8973587333333335
-8.16231290000001,-0.639899786666664,-2.2101277666666665
-8.55487000000001,-0.5696863499999973,-2.5228968
-8.55487000000001,-0.5696863499999973,-2.5228968
-8.55487000000001,-0.5696863499999973,-2.5228968
-9.237855333333343,-0.473940746666664,-2.4718324666666667
-9.920840666666676,-0.37819514333333065,-2.420768133333333
-10.603826000000007,-0.28244953999999733,-2.3697038
-10.603826000000007,-0.28244953999999733,-2.3697038
-11.446387333333341,-0.26649193666666404,-2.235659933333333
-12.288948666666675,-0.25053433333333075,-2.1016160666666663
-13.131510000000008,-0.23457672999999743,-1.9675721999999993
-13.105977833333341,-0.5377711533333307,-1.7728894666666657
-13.080445666666675,-0.8409655766666639,-1.5782067333333325
-13.054913500000007,-1.1441599999999972,-1.3835239999999993
-13.054913500000007,-1.144159999999997,-1.3835239999999995
-12.61129233333334,-0.8090503733333302,-1.0994786999999995
-12.167671166666674,-0.47394074666666347,-0.8154333999999995
-11.724050000000007,-0.13883111999999684,-0.5313880999999996
-11.724050000000007,-0.13883111999999684,-0.5313880999999996
-11.398514666666676,-0.40691881333333013,-0.617559153333333
-11.072979333333343,-0.6750065066666635,-0.7037302066666663
-10.74744400000001,-0.9430941999999969,-0.7899012599999997
-10.74744400000001,-0.9430941999999969,-0.7899012599999997
-9.770838800000012,-1.4665034666666636,-0.5409626809999996
-8.794233600000013,-1.9899127333333302,-0.29202410199999956
-7.817628400000014,-2.5133219999999965,-0.04308552299999957
-7.817628400000014,-2.5133219999999965,-0.04308552299999957
-7.584647500000013,-2.676089533333329,0.1164904846666671
-7.351666600000013,-2.8388570666666624,0.27606649233333375
-7.118685700000014,-3.0016245999999955,0.43564250000000043
-7.118685700000014,-3.0016245999999955,0.43564250000000043
-7.3389005666666804,-3.1420515333333285,0.5345796333333339
-7.559115433333346,-3.282478466666662,0.6335167666666673
-7.779330300000012,-3.4229053999999954,0.7324539000000007
-7.779330300000012,-3.4229053999999954,0.7324539000000007
-8.350612200000013,-3.521842533333329,0.7101132666666672
-8.921894100000012,-3.6207796666666625,0.6877726333333337
-9.493176000000012,-3.7197167999999965,0.6654320000000004
-9.493176000000012,-3.7197167999999965,0.6654320000000004
-10.492122000000014,-3.7643980333333293,0.8345825333333337
-11.491068000000014,-3.8090792666666626,1.003733066666667
-12.490014000000016,-3.853760499999996,1.1728836000000002
-12.490014000000016,-3.853760499999996,1.1728836
-12.914486333333349,-3.8250368666666623,0.73883688
-13.338958666666679,-3.796313233333329,0.30479016000000003
-13.763431000000011,-3.767589599999996,-0.12925655999999996
-13.763431000000011,-3.767589599999996,-0.12925655999999996
-13.300660333333346,-3.1260940333333296,-0.5984100066666667
-12.837889666666678,-2.484598466666663,-1.0675634533333334
-12.375119000000012,-1.8431028999999965,-1.5367169
-12.375119000000012,-1.8431028999999965,-1.5367169
-12.729378000000013,-1.6803353666666634,-1.5813982
-13.083637000000016,-1.51756783333333,-1.6260795000000001
-13.437896000000016,-1.3548002999999966,-1.6707608
-13.437896000000016,-1.3548002999999966,-1.6707608
-12.33043833333335,-1.4026730999999968,-1.5558660666666668
-11.222980666666684,-1.450545899999997,-1.4409713333333336
-10.115523000000017,-1.4984186999999969,-1.3260766000000004
-10.11552300000002,-1.4984186999999969,-1.3260766000000004
-8.918703000000018,-1.3388426666666635,-1.3548003000000002
-7.721883000000019,-1.17926663333333,-1.3835240000000002
-6.525063000000018,-1.0196905999999963,-1.4122477
-6.525063000000018,-1.0196905999999963,-1.4122477
-6.8378320000000175,-1.0069245466666634,-1.5207593666666668
-7.150601000000017,-0.99415849333333,-1.6292710333333336
-7.463370000000016,-0.9813924399999966,-1.7377827000000003
-7.463370000000016,-0.9813924399999966,-1.7377827000000003
-8.593168000000018,-0.9207535599999966,-1.865443533333334
-9.722966000000019,-0.8601146799999967,-1.9931043666666675
-10.85276400000002,-0.7994757999999967,-2.120765200000001
-10.85276400000002,-0.7994757999999967,-2.1207652000000015
-11.194256666666687,-1.1888412666666635,-1.8590605333333345
-11.535749333333355,-1.57820673333333,-1.5973558666666678
-11.877242000000022,-1.9675721999999969,-1.3356512000000011
-11.877242000000022,-1.9675721999999969,-1.3356512000000011
-11.75915600000002,-2.015444999999997,-1.140968466666668
-11.64107000000002,-2.0633177999999974,-0.9462857333333347
-11.52298400000002,-2.111190599999998,-0.7516030000000015
-11.52298400000002,-2.1111905999999983,-0.7516030000000015
-11.653836333333352,-2.085658399999998,-0.5313881100000014
-11.784688666666684,-2.060126199999998,-0.3111732200000014
-11.915541000000017,-2.034593999999998,-0.09095833000000142
-11.781497000000018,-1.7537402666666644,-0.39734425333333473
-11.64745300000002,-1.472886533333331,-0.7037301766666682
-11.513409000000022,-1.1920327999999976,-1.0101161000000016
-11.513409000000024,-1.1920327999999976,-1.0101161000000014
-11.513409000000024,-1.1920327999999976,-1.0101161000000014
-11.101703000000024,-1.702676033333331,-0.9016044333333347
-10.689997000000025,-2.213319266666664,-0.793092766666668
-10.278291000000022,-2.7239624999999976,-0.6845811000000012
-9.643178333333356,-2.9505603666666644,-0.43564251866666776
-9.00806566666669,-3.1771582333333312,-0.18670393733333443
-8.372953000000022,-3.4037560999999976,0.062234643999998895
-8.372953000000022,-3.4037560999999976,0.062234643999998895
-7.977204533333354,-3.288861399999998,0.1579802459999989
-7.581456066666687,-3.1739666999999976,0.2537258479999989
-7.185707600000019,-3.0590719999999973,0.3494714499999989
-7.185707600000019,-3.0590719999999973,0.3494714499999989
-7.658052400000019,-3.078221166666664,0.4643661766666656
-8.130397200000019,-3.0973703333333304,0.5792609033333324
-8.602742000000019,-3.116519499999997,0.6941556299999988
-8.602742000000019,-3.116519499999997,0.6941556299999988
-9.384664666666685,-2.9792840666666636,0.8122418533333322
-10.166587333333352,-2.842048633333331,0.9303280766666656
-10.948510000000018,-2.704813199999998,1.048414299999999
-10.948510000000018,-2.704813199999998,1.048414299999999
-12.691080000000019,-2.701621733333331,0.7388368699999989
-14.43365000000002,-2.6984302666666644,0.42925943999999894
-16.17622000000002,-2.695238799999998,0.11968200999999896
-16.17622000000002,-2.695238799999998,0.11968200999999896
-15.317701000000019,-2.5867271333333313,-0.27925802666666777
-14.459182000000018,-2.4782154666666645,-0.6781980633333345
-13.600663000000017,-2.3697037999999977,-1.077138100000001
-13.600663000000017,-2.3697037999999977,-1.077138100000001
-14.133647000000016,-1.8654435866666645,-1.0994787333333347
-14.666631000000015,-1.3611833733333316,-1.121819366666668
-15.199615000000014,-0.8569231599999984,-1.1441600000000014
-15.199615000000014,-0.8569231599999984,-1.1441600000000014
-13.916623666666679,-0.643091306666665,-0.8122418966666682
-12.633632333333345,-0.42925945333333165,-0.4803237933333349
-11.350641000000012,-0.2154275999999983,-0.14840569000000156
-9.45806966666668,-0.47713226666666503,-0.027127926666668217
-7.565498333333346,-0.7388369333333317,0.09414983666666511
-5.672927000000012,-1.0005415999999985,0.21542759999999847
-5.672927000000011,-1.0005415999999983,0.21542759999999847
-5.672927000000011,-1.0005415999999983,0.21542759999999847
-5.347392000000011,-0.9718179133333317,-0.0015957666666682007
-5.021857000000012,-0.943094226666665,-0.21861913333333485
-4.696322000000012,-0.9143705399999984,-0.4356425000000015
-4.696322000000012,-0.9143705399999984,-0.4356425000000015
-5.041006100000012,-0.9941585599999984,-0.4356425000000015
-5.385690200000011,-1.0739465799999983,-0.4356425000000015
-5.730374300000011,-1.1537345999999982,-0.4356425000000015
-5.730374300000011,-1.1537345999999982,-0.4356425000000015
-6.582510200000012,-1.1345854333333314,-0.46117466666666823
-7.434646100000013,-1.1154362666666646,-0.48670683333333487
-8.286782000000013,-1.0962870999999978,-0.5122390000000016
-8.286782000000011,-1.0962870999999976,-0.5122390000000014
-9.847435333333344,-1.1186277666666642,-0.8728808000000013
-11.408088666666677,-1.1409684333333308,-1.2335226000000015
-12.968742000000008,-1.1633090999999973,-1.5941644000000013
-12.968742000000008,-1.1633090999999973,-1.594164400000001
-13.227255333333341,-1.3994815666666638,-1.7984216333333343
-13.485768666666674,-1.6356540333333305,-2.0026788666666673
-13.744282000000007,-1.8718264999999972,-2.2069361000000005
-13.680451666666675,-1.9356569333333304,-1.7856554666666673
-13.616621333333342,-1.9994873666666637,-1.3643748333333339
-13.552791000000008,-2.063317799999997,-0.9430942000000005
-13.552791000000008,-2.0633177999999965,-0.9430942000000005
-13.415555666666677,-1.6803353799999965,-1.3005444666666675
-13.278320333333346,-1.2973529599999967,-1.6579947333333342
-13.141085000000013,-0.9143705399999966,-2.015445000000001
-13.141085000000013,-0.9143705399999966,-2.0154450000000015
-12.445333333333346,-1.3739494599999962,-2.1175736666666682
-11.74958166666668,-1.833528379999996,-2.2197023333333346
-11.053830000000014,-2.2931072999999955,-2.3218310000000013
-11.053830000000014,-2.2931072999999955,-2.3218310000000013
-10.016585900000015,-2.490981533333329,-1.7952301333333345
-8.979341800000014,-2.688855766666663,-1.2686292666666676
-7.942097700000015,-2.8867299999999965,-0.742028400000001
-7.942097700000015,-2.8867299999999965,-0.742028400000001
-7.147409300000014,-2.3952358999999963,-0.5026644006666676
-6.352720900000013,-1.9037417999999964,-0.26330040133333427
-5.558032500000013,-1.4122476999999964,-0.02393640200000091
-5.558032500000013,-1.4122476999999964,-0.02393640200000091
-6.00803676666668,-1.4792695999999965,-0.2345767346666676
-6.458041033333347,-1.5462914999999964,-0.44521706733333427
-6.908045300000015,-1.6133133999999965,-0.6558574000000009
-6.908045300000015,-1.6133133999999965,-0.6558574000000009
-7.412305533333346,-1.9994873666666633,-0.9175620666666676
-7.91656576666668,-2.38566133333333,-1.1792667333333344
-8.420826000000014,-2.771835299999997,-1.4409714000000011
-8.420826000000014,-2.771835299999997,-1.4409714000000011
-8.350612666666683,-2.842048699999997,-1.4409714000000011
-8.28039933333335,-2.9122620999999973,-1.4409714000000011
-8.210186000000016,-2.9824754999999974,-1.4409714000000011
-8.210186000000016,-2.9824754999999974,-1.4409714000000011
-8.810191666666684,-3.3590748999999973,-1.144160000000001
-9.41019733333335,-3.7356742999999972,-0.847348600000001
-10.010203000000017,-4.112273699999997,-0.550537200000001
-10.010203000000015,-4.112273699999997,-0.550537200000001
-11.33149233333335,-4.24312613333333,-0.225002150000001
-12.652781666666684,-4.373978566666664,0.10053289999999897
-13.974071000000018,-4.504830999999997,0.4260679499999989
-13.974071000000018,-4.504830999999997,0.4260679499999989
-12.738952666666684,-3.7899303333333307,0.579260899999999
-11.50383433333335,-3.0750296666666643,0.7324538499999992
-10.268716000000014,-2.3601289999999984,0.8856467999999991
-11.44319533333335,-2.388852766666665,0.6845810466666657
-12.617674666666682,-2.4175765333333317,0.48351529333333243
-13.792154000000016,-2.4463002999999985,0.28244953999999906
-13.792154000000016,-2.4463002999999985,0.2824495399999991
-12.927252333333348,-1.9994874666666655,0.8122418599999991
-12.06235066666668,-1.5526746333333323,1.342034179999999
-11.197449000000011,-1.1058617999999993,1.8718264999999992
-11.197449000000011,-1.1058617999999993,1.8718264999999992
-10.412335000000011,-1.0707550666666663,1.7473572333333325
-9.627221000000011,-1.035648333333333,1.622887966666666
-8.842107000000011,-1.0005415999999998,1.4984186999999993
-8.842107000000011,-1.0005416,1.4984186999999993
-8.538912433333344,-1.1282024,1.0133076409999993
-8.235717866666677,-1.2558631999999996,0.5281965819999993
-7.932523300000011,-1.3835239999999995,0.04308552299999927
-7.932523300000011,-1.3835239999999995,0.04308552299999927
-8.136780533333345,-1.3899070333333328,-0.036702478000000725
-8.341037766666679,-1.3962900666666662,-0.11649047900000074
-8.54529500000001,-1.4026730999999995,-0.19627848000000073
-8.545295000000008,-1.4026730999999995,-0.19627848000000073
-9.116577333333343,-1.5111847999999994,0.05904312999999927
-9.687859666666677,-1.6196964999999992,0.3143647399999993
-10.25914200000001,-1.7282081999999992,0.5696863499999992
-10.25914200000001,-1.7282081999999992,0.5696863499999992
-10.42510100000001,-1.259054719999999,0.1069159333333326
-10.591060000000011,-0.789901239999999,-0.3558544833333341
-10.757019000000014,-0.320747759999999,-0.8186249000000007
-11.015532000000015,-0.7260708066666656,-1.048414333333334
-11.274045000000015,-1.1313938533333323,-1.2782037666666672
-11.532558000000016,-1.536716899999999,-1.5079932000000007
-11.532558000000016,-1.536716899999999,-1.5079932000000007
-11.532558000000016,-1.536716899999999,-1.5079932000000007
-10.642124000000015,-1.9101247666666656,-1.006924560000001
-9.751690000000012,-2.283532633333332,-0.5058559200000011
-8.861256000000012,-2.6569404999999993,-0.004787280000001133
-9.761264666666678,-2.0441686333333324,-0.5154304866666678
-10.661273333333346,-1.4313967666666656,-1.0260736933333345
-11.561282000000013,-0.8186248999999988,-1.5367169000000012
-11.561282000000013,-0.8186248999999988,-1.5367169000000012
-11.302769000000014,-1.1569260333333322,-1.4250137000000012
-11.044256000000017,-1.4952271666666654,-1.3133105000000012
-10.785743000000018,-1.8335282999999991,-1.2016073000000012
-10.78574300000002,-1.8335282999999991,-1.2016073000000012
-10.163396333333354,-2.2133191999999986,-1.115436266666668
-9.541049666666689,-2.5931100999999983,-1.0292652333333345
-8.91870300000002,-2.9729009999999985,-0.9430942000000012
-8.91870300000002,-2.9729009999999985,-0.9430942000000012
-9.097428333333353,-2.9537518999999985,-1.0867126000000011
-9.276153666666685,-2.9346027999999986,-1.2303310000000012
-9.454879000000018,-2.9154536999999987,-1.373949400000001
-9.454879000000018,-2.9154536999999987,-1.373949400000001
-9.11338633333335,-2.905879133333332,-1.2335225333333344
-8.771893666666683,-2.896304566666665,-1.0930956666666676
-8.430401000000016,-2.8867299999999982,-0.9526688000000009
-8.430401000000014,-2.8867299999999982,-0.9526688000000009
-8.43997566666668,-2.7846013333333315,-0.7611775800000008
-8.449550333333345,-2.682472666666665,-0.5696863600000007
-8.45912500000001,-2.5803439999999984,-0.3781951400000006
-8.459125000000009,-2.5803439999999984,-0.3781951400000006
-9.250621666666676,-2.8228995333333313,-0.38776970000000066
-10.042118333333343,-3.0654550666666647,-0.3973442600000007
-10.83361500000001,-3.3080105999999976,-0.40691882000000074
-10.83361500000001,-3.3080105999999976,-0.40691882000000074
-11.851710000000011,-3.3941816666666647,-0.2633004126666674
-12.869805000000012,-3.4803527333333317,-0.1196820053333341
-13.88790000000001,-3.566523799999999,0.023936401999999246
-13.88790000000001,-3.566523799999999,0.023936401999999246
-14.005986333333345,-3.9016334333333322,0.00478728133333258
-14.124072666666677,-4.236743066666665,-0.014361839333334086
-14.24215900000001,-4.571852699999998,-0.03351096000000075
-14.24215900000001,-4.571852699999997,-0.03351096000000075
-13.351724666666676,-4.045251866666664,-0.43245100666666736
-12.461290333333343,-3.518651033333331,-0.8313910533333339
-11.570856000000008,-2.9920501999999978,-1.2303311000000006
-11.570856000000008,-2.9920501999999978,-1.2303311000000006
-12.075116333333343,-2.7399200666666648,-1.3930986333333337
-12.579376666666677,-2.4877899333333318,-1.555866166666667
-13.083637000000012,-2.2356597999999988,-1.7186337000000005
-13.083637000000016,-2.2356597999999988,-1.7186337000000005
-12.748527333333348,-1.8622519666666655,-1.319693666666667
-12.41341766666668,-1.4888441333333322,-0.9207536333333337
-12.078308000000012,-1.1154362999999987,-0.5218136000000003
-12.078308000000012,-1.115436299999999,-0.5218136000000003
-11.060213000000012,-1.0133076666666658,-0.5122390166666669
-10.042118000000011,-0.9111790333333323,-0.5026644333333335
-9.024023000000012,-0.8090503999999988,-0.4930898500000001
-9.024023000000012,-0.8090503999999988,-0.4930898500000001
-8.50061380000001,-0.920753599999999,-0.7930927666666668
-7.97720460000001,-1.032456799999999,-1.0930956833333336
-7.45379540000001,-1.144159999999999,-1.3930986000000003
-7.45379540000001,-1.1441599999999987,-1.3930986000000003
-7.7442236000000095,-1.1058617666666655,-1.4186307333333337
-8.03465180000001,-1.067563533333332,-1.4441628666666668
-8.32508000000001,-1.0292652999999985,-1.469695
-8.325080000000009,-1.0292652999999983,-1.469695
-8.982533333333343,-1.112244799999998,-1.5750151666666667
-9.639986666666678,-1.195224299999998,-1.6803353333333335
-10.29744000000001,-1.2782037999999978,-1.7856555
-10.29744000000001,-1.2782037999999976,-1.7856555
-10.661273333333343,-1.3516087666666643,-1.8941672000000003
-11.025106666666675,-1.425013733333331,-2.0026789000000007
-11.388940000000007,-1.4984186999999978,-2.111190600000001
-11.388940000000007,-1.4984186999999978,-2.1111906000000005
-10.954893333333343,-1.7537403333333312,-1.9675722000000004
-10.520846666666678,-2.0090619666666645,-1.8239538000000002
-10.086800000000013,-2.264383599999998,-1.6803354
-10.086800000000014,-2.264383599999998,-1.6803354
-10.763402333333346,-2.3314054999999976,-1.3739494466666669
-11.440004666666681,-2.3984273999999974,-1.0675634933333338
-12.116607000000016,-2.4654492999999973,-0.7611775400000006
-12.116607000000016,-2.4654492999999973,-0.7611775400000006
-11.864476666666683,-2.2931071999999975,-1.0356482600000005
-11.612346333333349,-2.1207650999999976,-1.3101189800000004
-11.360216000000015,-1.9484229999999976,-1.5845897000000004
-11.360216000000015,-1.9484229999999976,-1.5845897000000004
-10.648507000000016,-1.980338233333331,-1.2718207500000005
-9.936798000000017,-2.0122534666666643,-0.9590518000000006
-9.225089000000018,-2.044168699999998,-0.6462828500000005
-9.22508900000002,-2.044168699999998,-0.6462828500000005
-8.794233766666688,-2.2452344666666644,-0.5952185166666673
-8.363378533333355,-2.446300233333331,-0.544154183333334
-7.932523300000022,-2.6473659999999977,-0.49308985000000066
-7.932523300000022,-2.6473659999999977,-0.49308985000000066
-7.824011666666689,-2.733536999999998,-0.442025533333334
-7.715500033333355,-2.819707999999998,-0.39096121666666733
-7.606988400000021,-2.9058789999999983,-0.33989690000000067
-7.606988400000021,-2.9058789999999983,-0.33989690000000067
-7.606988400000021,-2.9058789999999983,-0.33989690000000067
-7.606988400000021,-2.9058789999999983,-0.33989690000000067
-7.606988400000021,-2.9058789999999983,-0.33989690000000067
-9.205939933333354,-3.4356713333333313,-0.3430884166666673
-10.804891466666689,-3.9654636666666643,-0.34627993333333396
-12.403843000000023,-4.495255999999997,-0.3494714500000006
-12.403843000000023,-4.495255999999997,-0.3494714500000006
-13.386831333333355,-4.437808666666663,-0.35585449000000063
-14.369819666666688,-4.3803613333333296,-0.36223753000000064
-15.352808000000023,-4.322913999999996,-0.36862057000000065
-15.352808000000024,-4.322913999999996,-0.36862057000000065
-14.194286000000025,-4.077166966666662,-0.35266296666666724
-13.035764000000023,-3.831419933333329,-0.3367053633333339
-11.877242000000024,-3.5856728999999965,-0.32074776000000055
-11.877242000000024,-3.5856728999999965,-0.32074776000000055
-11.749581333333355,-3.103753366666663,-0.6367082733333339
-11.62192066666669,-2.6218338333333295,-0.9526687866666671
-11.494260000000024,-2.1399142999999956,-1.2686293000000004
-11.494260000000025,-2.139914299999995,-1.2686293000000006
-11.899583000000026,-1.855868999999995,-1.067563533333334
-12.304906000000026,-1.571823699999995,-0.8664977666666674
-12.710229000000027,-1.287778399999995,-0.6654320000000008
-11.130426466666693,-1.3930985666666615,-0.38776973000000087
-9.55062393333336,-1.498418733333328,-0.11010746000000086
-7.970821400000027,-1.6037388999999944,0.16755480999999914
-7.970821400000027,-1.6037388999999944,0.16755480999999914
-7.386773266666693,-1.597355833333328,-0.12606504666666754
-6.802725133333358,-1.5909727666666615,-0.41968490333333414
-6.218677000000024,-1.584589699999995,-0.7133047600000008
-6.218677000000024,-1.584589699999995,-0.713304760000001
-7.297411000000025,-1.3037359333333283,-1.0037330733333343
-8.376145000000024,-1.0228821666666617,-1.2941613866666675
-9.454879000000025,-0.7420283999999951,-1.584589700000001
-9.454879000000025,-0.7420283999999951,-1.584589700000001
-9.394240000000025,-0.799475779999995,-1.4409713333333343
-9.333601000000025,-0.8569231599999948,-1.2973529666666674
-9.272962000000026,-0.9143705399999947,-1.153734600000001
-9.272962000000026,-0.9143705399999945,-1.153734600000001
-9.40381433333336,-1.038839826666661,-1.3196936333333344
-9.534666666666693,-1.1633091133333278,-1.4856526666666678
-9.665519000000025,-1.2877783999999945,-1.6516117000000012
-9.665519000000023,-1.2877783999999948,-1.6516117000000012
-10.217652000000024,-1.3803324999999944,-1.9803382666666678
-10.769785000000022,-1.4728865999999943,-2.309064833333334
-11.32191800000002,-1.565440699999994,-2.6377914000000007
-11.082554000000021,-2.1367227666666606,-2.5292797000000005
-10.843190000000021,-2.708004833333327,-2.4207680000000007
-10.603826000000021,-3.279286899999994,-2.312256300000001
-10.603826000000021,-3.279286899999994,-2.312256300000001
-10.760210333333356,-3.1260939333333275,-1.7409742000000008
-10.916594666666692,-2.9729009666666606,-1.169692100000001
-11.072979000000027,-2.8197079999999937,-0.5984100000000008
-11.072979000000027,-2.8197079999999937,-0.5984100000000008
-11.59638833333336,-2.934602733333327,-1.354800333333334
-12.119797666666694,-3.04949746666666,-2.111190666666667
-12.643207000000027,-3.1643921999999933,-2.867581000000001
-12.643207000000027,-3.1643921999999933,-2.867581000000001
-11.634686666666695,-3.5026932999999936,-2.2069362666666676
-10.626166333333362,-3.840994399999994,-1.5462915333333342
-9.617646000000027,-4.179295499999994,-0.885646800000001
-9.617646000000029,-4.179295499999993,-0.885646800000001
-9.091045333333362,-3.955889133333326,-0.7196877666666678
-8.564444666666695,-3.7324827666666596,-0.5537287333333344
-8.037844000000028,-3.5090763999999925,-0.38776970000000094
-8.037844000000028,-3.5090763999999925,-0.38776970000000094
-9.349558666666695,-4.4282341333333255,-0.6239421666666677
-10.661273333333362,-5.3473918666666584,-0.8601146333333345
-11.97298800000003,-6.266549599999991,-1.0962871000000012
-11.97298800000003,-6.266549599999991,-1.0962871000000012
-10.836807000000029,-5.688884599999991,-0.611176066666668
-9.700626000000028,-5.11121959999999,-0.12606503333333463
-8.564445000000028,-4.533554599999989,0.3590459999999987
-10.587868666666694,-4.421851399999989,-0.2984071333333345
-12.61129233333336,-4.310148199999989,-0.9558602666666678
-14.634716000000026,-4.19844499999999,-1.6133134000000011
-14.634716000000026,-4.19844499999999,-1.6133134000000011
-14.634716000000026,-4.19844499999999,-1.6133134000000011
-13.750664666666694,-4.37078699999999,-1.3005444333333347
-12.866613333333362,-4.543128999999991,-0.987775466666668
-11.98256200000003,-4.715470999999991,-0.6750065000000015
-11.09851100000003,-4.073975466666657,-0.7037301800000016
-10.214460000000031,-3.432479933333324,-0.7324538600000016
-9.330409000000031,-2.79098439999999,-0.7611775400000016
-9.330409000000033,-2.79098439999999,-0.7611775400000015
-11.159150000000034,-2.213319233333323,-1.5877812600000016
-12.987891000000033,-1.6356540666666561,-2.4143849800000017
-14.816632000000032,-1.0579888999999894,-3.240988700000002
-14.816632000000032,-1.0579888999999894,-3.240988700000002
-13.0740621666667,-1.3101189999999896,-2.347363053333335
-11.331492333333367,-1.5622490999999898,-1.453737406666668
-9.588922500000036,-1.8143791999999899,-0.5601117600000012
-9.588922500000036,-1.8143791999999899,-0.5601117600000012
-8.385719333333368,-1.456928933333323,-0.6558573733333345
-7.182516166666699,-1.0994786666666563,-0.7516029866666679
-5.9793130000000305,-0.7420283999999894,-0.8473486000000013
-5.9793130000000305,-0.7420283999999894,-0.8473486000000013
-6.9335776666666975,-0.6750064799999893,-1.7313997333333344
-7.8878423333333645,-0.6079845599999892,-2.615450866666668
-8.842107000000032,-0.5409626399999893,-3.499502000000001
-8.842107000000032,-0.5409626399999893,-3.499502000000001
-9.339984000000031,-0.9079874933333226,-2.746303200000001
-9.837861000000032,-1.2750123466666559,-1.993104400000001
-10.335738000000033,-1.6420371999999892,-1.2399056000000013
-10.335738000000033,-1.6420371999999892,-1.239905600000001
-10.539995333333366,-1.1122448266666558,-1.444162900000001
-10.744252666666698,-0.5824524533333225,-1.648420200000001
-10.948510000000033,-0.05266007999998915,-1.852677500000001
-10.948510000000033,-0.05266007999998915,-1.852677500000001
-10.855956000000033,-0.9782008866666558,-1.8016131666666677
-10.763402000000033,-1.9037416933333224,-1.7505488333333343
-10.670848000000033,-2.829282499999989,-1.6994845000000012
-10.670848000000033,-2.829282499999989,-1.6994845000000012
-10.776168000000034,-2.660131999999989,-1.1984158266666678
-10.881488000000035,-2.490981499999989,-0.6973471533333345
-10.986808000000037,-2.321830999999989,-0.19627848000000117
-10.986808000000039,-2.321830999999989,-0.19627848000000117
-11.765539000000038,-1.8622520666666553,-0.9207535866666676
-12.544270000000035,-1.402673133333322,-1.645228693333334
-13.323001000000033,-0.9430941999999886,-2.3697038000000004
-12.148521333333369,-2.2069361333333215,-1.354800366666667
-10.974041666666702,-3.470778066666655,-0.339896933333334
-9.799562000000037,-4.734619999999988,0.6750064999999991
-9.799562000000037,-4.734619999999988,0.6750064999999991
-9.799562000000037,-4.734619999999988,0.6750064999999991
-9.474027000000037,-4.115465099999987,0.6047930566666658
-9.148492000000038,-3.4963101999999875,0.5345796133333325
-8.822957000000038,-2.8771552999999876,0.4643661699999992
-8.84848933333337,-3.1994988666666546,0.8377740133333326
-8.874021666666705,-3.521842433333321,1.2111818566666657
-8.899554000000037,-3.844185999999988,1.5845896999999993
-8.899554000000037,-3.844185999999988,1.5845896999999993
-8.899554000000037,-3.844185999999988,1.5845896999999993
-9.384665000000036,-3.7899301333333213,1.4282052333333326
-9.869776000000035,-3.7356742666666545,1.2718207666666659
-10.354887000000033,-3.6814183999999877,1.1154362999999994
-10.354887000000033,-3.6814183999999877,1.1154362999999996
-12.097457000000034,-3.7356742666666545,1.0484143799999996
-13.840027000000035,-3.7899301333333213,0.9813924599999998
-15.582597000000035,-3.844185999999988,0.9143705399999998
-14.864505000000035,-3.419713833333321,0.7675606033333331
-14.146413000000036,-2.9952416666666544,0.6207506666666663
-13.428321000000038,-2.570769499999988,0.47394072999999975
-13.42832100000004,-2.570769499999988,0.47394072999999975
-12.920869333333371,-2.449491699999988,-0.05266011333333359
-12.413417666666703,-2.3282138999999877,-0.579260956666667
-11.905966000000035,-2.206936099999987,-1.1058618000000002
-11.905966000000035,-2.206936099999987,-1.1058618
-11.921923333333368,-1.868634999999987,-1.2877784333333333
-11.9378806666667,-1.530333899999987,-1.4696950666666666
-11.953838000000033,-1.1920327999999867,-1.6516117000000001
-11.953838000000033,-1.1920327999999867,-1.6516117000000001
-11.092128000000033,-1.0962871799999865,-1.3962900666666667
-10.230418000000034,-1.0005415599999865,-1.1409684333333334
-9.368708000000034,-0.9047959399999864,-0.8856468
-9.368708000000034,-0.9047959399999864,-0.8856468
-8.941044000000034,-1.0643719599999864,-0.9526687333333334
-8.513380000000033,-1.2239479799999864,-1.0196906666666667
-8.085716000000033,-1.3835239999999864,-1.0867126000000003
-8.085716000000033,-1.3835239999999864,-1.0867126000000003
-8.181461666666701,-1.15373454333332,-1.2813953333333334
-8.27720733333337,-0.9239450866666533,-1.4760780666666669
-8.372953000000038,-0.6941556299999867,-1.6707608
-8.372953000000038,-0.6941556299999867,-1.6707608
-8.91551133333337,-1.0356483199999866,-1.7090590333333333
-9.458069666666702,-1.3771410099999866,-1.7473572666666666
-10.000628000000034,-1.7186336999999865,-1.7856554999999998
-10.000628000000034,-1.7186336999999865,-1.7856554999999998
-10.453824000000035,-2.18778713333332,-1.7250166333333332
-10.907020000000037,-2.6569405666666537,-1.6643777666666664
-11.360216000000037,-3.1260939999999873,-1.6037388999999997
-11.360216000000037,-3.1260939999999873,-1.6037388999999997
-11.42404633333337,-3.253754799999987,-1.3899070333333332
-11.487876666666702,-3.3814155999999866,-1.1760751666666664
-11.551707000000036,-3.5090763999999868,-0.9622432999999999
-11.551707000000036,-3.5090763999999868,-0.9622432999999999
-11.653835666666701,-3.1771582666666536,-0.4579831333333333
-11.755964333333367,-2.8452401333333204,0.04627703333333336
-11.858093000000032,-2.5133219999999876,0.5505372000000001
-11.618729000000032,-2.296298666666654,0.1707463000000001
-11.379365000000034,-2.0792753333333205,-0.20904459999999989
-11.140001000000034,-1.8622519999999867,-0.5888354999999998
-11.140001000000034,-1.8622519999999867,-0.5888354999999997
-9.952755566666701,-2.736728499999987,-0.1643632999999998
-8.765510133333366,-3.611204999999987,0.26010890000000014
-7.578264700000034,-4.485681499999987,0.6845811
-7.578264700000034,-4.485681499999987,0.6845811
-7.891033466666701,-4.2814242666666535,0.6271337333333334
-8.203802233333368,-4.07716703333332,0.5696863666666668
-8.516571000000035,-3.8729097999999875,0.5122390000000002
-8.516571000000035,-3.8729097999999875,0.5122390000000002
-8.516571000000035,-3.8729097999999875,0.5122390000000002
-8.787850333333367,-4.134614533333321,0.5633033333333336
-9.059129666666701,-4.396319266666653,0.6143676666666669
-9.330409000000037,-4.658023999999986,0.6654320000000001
-9.445304000000037,-4.673981466666652,0.5984100566666668
-9.560199000000036,-4.689938933333319,0.5313881133333335
-9.675094000000035,-4.705896399999985,0.4643661700000001
-9.675094000000035,-4.705896399999985,0.4643661700000001
-9.675094000000035,-4.705896399999985,0.4643661700000001
-10.466590666666699,-4.651640599999985,0.1930869633333334
-11.258087333333364,-4.597384799999985,-0.0781922433333333
-12.04958400000003,-4.543128999999985,-0.34947144999999996
-12.544269666666699,-4.587810233333318,-0.32074777333333326
-13.038955333333368,-4.632491466666651,-0.29202409666666657
-13.533641000000037,-4.677172699999985,-0.2633004199999999
-13.533641000000037,-4.677172699999985,-0.2633004199999999
-13.268745000000038,-3.8824842333333174,-0.5601118133333333
-13.00384900000004,-3.0877957666666505,-0.8569232066666667
-12.738953000000043,-2.2931072999999835,-1.1537346
-12.738953000000043,-2.2931072999999835,-1.1537346
-12.582568333333375,-2.0697008666666505,-1.2750123666666664
-12.426183666666708,-1.8462944333333173,-1.396290133333333
-12.26979900000004,-1.6228879999999843,-1.5175678999999995
-12.26979900000004,-1.6228879999999843,-1.5175678999999995
-10.441058000000039,-1.7218250999999842,-1.1665006566666662
-8.612317000000038,-1.8207621999999841,-0.8154334133333331
-6.7835760000000365,-1.9196992999999842,-0.4643661699999999
-6.7835760000000365,-1.9196992999999842,-0.4643661699999999
-6.11654833333337,-1.7186335666666508,-0.5569202466666666
-5.449520666666703,-1.5175678333333174,-0.6494743233333334
-4.782493000000035,-1.316502099999984,-0.7420284000000001
-4.782493000000035,-1.316502099999984,-0.7420284000000001
-6.039952000000036,-1.1728836666666504,-0.8760722666666667
-7.297411000000036,-1.029265233333317,-1.0101161333333333
-8.554870000000035,-0.8856467999999836,-1.1441599999999998
-8.554870000000035,-0.8856467999999836,-1.1441599999999996
-10.038926666666699,-0.9271365666666505,-1.7058674999999999
-11.522983333333364,-0.9686263333333173,-2.267575
-13.00704000000003,-1.010116099999984,-2.8292825
-13.007040000000027,-1.010116099999984,-2.8292825
-12.177244666666695,-1.740974199999984,-2.360129066666667
-11.347449333333364,-2.471832299999984,-1.8909756333333334
-10.51765400000003,-3.2026903999999843,-1.4218222
-10.517654000000029,-3.2026903999999843,-1.4218222
-10.788933333333363,-2.966517933333318,-1.1760751666666664
-11.060212666666699,-2.7303454666666513,-0.9303281333333331
-11.331492000000033,-2.4941729999999844,-0.6845810999999996
-11.331492000000035,-2.4941729999999844,-0.6845810999999996
-10.95489283333337,-2.2324683333333177,-0.6016015666666664
-10.578293666666704,-1.9707636666666513,-0.5186220333333331
-10.201694500000036,-1.7090589999999846,-0.43564249999999977
-10.201694500000036,-1.7090589999999846,-0.43564249999999977
-10.153821666666701,-1.7696978999999846,-0.48989833333333316
-10.105948833333366,-1.8303367999999847,-0.5441541666666666
-10.058076000000034,-1.890975699999985,-0.59841
-10.058076000000034,-1.890975699999985,-0.59841
-9.684668000000036,-2.066509333333318,-0.4994728900000001
-9.311260000000038,-2.2420429666666517,-0.40053578000000006
-8.93785200000004,-2.4175765999999848,-0.30159867000000007
-8.93785200000004,-2.4175765999999848,-0.3015986700000001
-8.93146900000004,-2.379278299999985,-0.3718121133333334
-8.925086000000041,-2.3409799999999854,-0.4420255566666667
-8.918703000000042,-2.3026816999999853,-0.512239
-8.918703000000043,-2.3026816999999853,-0.512239
-8.621891666666711,-2.503747466666652,-0.5154305333333333
-8.325080333333377,-2.7048132333333186,-0.5186220666666665
-8.028269000000044,-2.905878999999985,-0.5218135999999998
-8.028269000000044,-2.905878999999985,-0.5218135999999997
-8.028269000000044,-2.905878999999985,-0.5218135999999997
-8.29635666666671,-3.0143906666666513,-0.6367082999999997
-8.564444333333377,-3.1229023333333177,-0.7516029999999997
-8.832532000000043,-3.2314139999999836,-0.8664976999999997
-9.263387000000042,-3.4835441333333166,-0.6941556166666665
-9.69424200000004,-3.7356742666666505,-0.5218135333333332
-10.12509700000004,-3.987804399999984,-0.34947144999999996
-10.125097000000038,-3.987804399999984,-0.34947144999999996
-10.501696666666705,-4.364403699999984,-0.16755480666666658
-10.878296333333372,-4.741002999999983,0.014361836666666758
-11.25489600000004,-5.117602299999983,0.19627848000000012
-11.25489600000004,-5.117602299999983,0.19627848000000012
-11.25489600000004,-5.117602299999983,0.19627848000000012
-12.387885666666705,-4.766535099999983,-0.21223611333333325
-13.52087533333337,-4.415467899999983,-0.6207507066666665
-14.653865000000033,-4.0644006999999815,-1.0292652999999998
-14.937910166666702,-3.001624566666649,-0.8377740799999999
-15.22195533333337,-1.9388484333333154,-0.6462828599999998
-15.506000500000036,-0.8760722999999819,-0.45479163999999966
-15.506000500000036,-0.8760722999999819,-0.45479163999999966
-15.506000500000036,-0.8760722999999819,-0.45479163999999966
-16.070899333333372,-0.6462828466666486,-0.6526658599999996
-16.635798166666707,-0.41649339333331525,-0.8505400799999996
-17.200697000000044,-0.18670393999998194,-1.0484142999999995
-17.200697000000044,-0.18670393999998194,-1.0484142999999995
-15.295359666666707,-0.3686205933333153,-0.9909669666666661
-13.390022333333372,-0.5505372466666487,-0.9335196333333329
-11.484685000000036,-0.732453899999982,-0.8760722999999997
-11.484685000000036,-0.732453899999982,-0.8760722999999997
-10.728294666666704,-0.8824553333333153,-0.9973500666666664
-9.97190433333337,-1.0324567666666484,-1.1186278333333328
-9.215514000000036,-1.1824581999999817,-1.2399055999999995
-9.215514000000036,-1.1824581999999817,-1.2399055999999993
-8.321888500000037,-0.9813924333333152,-1.0196906999999993
-7.428263000000037,-0.7803266666666486,-0.7994757999999994
-6.534637500000035,-0.579260899999982,-0.5792608999999994
-6.534637500000035,-0.5792608999999821,-0.5792608999999995
-5.506968000000036,-0.394152733999982,-0.15478872333333282
-4.479298500000037,-0.20904456799998197,0.2696834533333339
-3.4516290000000374,-0.023936401999981965,0.6941556300000006
-3.4516290000000374,-0.023936401999981965,0.6941556300000006
-3.2569463333333704,-0.5473457346666487,0.47394074000000064
-3.0622636666667034,-1.0707550673333153,0.25372585000000064
-2.8675810000000364,-1.594164399999982,0.033510960000000645
-2.8675810000000364,-1.594164399999982,0.033510960000000645
-3.6622695000000363,-2.369703799999982,-0.2696834599999994
-4.456958000000037,-3.1452431999999817,-0.5728778799999994
-5.251646500000036,-3.9207825999999812,-0.8760722999999994
-5.251646500000035,-3.9207825999999812,-0.8760722999999994
-7.367624333333368,-4.208019399999981,-1.4058646333333327
-9.483602166666701,-4.495256199999981,-1.9356569666666663
-11.599580000000033,-4.782492999999981,-2.4654493
-11.599580000000032,-4.782492999999981,-2.4654493
-13.447470333333365,-4.364403799999981,-2.7080048666666667
-15.295360666666701,-3.946314599999982,-2.9505604333333335
-17.143251000000035,-3.5282253999999824,-3.1931160000000003
-17.14325100000004,-3.5282253999999824,-3.1931160000000003
-17.24537933333337,-3.614396466666649,-3.1867330000000003
-17.347507666666708,-3.7005675333333152,-3.1803500000000007
-17.449636000000044,-3.786738599999982,-3.173967000000001
-17.449636000000044,-3.786738599999982,-3.173967000000001
-15.126209666666712,-3.5984389666666488,-2.717579566666668
-12.80278333333338,-3.4101393333333156,-2.2611921333333345
-10.479357000000048,-3.2218396999999825,-1.804804700000001
-10.479357000000048,-3.2218396999999825,-1.804804700000001
-9.557007466666713,-3.129285599999983,-2.3218309333333345
-8.63465793333338,-3.036731499999983,-2.8388571666666675
-7.712308400000045,-2.944177399999983,-3.355883400000001
-7.712308400000045,-2.944177399999983,-3.355883400000001
-7.814436933333378,-2.886730033333316,-3.1516261333333344
-7.916565466666711,-2.8292826666666486,-2.947368866666668
-8.018694000000044,-2.7718352999999816,-2.743111600000002
-8.018694000000043,-2.7718352999999816,-2.743111600000002
-7.938906100000043,-2.8069419666666486,-2.4431087000000016
-7.859118200000044,-2.8420486333333153,-2.143105800000001
-7.779330300000044,-2.8771552999999823,-1.843102900000001
-7.779330300000045,-2.8771552999999823,-1.843102900000001
-7.389964866666712,-3.0303482999999822,-1.8814011333333347
-7.000599433333377,-3.183541299999982,-1.9196993666666682
-6.611234000000043,-3.336734299999982,-1.9579976000000017
-6.611234000000043,-3.336734299999982,-1.9579976000000017
-7.571881333333376,-3.898441866666649,-1.8271453000000015
-8.53252866666671,-4.460149433333316,-1.6962930000000014
-9.493176000000044,-5.021856999999983,-1.565440700000001
-9.493176000000046,-5.021856999999983,-1.565440700000001
-10.827231666666712,-5.0888789999999835,-1.1282024200000011
-12.161287333333378,-5.155900999999983,-0.6909641400000012
-13.495343000000046,-5.222922999999984,-0.2537258600000012
-13.495343000000046,-5.222922999999984,-0.2537258600000012
-11.909157666666713,-4.76015246666665,0.2186191266666655
-10.32297233333338,-4.297381933333316,0.6909641133333322
-8.736787000000048,-3.8346113999999822,1.1633090999999989
-8.736787000000048,-3.8346113999999822,1.1633090999999987
-9.738924000000047,-4.568661033333316,1.313310533333332
-10.741061000000046,-5.302710666666648,1.4633119666666652
-11.743198000000048,-6.0367602999999805,1.6133133999999985
-11.743198000000048,-6.0367602999999805,1.6133133999999985
-11.743198000000048,-6.0367602999999805,1.6133133999999985
-11.743198000000048,-6.0367602999999805,1.6133133999999985
-11.743198000000048,-6.0367602999999805,1.6133133999999985
-11.743198000000048,-6.0367602999999805,1.6133133999999985
-11.235746333333381,-4.881430033333315,1.456928933333332
-10.728294666666715,-3.726099766666648,1.3005444666666655
-10.22084300000005,-2.5707694999999813,1.1441599999999987
-9.95275533333338,-2.2771496333333148,0.7611775733333322
-9.684667666666712,-1.9835297666666476,0.37819514666666554
-9.416580000000044,-1.6899098999999806,-0.004787280000001133
-9.416580000000042,-1.6899098999999804,-0.004787280000001133
-9.416580000000042,-1.6899098999999804,-0.004787280000001133
-8.963384333333375,-1.8941671666666473,-0.055851603333334464
-8.510188666666705,-2.098424433333314,-0.10691592666666778
-8.056993000000038,-2.3026816999999813,-0.15798025000000113
-8.056993000000036,-2.3026816999999813,-0.1579802500000011
-8.341038000000035,-2.3856611999999813,-0.12925656666666777
-8.625083000000034,-2.468640699999981,-0.10053288333333443
-8.909128000000033,-2.551620199999981,-0.07180920000000111
-8.909128000000033,-2.551620199999981,-0.07180920000000111
-10.613400000000034,-1.9484229333333143,-0.9175620333333345
-12.317672000000035,-1.3452256666666476,-1.7633148666666683
-14.021944000000035,-0.7420283999999809,-2.6090677000000015
-14.510246666666703,-0.8345824666666476,-2.5228967000000018
-14.99854933333337,-0.9271365333333142,-2.4367257000000015
-15.486852000000036,-1.0196905999999808,-2.3505547000000013
-15.486852000000036,-1.019690599999981,-2.3505547000000013
-13.233638666666705,-1.2813952999999811,-1.6739523866666677
-10.980425333333372,-1.5430999999999813,-0.9973500733333341
-8.727212000000039,-1.8048046999999814,-0.32074776000000077
-8.727212000000039,-1.8048046999999814,-0.32074776000000077
-9.41977200000004,-1.3452257833333148,-0.652665873333334
-10.11233200000004,-0.8856468666666482,-0.9845839866666672
-10.80489200000004,-0.42606794999998154,-1.3165021000000006
-10.80489200000004,-0.42606794999998154,-1.3165021000000003
-10.35807900000004,-0.8792637999999814,-1.345225766666667
-9.911266000000039,-1.3324596499999812,-1.3739494333333335
-9.464453000000036,-1.7856554999999812,-1.4026731000000003
-9.464453000000036,-1.7856554999999812,-1.4026731000000006
-8.768701566666705,-1.9739552333333146,-1.0994786833333339
-8.072950133333372,-2.1622549666666484,-0.7962842666666673
-7.377198700000039,-2.350554699999982,-0.49308985000000066
-7.377198700000039,-2.3505546999999822,-0.49308985000000066
-7.220814233333372,-2.583535666666649,-0.41649337333333397
-7.064429766666706,-2.816516633333316,-0.3398968966666673
-6.9080453000000395,-3.0494975999999827,-0.2633004200000006
-7.144217866666705,-3.1229025333333156,-0.32074778000000054
-7.380390433333371,-3.196307466666649,-0.37819514000000054
-7.6165630000000375,-3.2697123999999818,-0.43564250000000054
-7.6165630000000375,-3.2697123999999818,-0.43564250000000054
-7.6165630000000375,-3.2697123999999818,-0.43564250000000054
-8.254867000000038,-3.205881933333315,-0.40691881666666724
-8.893171000000038,-3.1420514666666484,-0.37819513333333393
-9.531475000000038,-3.0782209999999814,-0.3494714500000006
-10.51446300000004,-3.3335426666666486,-0.426067933333334
-11.49745100000004,-3.5888643333333157,-0.5026644166666674
-12.480439000000041,-3.844185999999983,-0.5792609000000007
-12.480439000000041,-3.844185999999983,-0.5792609000000009
-12.509162666666706,-3.933548566666649,-0.4484085800000009
-12.53788633333337,-4.022911133333316,-0.3175562600000009
-12.566610000000034,-4.112273699999982,-0.1867039400000009
-12.566610000000034,-4.112273699999982,-0.1867039400000009
-12.298522333333366,-3.726099733333315,-0.5569202600000008
-12.030434666666698,-3.339925766666648,-0.9271365800000008
-11.762347000000029,-2.9537517999999814,-1.2973529000000008
-11.762347000000029,-2.9537517999999814,-1.2973529000000008
-12.352778333333363,-2.478215333333315,-1.3516087333333342
-12.943209666666696,-2.002678866666648,-1.4058645666666676
-13.53364100000003,-1.5271423999999814,-1.460120400000001
-13.533641000000026,-1.5271423999999814,-1.460120400000001
-12.464481666666694,-1.2686292666666483,-0.927136560000001
-11.395322333333363,-1.010116133333315,-0.394152720000001
-10.326163000000031,-0.7516029999999819,0.13883111999999906
-10.32616300000003,-0.7516029999999819,0.13883111999999906
-8.768701333333363,-0.9877754666666485,-0.15478872000000096
-7.211239666666697,-1.2239479333333152,-0.44840856000000096
-5.653778000000031,-1.4601203999999817,-0.7420284000000009
-5.653778000000031,-1.4601203999999817,-0.7420284000000009
-6.001653666666699,-1.4345882666666485,-0.9207535333333342
-6.349529333333366,-1.4090561333333154,-1.0994786666666676
-6.697405000000033,-1.383523999999982,-1.2782038000000007
-8.018694333333364,-1.3452257666666487,-1.3165020666666674
-9.339983666666697,-1.3069275333333155,-1.354800333333334
-10.66127300000003,-1.2686292999999822,-1.3930986000000007
-10.66127300000003,-1.2686292999999822,-1.3930986000000007
-10.66127300000003,-1.2686292999999822,-1.3930986000000007
-11.385748333333362,-1.3260766666666493,-1.3867155333333339
-12.110223666666696,-1.3835240333333159,-1.3803324666666672
-12.834699000000029,-1.4409713999999825,-1.3739494000000005
-13.013423666666696,-1.4537374666666494,-1.568632133333334
-13.192148333333364,-1.4665035333333158,-1.7633148666666676
-13.370873000000032,-1.4792695999999825,-1.9579976000000012
-13.370873000000032,-1.4792695999999825,-1.9579976000000012
-12.285756333333362,-1.8335283333333159,-1.2973529326666675
-11.200639666666694,-2.1877870666666492,-0.6367082653333341
-10.115523000000026,-2.5420457999999826,0.02393640199999932
-10.115523000000026,-2.5420457999999826,0.02393640199999932
-10.431483666666692,-2.0058704199999826,-0.06861768533333402
-10.747444333333357,-1.4696950399999824,-0.16117177266666738
-11.063405000000026,-0.9335196599999823,-0.2537258600000007
-11.063405000000026,-0.9335196599999823,-0.2537258600000007
-10.830424000000027,-1.262246206666649,-0.4196849066666673
-10.597443000000029,-1.5909727533333158,-0.585643953333334
-10.364462000000028,-1.9196992999999825,-0.7516030000000007
-10.364462000000028,-1.9196992999999825,-0.7516030000000006
-9.528283666666693,-2.2069360999999827,-0.4260679433333339
-8.69210533333336,-2.494172899999983,-0.10053288666666726
-7.855927000000026,-2.781409699999983,0.22500216999999942
-7.855927000000026,-2.781409699999982,0.22500216999999942
-7.619754466666692,-3.049497433333316,0.21861912666666608
-7.383581933333359,-3.3175851666666496,0.21223608333333277
-7.147409400000026,-3.585672899999983,0.20585303999999946
-7.147409400000026,-3.585672899999983,0.20585303999999946
-7.587839100000025,-3.818653933333317,0.26968344666666616
-8.028268800000026,-4.051634966666651,0.33351385333333283
-8.468698500000025,-4.284615999999985,0.3973442599999995
-8.468698500000025,-4.284615999999985,0.3973442599999995
-8.98253333333336,-4.064401066666652,0.26330041333333287
-9.496368166666693,-3.844186133333318,0.1292565666666662
-10.010203000000027,-3.6239711999999837,-0.004787280000000449
-10.010203000000029,-3.6239711999999837,-0.004787280000000448
-10.747444333333362,-3.7867386999999844,-0.0031915200000004486
-11.484685666666698,-3.949506199999984,-0.0015957600000004485
-12.221927000000031,-4.112273699999984,0.0
-12.221927000000031,-4.112273699999984,0.0
-12.624058333333364,-4.214402366666651,-0.24734280000000045
-13.026189666666697,-4.316531033333317,-0.49468560000000045
-13.428321000000032,-4.418659699999984,-0.7420284000000005
-13.428321000000034,-4.418659699999984,-0.7420284000000005
-13.6644936666667,-3.6782270333333167,-1.1696921333333337
-13.900666333333367,-2.9377943666666497,-1.597355866666667
-14.136839000000032,-2.197361699999983,-2.0250196000000007
-14.146413666666698,-1.7250166866666499,-1.9196994000000007
-14.155988333333363,-1.2526716733333165,-1.8143792000000005
-14.165563000000029,-0.7803266599999832,-1.7090590000000005
-14.165563000000029,-0.7803266599999832,-1.7090590000000005
-14.165563000000029,-0.7803266599999832,-1.7090590000000005
-12.888954666666697,-0.9335196399999832,-1.4984187000000004
-11.612346333333363,-1.0867126199999833,-1.2877784000000005
-10.33573800000003,-1.2399055999999833,-1.0771381000000007
-9.375090466666697,-1.3356511999999832,-1.3260766333333338
-8.414442933333362,-1.431396799999983,-1.575015166666667
-7.453795400000028,-1.527142399999983,-1.8239537000000003
-7.453795400000028,-1.527142399999983,-1.8239537000000003
-7.453795400000028,-1.527142399999983,-1.8239537000000003
-7.632520500000028,-1.466503499999983,-1.9388484666666672
-7.811245600000028,-1.4058645999999833,-2.0537432333333343
-7.989970700000028,-1.3452256999999834,-2.168638000000001
-7.989970700000028,-1.3452256999999834,-2.1686380000000014
-8.720828800000028,-1.25586316666665,-2.0218280666666684
-9.451686900000027,-1.1665006333333166,-1.8750181333333351
-10.182545000000026,-1.0771380999999831,-1.7282082000000016
-10.182545000000026,-1.0771380999999831,-1.7282082000000016
-10.338929333333361,-1.1186278333333164,-1.5175678333333347
-10.495313666666696,-1.16011756666665,-1.3069274666666681
-10.651698000000032,-1.2016072999999832,-1.0962871000000016
-10.8751046666667,-1.3356511666666497,-0.9654347900000017
-11.098511333333368,-1.4696950333333163,-0.8345824800000017
-11.321918000000034,-1.6037388999999829,-0.7037301700000017
-11.321918000000034,-1.6037388999999829,-0.7037301700000017
-11.213406333333367,-1.7473572666666495,-0.6111760966666683
-11.1048946666667,-1.8909756333333163,-0.518622023333335
-10.996383000000032,-2.034593999999983,-0.4260679500000016
-10.996383000000032,-2.034593999999983,-0.4260679500000016
-11.497451666666699,-2.3058732666666497,-0.4803238000000016
-11.998520333333365,-2.5771525333333165,-0.5345796500000015
-12.49958900000003,-2.848431799999983,-0.5888355000000015
-12.49958900000003,-2.848431799999983,-0.5888355000000014
-11.791071333333363,-2.5835355666666495,-0.477132286666668
-11.082553666666698,-2.318639333333316,-0.36542907333333474
-10.374036000000032,-2.053743099999983,-0.25372586000000147
-10.374036000000034,-2.053743099999983,-0.2537258600000014
-9.9048826666667,-2.2292767333333163,-0.2473428166666681
-9.435729333333366,-2.40481036666665,-0.24095977333333476
-8.966576000000034,-2.580343999999983,-0.23457673000000145
-8.966576000000034,-2.580343999999983,-0.23457673000000145
-8.7304036666667,-2.877155399999983,-0.22500216666666814
-8.494231333333365,-3.1739667999999828,-0.21542760333333477
-8.258059000000033,-3.4707781999999825,-0.2058530400000014
-8.430400833333367,-3.652694799999983,-0.1388311200000014
-8.602742666666702,-3.8346113999999827,-0.0718092000000014
-8.775084500000036,-4.016527999999982,-0.004787280000001411
-8.775084500000036,-4.016527999999982,-0.004787280000001411
-8.775084500000036,-4.016527999999982,-0.004787280000001411
-9.624029000000037,-4.042060133333315,-0.1898954400000014
-10.47297350000004,-4.067592266666648,-0.3750036000000014
-11.321918000000041,-4.093124399999982,-0.5601117600000013
-12.094266000000042,-4.2144022666666485,-0.3590459990000013
-12.866614000000041,-4.335680133333315,-0.1579802380000013
-13.63896200000004,-4.4569579999999815,0.04308552299999868
-13.63896200000004,-4.4569579999999815,0.04308552299999868
-13.048530666666707,-4.345254666666648,-0.18032088466666796
-12.458099333333374,-4.233551333333314,-0.4037272923333346
-11.867668000000043,-4.121847999999981,-0.6271337000000012
-11.867668000000043,-4.121847999999981,-0.6271337000000012
-12.21554366666671,-3.560140533333314,-0.9622433000000012
-12.563419333333377,-2.998433066666647,-1.297352900000001
-12.911295000000043,-2.43672559999998,-1.632462500000001
-12.911295000000043,-2.43672559999998,-1.632462500000001
-12.898528666666708,-2.015444933333313,-1.562249066666668
-12.885762333333375,-1.5941642666666462,-1.4920356333333347
-12.872996000000041,-1.1728835999999794,-1.4218222000000014
-12.872996000000041,-1.1728835999999794,-1.4218222000000014
-11.82936900000004,-1.2047988333333126,-1.1665006000000016
-10.78574200000004,-1.236714066666646,-0.9111790000000015
-9.74211500000004,-1.2686292999999795,-0.6558574000000015
-9.74211500000004,-1.2686292999999795,-0.6558574000000016
-9.158066900000039,-1.2494801666666462,-0.962243333333335
-8.57401880000004,-1.2303310333333128,-1.2686292666666683
-7.989970700000041,-1.2111818999999795,-1.5750152000000013
-7.989970700000041,-1.2111818999999795,-1.5750152000000013
-8.101673800000041,-1.093095653333313,-1.677143866666668
-8.213376900000041,-0.9750094066666465,-1.7792725333333346
-8.32508000000004,-0.8569231599999799,-1.881401200000001
-9.205939666666707,-0.8250079533333133,-1.8111877333333346
-10.086799333333373,-0.7930927466666468,-1.7409742666666679
-10.967659000000038,-0.7611775399999802,-1.6707608000000012
-10.967659000000038,-0.7611775399999802,-1.6707608000000012
-10.967659000000038,-0.7611775399999802,-1.6707608000000012
-10.91978600000004,-1.0803295933333132,-1.4633119666666679
-10.87191300000004,-1.3994816466666464,-1.2558631333333345
-10.82404000000004,-1.7186336999999796,-1.0484143000000012
-10.82404000000004,-1.7186336999999796,-1.0484143000000012
-10.938935000000038,-1.9420400666666466,-0.9462856666666681
-11.053830000000039,-2.1654464333333134,-0.8441570333333349
-11.168725000000038,-2.3888527999999805,-0.7420284000000018
-11.178299666666703,-2.4590662999999804,-0.5601117600000017
-11.187874333333369,-2.5292797999999803,-0.37819512000000177
-11.197449000000034,-2.5994932999999807,-0.19627848000000173
-11.197449000000034,-2.5994932999999807,-0.19627848000000173
-11.408089333333367,-2.427151133333314,-0.4547916200000018
-11.618729666666702,-2.2548089666666473,-0.7133047600000019
-11.829370000000038,-2.0824667999999806,-0.9718179000000018
-11.82937000000004,-2.0824667999999806,-0.9718179000000018
-11.13681000000004,-2.455874666666647,-0.7228793233333352
-10.444250000000038,-2.829282533333313,-0.4739407466666686
-9.751690000000037,-3.20269039999998,-0.22500217000000192
-9.751690000000037,-3.20269039999998,-0.22500217000000192
-9.075087666666706,-3.27928689999998,-0.15478872700000193
-8.398485333333372,-3.35588339999998,-0.08457528400000193
-7.72188300000004,-3.4324798999999806,-0.01436184100000193
-7.721883000000041,-3.4324798999999806,-0.01436184100000193
-7.661244200000041,-3.4388629333333136,0.04308552266666473
-7.600605400000042,-3.445245966666647,0.10053288633333139
-7.539966600000042,-3.4516289999999805,0.15798024999999805
-7.539966600000042,-3.4516289999999805,0.15798024999999807
-7.811245733333376,-3.46439509999998,0.42606793333333143
-8.08252486666671,-3.47716119999998,0.6941556166666647
-8.353804000000045,-3.4899272999999797,0.962243299999998
-8.353804000000043,-3.4899272999999797,0.962243299999998
-9.205940000000043,-3.2218395999999796,0.6622404146666647
-10.05807600000004,-2.9537518999999794,0.3622375293333315
-10.910212000000039,-2.6856641999999797,0.06223464399999815
-10.910212000000039,-2.6856641999999797,0.06223464399999815
-12.036818333333372,-3.0718381333333133,-0.12287352066666851
-13.163424666666705,-3.458012066666647,-0.3079816853333352
-14.290031000000036,-3.8441859999999806,-0.4930898500000019
-14.290031000000036,-3.8441859999999806,-0.4930898500000019
-13.457044333333371,-4.1218482333333135,-0.31436472566666857
-12.624057666666706,-4.399510466666647,-0.13563960133333522
-11.79107100000004,-4.677172699999979,0.04308552299999813
-11.79107100000004,-4.677172699999979,0.04308552299999813
-11.902774333333374,-3.9622721999999797,-0.36223751800000187
-12.014477666666707,-3.2473716999999795,-0.7675605590000019
-12.12618100000004,-2.53247119999998,-1.1728836000000018
-12.12618100000004,-2.53247119999998,-1.1728836000000018
-12.407034666666705,-2.053743166666646,-1.3611833000000015
-12.68788833333337,-1.5750151333333129,-1.5494830000000015
-12.968742000000036,-1.0962870999999794,-1.7377827000000015
-12.968742000000036,-1.0962870999999794,-1.7377827000000015
-11.928306333333369,-1.2016072999999794,-1.4792695666666684
-10.887870666666702,-1.3069274999999796,-1.220756433333335
-9.847435000000035,-1.4122476999999798,-0.9622433000000018
-9.847435000000035,-1.4122476999999798,-0.9622433000000018
-8.727211666666701,-1.41543919999998,-0.8696892333333351
-7.606988333333368,-1.41863069999998,-0.7771351666666685
-6.486765000000035,-1.42182219999998,-0.6845811000000018
-6.4867650000000365,-1.42182219999998,-0.6845811000000018
-6.588893466666704,-1.2782038133333133,-0.9399027000000019
-6.691021933333372,-1.1345854266666466,-1.1952243000000016
-6.79315040000004,-0.99096703999998,-1.4505459000000016
-6.79315040000004,-0.99096703999998,-1.4505459000000016
-7.903799266666707,-1.0994787266666466,-1.4920356666666683
-9.014448133333374,-1.2079904133333133,-1.5335254333333352
-10.12509700000004,-1.31650209999998,-1.575015200000002
-11.136809166666708,-1.3260766333333134,-1.5399084666666685
-12.148521333333377,-1.3356511666666468,-1.504801733333335
-13.160233500000047,-1.34522569999998,-1.4696950000000015
-13.160233500000047,-1.34522569999998,-1.4696950000000015
-12.78044266666671,-1.5558660333333136,-1.4633119666666683
-12.400651833333376,-1.766506366666647,-1.4569289333333348
-12.020861000000039,-1.9771466999999803,-1.4505459000000016
-12.020861000000039,-1.9771466999999803,-1.4505459000000016
-11.586814000000038,-2.363320633333313,-1.006924603333335
-11.152767000000035,-2.7494945666666464,-0.5633033066666684
-10.718720000000033,-3.1356684999999795,-0.11968201000000178
-10.718720000000033,-3.1356684999999795,-0.11968201000000178
-11.146384000000033,-2.5739609666666463,-0.4101103533333352
-11.574048000000033,-2.012253433333313,-0.7005386966666686
-12.001712000000033,-1.4505458999999796,-0.9909670400000019
-12.001712000000033,-1.4505458999999796,-0.9909670400000019
-11.628304000000034,-1.6771437999999799,-1.0292652933333353
-11.254896000000032,-1.9037416999999799,-1.0675635466666689
-10.881488000000033,-2.13033959999998,-1.1058618000000022
-10.881488000000033,-2.13033959999998,-1.1058618000000024
-9.9750961666667,-2.54523729999998,-0.8920299233333356
-9.068704333333367,-2.960134999999981,-0.6781980466666689
-8.162312500000034,-3.3750326999999807,-0.4643661700000023
-8.162312500000034,-3.3750326999999807,-0.4643661700000023
-7.6740100000000355,-3.4356714999999807,-0.4101103366666689
-7.185707500000038,-3.496310299999981,-0.3558545033333355
-6.697405000000039,-3.556949099999981,-0.3015986700000021
-6.770809900000039,-3.5792897999999806,-0.10372441333333547
-6.844214800000039,-3.6016304999999806,0.0941498433333312
-6.917619700000039,-3.62397119999998,0.2920240999999979
-6.917619700000039,-3.62397119999998,0.29202409999999795
-6.917619700000039,-3.62397119999998,0.29202409999999795
-7.329326133333372,-3.6750354666666474,0.3941527333333313
-7.741032566666706,-3.7260997333333137,0.4962813666666646
-8.15273900000004,-3.77716399999998,0.598409999999998
-9.885734333333373,-3.703759033333314,0.298407109999998
-11.618729666666704,-3.630354066666648,-0.001595780000002045
-13.35172500000004,-3.5569490999999815,-0.301598670000002
-13.35172500000004,-3.5569490999999815,-0.301598670000002
-14.36982000000004,-3.592055866666648,-0.177129380000002
-15.38791500000004,-3.6271626333333145,-0.05266009000000199
-16.40601000000004,-3.6622693999999805,0.07180919999999802
-16.40601000000004,-3.6622693999999805,0.07180919999999802
-15.35919100000004,-3.4388629999999805,-0.32074780000000197
-14.31237200000004,-3.2154565999999805,-0.7133048000000021
-13.265553000000041,-2.9920501999999805,-1.105861800000002
-13.265553000000045,-2.9920501999999805,-1.105861800000002
-13.718749000000045,-2.4303425999999804,-1.3930986000000019
-14.171945000000045,-1.8686349999999805,-1.6803354000000017
-14.625141000000047,-1.3069273999999804,-1.9675722000000018
-14.625141000000047,-1.3069273999999804,-1.9675722000000018
-13.511300666666713,-1.1633090333333136,-1.434588323333335
-12.39746033333338,-1.0196906666666468,-0.9016044466666683
-11.283620000000047,-0.8760722999999802,-0.3686205700000016
-11.283620000000047,-0.8760722999999802,-0.3686205700000016
-9.684668333333379,-0.9845839666666468,-0.1835124000000016
-8.085716666666713,-1.0930956333333135,0.0015957699999983865
-6.486765000000045,-1.2016072999999803,0.18670393999999838
-6.486765000000045,-1.2016072999999805,0.18670393999999838
-5.768672833333379,-1.1377768999999807,-0.09414984000000164
-5.050580666666712,-1.0739464999999806,-0.3750036200000017
-4.3324885000000455,-1.0101160999999808,-0.6558574000000017
-4.600576233333379,-1.048414333333314,-0.8377740333333351
-4.868663966666713,-1.0867125666666473,-1.0196906666666685
-5.136751700000047,-1.1250107999999805,-1.2016073000000016
-5.136751700000047,-1.1250107999999805,-1.2016073000000018
-5.136751700000047,-1.1250107999999805,-1.2016073000000018
-6.113356800000048,-1.1984157666666473,-1.0324567433333351
-7.0899619000000484,-1.271820733333314,-0.8633061866666685
-8.066567000000049,-1.3452256999999808,-0.6941556300000018
-8.066567000000049,-1.3452256999999808,-0.6941556300000018
-9.42934600000005,-1.584589733333314,-0.7547945200000018
-10.79212500000005,-1.8239537666666472,-0.8154334100000019
-12.154904000000052,-2.0633177999999806,-0.8760723000000019
-12.719803333333383,-2.021828033333314,-1.354800300000002
-13.284702666666718,-1.9803382666666476,-1.833528300000002
-13.849602000000052,-1.9388484999999809,-2.3122563000000023
-13.849602000000052,-1.9388484999999809,-2.3122563000000027
-14.028327000000052,-2.4877899666666474,-1.887784133333336
-14.207052000000052,-3.0367314333333137,-1.4633119666666694
-14.385777000000052,-3.5856728999999805,-1.0388398000000028
-14.385777000000052,-3.5856728999999805,-1.0388398000000028
-14.095348666666721,-3.017582333333314,-1.0133076333333362
-13.804920333333387,-2.449491766666647,-0.9877754666666695
-13.514492000000054,-1.8814011999999807,-0.9622433000000029
-13.514492000000052,-1.8814011999999807,-0.9622433000000029
-12.534695333333383,-1.8239537999999806,-0.8664977000000028
-11.554898666666716,-1.7665063999999806,-0.7707521000000028
-10.575102000000049,-1.7090589999999806,-0.6750065000000028
-10.575102000000049,-1.7090589999999806,-0.6750065000000028
-9.659135766666715,-2.0186364666666474,-0.5377711400000028
-8.743169533333381,-2.328213933333314,-0.40053578000000273
-7.827203300000048,-2.6377913999999802,-0.26330042000000276
-7.827203300000048,-2.6377913999999802,-0.2633004200000028
-7.1857077333333805,-2.6441744333333137,-0.4164933800000028
-6.544212166666713,-2.650557466666647,-0.5696863400000028
-5.902716600000045,-2.65694049999998,-0.7228793000000028
-5.902716600000045,-2.65694049999998,-0.7228793000000028
-6.193144933333379,-2.6218337333333133,-0.8537316333333361
-6.4835732666667125,-2.5867269666666464,-0.9845839666666695
-6.774001600000045,-2.5516201999999795,-1.1154363000000027
-6.774001600000045,-2.551620199999979,-1.1154363000000027
-7.1410264000000465,-2.5165135666666454,-1.3292681666666697
-7.508051200000047,-2.4814069333333113,-1.5431000333333367
-7.875076000000047,-2.4463002999999777,-1.7569319000000034
-7.875076000000047,-2.4463002999999772,-1.7569319000000039
-7.632520466666715,-2.7271540333333113,-1.7760810000000038
-7.389964933333381,-3.008007766666644,-1.7952301000000037
-7.147409400000048,-3.288861499999977,-1.8143792000000036
-7.147409400000048,-3.288861499999977,-1.8143792000000036
-7.469752933333382,-3.4069477666666437,-1.4313968000000035
-7.792096466666716,-3.5250340333333106,-1.0484144000000033
-8.11444000000005,-3.643120299999977,-0.6654320000000034
-9.422963166666714,-4.048443333333311,-0.5441542233333366
-10.731486333333379,-4.4537663666666445,-0.42287644666666996
-12.040009500000044,-4.859089399999978,-0.3015986700000033
-12.040009500000044,-4.859089399999979,-0.3015986700000033
-12.040009500000044,-4.859089399999979,-0.3015986700000033
-12.352778333333376,-4.836748766666646,0.039893986666663384
-12.665547166666707,-4.814408133333312,0.38138664333333
-12.97831600000004,-4.792067499999979,0.7228792999999967
-12.97831600000004,-4.792067499999979,0.7228792999999968
-12.180436333333374,-4.859089333333311,0.9686263333333303
-11.382556666666707,-4.926111166666645,1.2143733666666636
-10.58467700000004,-4.993132999999977,1.4601203999999972
-10.58467700000004,-4.993132999999976,1.4601203999999972
-11.42085500000004,-4.632491333333309,1.3165020333333304
-12.25703300000004,-4.271849666666642,1.1728836666666635
-13.09321100000004,-3.911207999999975,1.0292652999999967
-13.09321100000004,-3.911207999999975,1.0292652999999965
-12.084690666666708,-3.4963103333333083,1.0643719999999965
-11.076170333333375,-3.0814126666666417,1.0994786999999966
-10.067650000000041,-2.666514999999975,1.1345853999999966
-9.987862000000042,-1.7665063466666417,0.8984129166666633
-9.908074000000042,-0.8664976933333084,0.66224043333333
-9.828286000000041,0.03351096000002496,0.4260679499999967
-9.828286000000041,0.03351096000002496,0.4260679499999967
-9.107002666666709,-0.4547916266666417,0.2824495399999967
-8.385719333333377,-0.9430942133333083,0.13883112999999678
-7.664436000000045,-1.431396799999975,-0.0047872800000032245
-7.664436000000045,-1.431396799999975,-0.004787280000003224
-7.664436000000045,-1.431396799999975,-0.004787280000003224
-7.105920000000045,-1.4218222333333081,0.017553361333330113
-6.5474040000000455,-1.4122476666666415,0.03989400266666345
-5.9888880000000455,-1.4026730999999746,0.062234643999996786
-5.9888880000000455,-1.4026730999999746,0.062234643999996786
-6.189953666666713,-1.284586833333308,-0.2186191240000032
-6.39101933333338,-1.1665005666666413,-0.4994728920000033
-6.592085000000047,-1.0484142999999746,-0.7803266600000033
-7.2623040000000465,-1.6133133999999745,-0.7803266600000033
-7.932523000000046,-2.1782124999999746,-0.7803266600000033
-8.602742000000045,-2.7431115999999744,-0.7803266600000033
-8.602742000000047,-2.7431115999999744,-0.7803266600000033
-10.13148033333338,-2.6824727333333076,-1.0324567400000033
-11.660218666666715,-2.6218338666666408,-1.2845868200000032
-13.18895700000005,-2.5611949999999735,-1.5367169000000034
-13.18895700000005,-2.5611949999999735,-1.5367169000000034
-13.690025666666715,-2.4048104999999738,-1.4984186666666701
-14.191094333333382,-2.248425999999974,-1.4601204333333369
-14.692163000000049,-2.0920414999999744,-1.4218222000000036
-14.692163000000049,-2.0920414999999744,-1.4218222000000036
-13.868751000000048,-1.5877812999999747,-1.0324567533333369
-13.045339000000048,-1.083521099999975,-0.6430913066666701
-12.221927000000049,-0.5792608999999748,-0.25372586000000347
-12.221927000000049,-0.5792608999999748,-0.25372586000000347
-11.245321333333381,-0.4867068233333082,-0.4771322633333368
-10.268715666666715,-0.39415274666664146,-0.7005386666666702
-9.292110000000049,-0.30159866999997476,-0.9239450700000037
-9.292110000000049,-0.3015986699999748,-0.9239450700000035
-8.94742633333338,-1.3643748799999749,-1.6739523800000036
-8.602742666666712,-2.427151089999975,-2.4239596900000033
-8.258059000000044,-3.489927299999975,-3.173967000000003
-8.258059000000042,-3.489927299999975,-3.1739670000000024
-7.763373200000043,-3.560140766666642,-2.6505576333333356
-7.268687400000044,-3.6303542333333088,-2.127148266666669
-6.7740016000000445,-3.7005676999999757,-1.6037389000000022
-6.774001600000045,-3.7005676999999757,-1.6037389000000022
-6.978258933333379,-3.3207767999999755,-1.2558631866666687
-7.182516266666712,-2.940985899999975,-0.9079874733333355
-7.386773600000045,-2.561194999999975,-0.5601117600000022
-7.386773600000045,-2.561194999999975,-0.5601117600000022
-8.222951900000046,-2.596301666666642,-0.710113206666669
-9.059130200000046,-2.6314083333333085,-0.8601146533333358
-9.895308500000047,-2.6665149999999755,-1.0101161000000027
-9.895308500000047,-2.6665149999999755,-1.0101161000000027
-10.839998333333378,-2.8101334666666418,-1.1505430000000025
-11.784688166666712,-2.953751933333308,-1.2909699000000023
-12.729378000000045,-3.097370399999974,-1.4313968000000024
-12.729378000000045,-3.097370399999974,-1.4313968000000024
-13.635769666666713,-3.550566266666641,-0.7643690833333356
-14.542161333333382,-4.003762133333308,-0.097341366666669
-15.448553000000052,-4.456957999999975,0.5696863499999977
-15.448553000000052,-4.456957999999975,0.5696863499999977
-13.693217000000052,-4.058017933333308,0.3877697006666643
-11.937881000000052,-3.659077866666641,0.2058530513333309
-10.18254500000005,-3.260137799999974,0.02393640199999758
-10.182545000000053,-3.260137799999974,0.02393640199999758
-10.102757000000052,-3.3016275333333076,-0.10053288200000243
-10.022969000000053,-3.3431172666666407,-0.22500216600000245
-9.943181000000054,-3.384606999999974,-0.34947145000000246
-9.943181000000056,-3.384606999999974,-0.34947145000000246
-10.725103333333388,-3.020773766666641,-0.3845781800000025
-11.50702566666672,-2.6569405333333074,-0.41968491000000246
-12.288948000000053,-2.2931072999999738,-0.4547916400000025
-12.288948000000053,-2.293107299999974,-0.4547916400000025
-12.30809716666672,-1.5271424399999745,-0.3015986666666692
-12.327246333333386,-0.7611775799999744,-0.14840569333333584
-12.346395500000055,0.004787280000025411,0.004787279999997489
-12.346395500000055,0.00478728000002541,0.004787279999997488
-10.900637000000055,-0.4069188466666412,-0.26330041333333587
-9.454878500000055,-0.8186249733333079,-0.5313881066666691
-8.009120000000053,-1.2303310999999744,-0.7994758000000025
-8.00912000000005,-1.2303310999999744,-0.7994758000000025
-7.575073266666718,-1.6420371666666413,-0.9239450666666692
-7.141026533333385,-2.053743233333308,-1.0484143333333358
-6.706979800000052,-2.465449299999975,-1.1728836000000025
-6.706979800000052,-2.465449299999975,-1.1728836000000025
-6.888896333333385,-2.123956666666642,-1.1760751333333357
-7.070812866666718,-1.7824640333333093,-1.179266666666669
-7.252729400000052,-1.4409713999999763,-1.1824582000000021
-7.910182600000051,-1.485652666666643,-1.3228851000000021
-8.56763580000005,-1.53033393333331,-1.463312000000002
-9.225089000000052,-1.5750151999999769,-1.6037389000000017
-9.225089000000052,-1.5750151999999769,-1.6037389000000017
-10.058076000000053,-1.7090590333333102,-2.0505517333333354
-10.891063000000054,-1.8431028666666434,-2.4973645666666684
-11.724050000000053,-1.9771466999999765,-2.9441774000000023
-11.724050000000053,-1.9771466999999763,-2.9441774000000023
-11.724050000000053,-1.9771466999999763,-2.9441774000000023
-11.577240000000053,-2.3250224666666424,-2.6282168666666688
-11.430430000000053,-2.6728982333333096,-2.3122563333333352
-11.283620000000054,-3.0207739999999763,-1.996295800000002
-11.283620000000054,-3.0207739999999768,-1.9962958000000015
-11.286811333333388,-2.842048799999977,-1.507993233333335
-11.290002666666721,-2.6633235999999765,-1.0196906666666685
-11.293194000000055,-2.484598399999977,-0.5313881000000018
-11.605963000000054,-2.1079990333333103,-0.8792638000000018
-11.918732000000055,-1.7313996666666434,-1.2271395000000018
-12.231501000000057,-1.3548002999999766,-1.575015200000002
-12.231501000000057,-1.3548002999999766,-1.575015200000002
-11.743198333333389,-2.0282110999999765,-1.2973529333333351
-11.254895666666721,-2.7016218999999766,-1.0196906666666683
-10.766593000000055,-3.375032699999977,-0.7420284000000018
-10.766593000000055,-3.375032699999977,-0.7420284000000018
-9.962330000000057,-3.29524463333331,-0.5090474410000017
-9.158067000000054,-3.2154565666666435,-0.27606648200000167
-8.353804000000054,-3.1356684999999764,-0.043085523000001645
-8.353804000000052,-3.1356684999999764,-0.043085523000001645
-8.124014666666719,-3.14205153333331,-0.06223464200000164
-7.8942253333333845,-3.148434566666643,-0.08138376100000162
-7.664436000000051,-3.1548175999999764,-0.10053288000000161
-7.664436000000049,-3.1548175999999764,-0.10053288000000161
-7.830394833333382,-3.38141553333331,-0.04308552000000162
-7.996353666666714,-3.6080134666666432,0.014361839999998386
-8.162312500000047,-3.834611399999977,0.0718091999999984
-8.162312500000047,-3.834611399999977,0.0718091999999984
-8.90274533333338,-4.1792955999999775,-0.12606506666666828
-9.643178166666715,-4.523979799999977,-0.32393933333333497
-10.38361100000005,-4.868663999999977,-0.5218136000000017
-10.38361100000005,-4.868663999999977,-0.5218136000000017
-11.768730666666714,-4.92930283333331,-0.5122390166666683
-13.15385033333338,-4.989941666666643,-0.5026644333333349
-14.538970000000047,-5.050580499999977,-0.49308985000000144
-14.538970000000047,-5.050580499999977,-0.49308985000000144
-14.127264000000046,-4.562277966666643,-0.6494743333333348
-13.715558000000046,-4.07397543333331,-0.8058588166666681
-13.303852000000047,-3.585672899999976,-0.9622433000000014
-13.380448333333378,-3.221839599999976,-1.3196935333333348
-13.457044666666711,-2.858006299999976,-1.677143766666668
-13.533641000000044,-2.4941729999999755,-2.034594000000001
-13.53364100000004,-2.4941729999999755,-2.0345940000000007
-13.871942333333374,-2.107999066666642,-2.0090618666666678
-14.210243666666708,-1.7218251333333088,-1.9835297333333344
-14.548545000000042,-1.3356511999999754,-1.9579976000000012
-14.548545000000042,-1.3356511999999754,-1.9579976000000012
-13.405980500000041,-1.2590547333333086,-1.6228880000000008
-12.26341600000004,-1.182458266666642,-1.2877784000000005
-11.120851500000038,-1.1058617999999756,-0.9526688000000002
-11.120851500000038,-1.1058617999999758,-0.9526688000000002
-10.214460000000038,-1.1633091333333092,-1.1569261000000002
-9.308068500000038,-1.2207564666666426,-1.3611834000000005
-8.401677000000037,-1.2782037999999762,-1.5654407000000006
-8.401677000000037,-1.2782037999999762,-1.5654407000000006
-8.047418200000038,-1.048414366666643,-1.6931014666666673
-7.693159400000037,-0.8186249333333097,-1.820762233333334
-7.338900600000035,-0.5888354999999764,-1.9484230000000007
-7.338900600000035,-0.5888354999999764,-1.9484230000000007
-7.342092066666702,-0.4452170833333097,-1.8111876333333339
-7.34528353333337,-0.3015986666666431,-1.6739522666666673
-7.348475000000037,-0.1579802499999764,-1.5367169000000007
-7.348475000000037,-0.15798024999997637,-1.5367169000000007
-7.999545000000038,-0.6813895666666431,-1.4920356333333338
-8.650615000000037,-1.2047988833333096,-1.4473543666666668
-9.301685000000036,-1.7282081999999768,-1.4026731000000001
-9.301685000000036,-1.7282081999999768,-1.4026731000000001
-10.029351666666704,-1.6643777666666433,-1.3867155
-10.75701833333337,-1.60054733333331,-1.3707578999999999
-11.484685000000036,-1.5367168999999767,-1.3548002999999997
-11.484685000000036,-1.5367168999999767,-1.3548002999999997
-11.590005333333371,-2.11119053333331,-0.9239450813333331
-11.695325666666704,-2.6856641666666436,-0.49308986266666643
-11.800646000000038,-3.260137799999977,-0.06223464399999982
-11.800646000000038,-3.2601377999999777,-0.06223464399999982
-12.024052333333373,-2.743111533333311,-0.3845781959999998
-12.247458666666708,-2.2260852666666446,-0.7069217479999997
-12.47086500000004,-1.7090589999999783,-1.0292652999999998
-12.73895266666671,-1.7409742333333116,-1.3260766333333331
-13.007040333333379,-1.772889466666645,-1.6228879666666665
-13.275128000000047,-1.8048046999999785,-1.9196992999999996
-13.275128000000047,-1.8048046999999785,-1.9196992999999996
-13.275128000000047,-1.8048046999999785,-1.9196992999999996
-12.330438000000045,-2.449491766666645,-1.4792695333333328
-11.385748000000044,-3.0941788333333116,-1.0388397666666662
-10.441058000000043,-3.7388658999999786,-0.5984099999999996
-10.441058000000043,-3.7388658999999786,-0.5984099999999996
-9.576156000000045,-3.6303541999999784,-0.43245095999999955
-8.711254000000046,-3.5218424999999787,-0.2664919199999996
-7.846352000000048,-3.413330799999979,-0.1005328799999996
-7.846352000000048,-3.413330799999979,-0.1005328799999996
-7.808053900000048,-3.333542866666645,-0.09414984166666628
-7.769755800000048,-3.253754933333312,-0.08776680333333294
-7.731457700000049,-3.1739669999999784,-0.08138376499999961
-7.731457700000049,-3.1739669999999784,-0.08138376499999961
-7.935715133333382,-3.3335428999999785,0.023936400000000396
-8.139972566666716,-3.4931187999999787,0.1292565650000004
-8.344230000000051,-3.6526946999999788,0.23457673000000043
-8.344230000000051,-3.6526946999999788,0.23457673000000043
-9.298494333333384,-3.7516318999999787,0.19627849000000042
-10.252758666666717,-3.8505690999999787,0.1579802500000004
-11.20702300000005,-3.9495062999999786,0.11968201000000041
-12.365545000000049,-4.102699299999979,0.1164904880000004
-13.52406700000005,-4.255892299999979,0.1132989660000004
-14.68258900000005,-4.409085299999979,0.1101074440000004
-14.68258900000005,-4.409085299999978,0.1101074440000004
-13.868751166666717,-4.153763633333312,-0.21223609066666627
-13.054913333333383,-3.898441966666646,-0.5345796253333329
-12.24107550000005,-3.6431202999999797,-0.8569231599999996
-12.24107550000005,-3.6431202999999797,-0.8569231599999996
-12.521929333333382,-3.263329366666646,-1.3101190399999998
-12.802783166666716,-2.8835384333333125,-1.7633149199999998
-13.083637000000051,-2.5037474999999794,-2.2165107999999996
-13.083637000000053,-2.5037474999999794,-2.2165108
-13.230447000000055,-2.200553133333313,-2.1431058000000003
-13.377257000000057,-1.8973587666666465,-2.0697008
-13.52406700000006,-1.5941643999999802,-1.9962958000000004
-13.52406700000006,-1.5941643999999802,-1.9962958000000004
-12.537887333333392,-1.51756789999998,-1.7760809333333338
-11.551707666666724,-1.4409713999999798,-1.5558660666666675
-10.565528000000057,-1.3643748999999794,-1.335651200000001
-10.565528000000057,-1.3643748999999794,-1.335651200000001
-9.821903666666723,-1.3643748999999794,-1.5590575666666675
-9.07827933333339,-1.3643748999999794,-1.7824639333333343
-8.334655000000055,-1.3643748999999794,-2.005870300000001
-7.878267566666722,-1.2654377666666463,-2.184595466666668
-7.421880133333389,-1.1665006333333128,-2.3633206333333345
-6.9654927000000555,-1.0675634999999795,-2.5420458000000017
-6.9654927000000555,-1.0675634999999792,-2.5420458000000017
-7.172941466666721,-0.8984129199999792,-2.519705200000002
-7.380390233333387,-0.729262339999979,-2.4973646000000023
-7.587839000000052,-0.5601117599999789,-2.4750240000000026
-7.587839000000052,-0.560111759999979,-2.4750240000000026
-7.587839000000052,-0.560111759999979,-2.4750240000000026
-8.101673666666718,-0.8824553066666457,-2.072892433333336
-8.615508333333386,-1.2047988533333125,-1.670760866666669
-9.129343000000054,-1.5271423999999791,-1.2686293000000022
-9.129343000000055,-1.5271423999999791,-1.2686293000000022
-9.694242000000058,-1.6771438333333124,-1.265437766666669
-10.259141000000058,-1.8271452666666457,-1.2622462333333357
-10.82404000000006,-1.977146699999979,-1.2590547000000025
-11.398513833333396,-2.107999066666645,-1.1345854000000024
-11.97298766666673,-2.2388514333333114,-1.0101161000000023
-12.547461500000063,-2.369703799999978,-0.8856468000000023
-12.547461500000063,-2.369703799999978,-0.8856468000000023
-12.821932000000066,-2.1399143333333117,-1.083521066666669
-13.096402500000067,-1.910124866666645,-1.2813953333333359
-13.370873000000069,-1.6803353999999786,-1.4792696000000027
-13.370873000000069,-1.6803353999999786,-1.4792696000000027
-13.453852666666734,-1.830336799999979,-1.5048017666666693
-13.536832333333399,-1.980338199999979,-1.530333933333336
-13.619812000000062,-2.1303395999999792,-1.5558661000000027
-13.619812000000062,-2.1303395999999792,-1.5558661000000027
-12.336821000000063,-2.5963015333333126,-0.9973500633333359
-11.053830000000062,-3.0622634666666464,-0.4388340266666692
-9.770839000000063,-3.52822539999998,0.1196820099999975
-9.770839000000061,-3.52822539999998,0.1196820099999975
-9.23785500000006,-3.30801059999998,-0.03351096000000251
-8.70487100000006,-3.0877957999999794,-0.18670393000000252
-8.171887000000057,-2.8675809999999795,-0.3398969000000025
-8.171887000000057,-2.8675809999999795,-0.3398969000000025
-8.005928100000057,-2.8739639999999795,-0.3590460200000025
-7.839969200000058,-2.8803469999999796,-0.3781951400000025
-7.674010300000059,-2.88672999999998,-0.3973442600000024
-7.9101825333333915,-2.9824756666666468,-0.24415129200000238
-8.146354766666725,-3.078221333333314,-0.09095832400000237
-8.38252700000006,-3.173966999999981,0.06223464399999764
-8.382527000000062,-3.173966999999981,0.06223464399999764
-8.382527000000062,-3.173966999999981,0.06223464399999764
-9.212322333333393,-3.3941817999999806,-0.07180920400000236
-10.042117666666725,-3.61439659999998,-0.20585305200000237
-10.871913000000058,-3.83461139999998,-0.33989690000000244
-11.944263666666727,-4.182487166666647,-0.26010889333333576
-13.016614333333393,-4.530362933333314,-0.1803208866666691
-14.08896500000006,-4.87823869999998,-0.10053288000000243
-14.08896500000006,-4.87823869999998,-0.10053288000000243
-13.399597000000062,-4.38674449999998,-0.5505372200000024
-12.71022900000006,-3.8952502999999794,-1.0005415600000023
-12.020861000000059,-3.40375609999998,-1.4505459000000023
-12.020861000000059,-3.40375609999998,-1.4505459000000023
-12.020861000000059,-3.40375609999998,-1.4505459000000023
-12.53788700000006,-2.9697093999999797,-1.6388456000000022
-13.054913000000061,-2.5356626999999796,-1.8271453000000022
-13.571939000000063,-2.101615999999979,-2.015445000000002
-13.571939000000063,-2.101615999999979,-2.015445000000002
-13.667685000000063,-1.7952300666666459,-1.9101248333333356
-13.763431000000063,-1.4888441333333127,-1.8048046666666693
-13.859177000000065,-1.1824581999999795,-1.699484500000003
-12.627250000000062,-1.207990366666646,-1.5845897666666697
-11.395323000000062,-1.2335225333333126,-1.4696950333333365
-10.163396000000061,-1.2590546999999794,-1.3548003000000033
-10.163396000000061,-1.2590546999999794,-1.3548003000000033
-10.163396000000061,-1.2590546999999794,-1.3548003000000033
-9.266578766666727,-1.2750122666666461,-1.50799326666667
-8.369761533333396,-1.2909698333333128,-1.6611862333333367
-7.472944300000063,-1.3069273999999795,-1.8143792000000036
-7.472944300000063,-1.3069273999999795,-1.8143792000000036
-7.246346333333396,-1.1058616566666462,-1.8622520000000036
-7.01974836666673,-0.9047959133333127,-1.9101248000000037
-6.793150400000063,-0.7037301699999793,-1.957997600000004
-7.246346600000064,-0.7994757933333126,-1.8558689666666703
-7.6995428000000645,-0.895221416666646,-1.7537403333333368
-8.152739000000066,-0.9909670399999794,-1.6516117000000035
-8.152739000000066,-0.9909670399999794,-1.6516117000000035
-8.152739000000066,-0.9909670399999794,-1.6516117000000035
-9.145301333333402,-1.3803324599999796,-1.6675693000000031
-10.137863666666735,-1.7696978799999796,-1.6835269000000033
-11.130426000000071,-2.1590632999999797,-1.6994845000000034
-11.130426000000071,-2.15906329999998,-1.6994845000000034
-11.481493333333404,-2.0154449333333133,-1.7633149000000035
-11.832560666666737,-1.8718265666666465,-1.8271453000000033
-12.18362800000007,-1.7282081999999797,-1.8909757000000031
-11.95064700000007,-2.273958133333313,-1.3643748666666697
-11.71766600000007,-2.819708066666646,-0.8377740333333362
-11.48468500000007,-3.365457999999979,-0.31117320000000287
-11.48468500000007,-3.365457999999979,-0.31117320000000287
-11.48468500000007,-3.365457999999979,-0.31117320000000287
-12.052775666666738,-2.6697065999999787,-0.5218135333333361
-12.620866333333405,-1.9739551999999787,-0.7324538666666696
-13.188957000000073,-1.2782037999999787,-0.943094200000003
-13.188957000000073,-1.2782037999999787,-0.943094200000003
-12.63044100000007,-1.3356511666666453,-1.067563500000003
-12.07192500000007,-1.393098533333312,-1.1920328000000031
-11.513409000000067,-1.4505458999999785,-1.316502100000003
-11.513409000000067,-1.4505458999999785,-1.316502100000003
-10.635740666666733,-2.2005531666666456,-0.8473486233333366
-9.758072333333399,-2.950560433333312,-0.37819514666667
-8.880404000000064,-3.7005676999999793,0.09095832999999669
-8.880404000000063,-3.7005676999999793,0.09095832999999669
-8.385718666666728,-3.8633352666666454,0.14202265333333
-7.891033333333397,-4.0261028333333115,0.19308697666666333
-7.3963480000000645,-4.188870399999978,0.24415129999999666
-7.3963480000000645,-4.188870399999978,0.24415129999999666
-7.600605333333398,-4.418659833333312,-0.1356396000000033
-7.804862666666732,-4.6484492666666455,-0.5154305000000033
-8.009120000000065,-4.878238699999979,-0.8952214000000033
-8.009120000000065,-4.878238699999979,-0.8952214000000033
-8.516571666666733,-5.289944799999979,-1.0101161333333366
-9.024023333333401,-5.701650899999979,-1.1250108666666698
-9.53147500000007,-6.113356999999979,-1.239905600000003
-9.531475000000071,-6.113356999999979,-1.2399056000000028
-10.351695666666737,-5.832503099999979,-0.9143705400000028
-11.171916333333405,-5.551649199999979,-0.588835480000003
-11.99213700000007,-5.270795299999978,-0.2633004200000029
-11.99213700000007,-5.270795299999978,-0.2633004200000029
-12.707037666666738,-5.021856766666645,-0.31436474666666964
-13.421938333333406,-4.772918233333313,-0.3654290733333363
-14.136839000000073,-4.52397969999998,-0.41649340000000296
-14.136839000000073,-4.523979699999981,-0.41649340000000296
-13.970880000000072,-3.793121599999981,-0.9494772666666697
-13.804921000000071,-3.0622634999999807,-1.4824611333333362
-13.63896200000007,-2.3314053999999804,-2.015445000000003
-13.63896200000007,-2.3314053999999804,-2.015445000000003
-13.705983666666738,-1.951614533333314,-1.9452315666666695
-13.773005333333403,-1.5718236666666474,-1.8750181333333362
-13.84002700000007,-1.1920327999999807,-1.804804700000003
-13.84002700000007,-1.1920327999999807,-1.804804700000003
-12.490014166666738,-1.3228850999999806,-1.555866100000003
-11.140001333333403,-1.4537373999999808,-1.306927500000003
-9.78998850000007,-1.584589699999981,-1.0579889000000027
-9.78998850000007,-1.584589699999981,-1.0579889000000027
-8.842106800000073,-1.5526745333333143,-1.1409684000000029
-7.894225100000074,-1.520759366666648,-1.223947900000003
