accx,accy,accz
0.18670394,4.6484489999999985,4.5335546
0.4835153,3.777163999999999,4.696322
0.58245242,3.4867356666666662,4.7505778
0.78032666,2.905879,4.8590894
0.78032666,2.905879,4.8590894
0.8345825066666666,2.7048132333333332,5.947397933333332
0.8888383533333332,2.503747466666667,7.035706466666665
0.9430941999999999,2.3026817000000004,8.124014999999998
0.9430941999999999,2.3026817000000004,8.124014999999998
0.44202554666666655,1.9962957999999997,8.669764999999998
-0.059043106666666755,1.6899098999999993,9.215514999999998
-0.5601117600000001,1.3835239999999989,9.761265
-1.21118184,1.543099999999999,9.805946166666665
-1.8622519200000003,1.7026759999999992,9.85062733333333
-2.5133220000000005,1.8622519999999991,9.895308499999997
-2.5133220000000005,1.8622519999999991,9.895308499999997
-2.940985766666667,1.2239479733333327,9.799562666666665
-3.368649533333333,0.585643946666666,9.703816833333333
-3.7963132999999996,-0.0526600800000007,9.608071
-3.7963132999999996,-0.0526600800000007,9.608071
-4.201636333333334,0.017553363333332628,9.467644
-4.6069593666666675,0.08776680666666596,9.327217
-5.012282400000002,0.1579802499999993,9.18679
-5.012282400000003,0.1579802499999993,9.18679
-5.1622839333333355,-0.22819370000000072,8.893170333333332
-5.312285466666669,-0.6143676500000007,8.599550666666666
-5.462287000000003,-1.0005416000000007,8.305931
-5.462287000000003,-1.0005416000000007,8.305931
-5.909099766666668,-0.9016044566666673,7.728265866666665
-6.355912533333335,-0.802667313333334,7.150600733333332
-6.802725300000001,-0.7037301700000006,6.572935599999998
-6.802725300000001,-0.7037301700000006,6.572935599999998
-7.361241200000002,-0.6494743266666673,6.0814415666666655
-7.919757100000003,-0.5952184833333339,5.589947533333333
-8.478273000000003,-0.5409626400000006,5.098453499999999
-8.478273000000003,-0.5409626400000006,5.098453499999999
-9.193173333333336,-0.5569202600000006,4.875046999999999
-9.908073666666668,-0.5728778800000006,4.651640499999998
-10.622974000000001,-0.5888355000000006,4.428233999999997
-10.788933166666668,-1.0867126000000007,3.939931499999998
-10.954892333333335,-1.5845897000000007,3.4516289999999983
-11.120851500000002,-2.0824668000000006,2.9633264999999986
-11.120851500000002,-2.0824668000000006,2.9633264999999986
-11.120851500000002,-2.0824668000000006,2.9633264999999986
-10.942126666666669,-3.0303482000000006,2.321830933333332
-10.763401833333335,-3.9782296000000006,1.6803353666666654
-10.584677000000001,-4.926111000000001,1.0388397999999988
-10.26552466666667,-4.958026333333334,0.8409655566666654
-9.946372333333336,-4.989941666666668,0.643091313333332
-9.627220000000003,-5.021857000000002,0.4452170699999987
-9.627220000000003,-5.021857000000002,0.4452170699999987
-9.419771333333337,-4.651640666666668,0.863306213333332
-9.21232266666667,-4.281424333333334,1.2813953566666652
-9.004874000000003,-3.911208,1.6994844999999987
-9.004874000000003,-3.911208,1.6994844999999987
-8.979342000000003,-3.805887833333333,1.546291533333332
-8.953810000000002,-3.7005676666666663,1.393098566666665
-8.928278,-3.5952474999999997,1.2399055999999986
-8.928278,-3.5952475000000006,1.2399055999999984
-8.985725000000002,-3.4899273,0.9143705399999984
-9.043172000000004,-3.3846071,0.5888354799999985
-9.100619000000004,-3.2792869000000002,0.2633004199999985
-9.100619000000004,-3.2792869000000002,0.2633004199999985
-9.138917333333337,-3.0207737666666667,0.2696834599999985
-9.177215666666669,-2.7622606333333337,0.2760664999999985
-9.215514,-2.5037475000000002,0.2824495399999985
-9.215514,-2.5037475000000007,0.2824495399999985
-9.186790333333335,-2.3697036666666675,0.29202409333333185
-9.158066666666668,-2.2356598333333344,0.3015986466666652
-9.129343,-2.1016160000000013,0.31117319999999854
-9.129343,-2.1016160000000013,0.31117319999999854
-9.225088666666666,-2.0856583666666677,0.23138519999999851
-9.320834333333336,-2.0697007333333346,0.15159719999999852
-9.416580000000003,-2.0537431000000015,0.07180919999999852
-9.403814000000002,-2.0090618333333343,0.12287352333333185
-9.391048000000003,-1.9643805666666676,0.1739378466666652
-9.378282000000004,-1.9196993000000007,0.22500216999999853
-9.378282000000006,-1.9196993000000007,0.22500216999999853
-9.349558000000007,-1.8590604333333343,0.28244953333333184
-9.320834000000007,-1.7984215666666679,0.3398968966666651
-9.292110000000008,-1.7377827000000015,0.3973442599999984
-9.292110000000008,-1.7377827000000015,0.39734425999999834
-9.279344333333341,-1.8079961333333348,0.36223753999999825
-9.266578666666675,-1.878209566666668,0.3271308199999982
-9.253813000000008,-1.9484230000000011,0.29202409999999823
-9.253813000000008,-1.9484230000000011,0.29202409999999823
-9.257004666666674,-1.9994873333333345,0.25691737999999825
-9.26019633333334,-2.0505516666666677,0.22181065999999824
-9.263388000000006,-2.1016160000000013,0.18670393999999824
-9.263388000000006,-2.1016160000000013,0.18670393999999824
-9.288920000000006,-2.037785600000001,0.2313852133333316
-9.314452000000008,-1.9739552000000014,0.27606648666666495
-9.339984000000008,-1.9101248000000013,0.32074775999999827
-9.339984000000008,-1.9101248000000013,0.3207477599999983
-9.33679233333334,-1.948423066666668,0.339896886666665
-9.333600666666674,-1.9867213333333347,0.35904601333333175
-9.330409000000008,-2.0250196000000016,0.3781951399999985
-9.330409000000008,-2.0250196000000016,0.37819513999999854
-9.339983666666674,-2.0250196000000016,0.39415274333333183
-9.34955833333334,-2.0250196000000016,0.4101103466666651
-9.359133000000005,-2.0250196000000016,0.4260679499999984
-9.359133000000005,-2.0250196000000016,0.4260679499999984
-9.359133000000005,-1.9962959000000016,0.4196849066666651
-9.359133000000005,-1.9675722000000018,0.4133018633333318
-9.359133000000005,-1.9388485000000018,0.40691881999999846
-9.336792000000004,-1.9101248333333354,0.40053577999999845
-9.314451000000005,-1.8814011666666686,0.39415273999999845
-9.292110000000006,-1.852677500000002,0.38776969999999844
-9.292110000000006,-1.8526775000000015,0.38776969999999844
-9.288918833333339,-1.868635066666668,0.3718120999999985
-9.285727666666672,-1.8845926333333345,0.35585449999999846
-9.282536500000004,-1.9005502000000007,0.3398968999999985
-9.282536500000004,-1.9005502000000007,0.3398968999999985
-9.269770333333339,-1.897358700000001,0.35266297999999846
-9.257004166666674,-1.8941672000000012,0.3654290599999985
-9.244238000000008,-1.8909757000000014,0.3781951399999985
-9.244238000000008,-1.8909757000000014,0.37819513999999854
-9.279344666666676,-1.8909757000000014,0.36542905999999853
-9.314451333333341,-1.8909757000000014,0.3526629799999985
-9.349558000000007,-1.8909757000000014,0.3398968999999985
-9.349558000000007,-1.8909757000000014,0.3398968999999985
-9.368707000000006,-1.8973587333333348,0.3462799333333318
-9.387856000000005,-1.903741766666668,0.35266296666666513
-9.407005000000003,-1.9101248000000013,0.3590459999999984
-9.39743066666667,-1.9069332666666678,0.36542904666666504
-9.387856333333337,-1.9037417333333344,0.37181209333333176
-9.378282000000004,-1.9005502000000007,0.3781951399999985
-9.378282000000004,-1.9005502000000007,0.37819513999999854
-9.378282000000004,-1.9005502000000007,0.37819513999999854
-9.324026000000003,-1.890975633333334,0.3845781799999986
-9.269770000000003,-1.8814010666666672,0.3909612199999987
-9.215514000000004,-1.8718265000000003,0.3973442599999988
-9.253812333333338,-1.8909756666666668,0.39415273999999884
-9.292110666666673,-1.9101248333333336,0.39096121999999883
-9.330409000000008,-1.9292740000000004,0.3877696999999989
-9.330409000000008,-1.9292740000000006,0.3877696999999989
-9.346366666666677,-1.9324655000000004,0.3845781799999988
-9.362324333333344,-1.9356570000000002,0.3813866599999989
-9.378282000000011,-1.9388485,0.37819513999999893
-9.378282000000013,-1.9388485,0.378195139999999
-9.365516000000014,-1.9260824,0.378195139999999
-9.352750000000015,-1.9133163000000002,0.378195139999999
-9.339984000000015,-1.9005502000000005,0.378195139999999
-9.339984000000015,-1.9005502000000007,0.378195139999999
-9.33040933333335,-1.875018033333334,0.37181209333333226
-9.320834666666684,-1.849485866666667,0.3654290466666656
-9.311260000000019,-1.8239537,0.35904599999999887
-9.31126000000002,-1.8239537,0.35904599999999887
-9.295302666666688,-1.8175707,0.3494714433333322
-9.279345333333355,-1.8111877000000003,0.33989688666666557
-9.263388000000022,-1.8048047000000003,0.3303223299999989
-9.263388000000022,-1.8048047000000003,0.3303223299999989
-9.29849466666669,-1.8016131333333336,0.3367053699999989
-9.333601333333355,-1.798421566666667,0.3430884099999989
-9.368708000000021,-1.7952300000000003,0.3494714499999989
-9.368708000000021,-1.7952300000000003,0.3494714499999989
-9.359133333333356,-1.7760809000000002,0.3558544899999989
-9.34955866666669,-1.7569318000000003,0.3622375299999989
-9.339984000000024,-1.7377827000000003,0.3686205699999989
-9.330409333333359,-1.7377827000000003,0.37181209333333226
-9.320834666666693,-1.7377827000000003,0.37500361666666554
-9.311260000000027,-1.7377827000000003,0.3781951399999988
-9.31126000000003,-1.7377827000000003,0.3781951399999988
-9.31126000000003,-1.7377827000000003,0.3781951399999988
-9.324026000000028,-1.7505488,0.3781951399999988
-9.336792000000028,-1.7633149,0.3781951399999988
-9.349558000000027,-1.7760809999999996,0.3781951399999988
-9.352749666666691,-1.792038566666666,0.3877696999999989
-9.355941333333357,-1.8079961333333323,0.39734425999999895
-9.359133000000023,-1.8239536999999988,0.40691881999999896
-9.359133000000023,-1.8239536999999988,0.40691881999999896
-9.359133000000023,-1.820762199999999,0.39415273666666567
-9.359133000000023,-1.8175706999999992,0.3813866533333323
-9.359133000000023,-1.8143791999999994,0.368620569999999
-9.359133000000023,-1.8143791999999994,0.368620569999999
-9.34636666666669,-1.8239537666666659,0.35585448999999897
-9.333600333333356,-1.8335283333333325,0.34308840999999896
-9.320834000000021,-1.843102899999999,0.33032232999999894
-9.320834000000021,-1.843102899999999,0.33032232999999894
-9.333600333333356,-1.8303368333333323,0.33351385333333233
-9.34636666666669,-1.8175707666666658,0.33670537666666567
-9.359133000000023,-1.8048046999999992,0.339896899999999
-9.359133000000023,-1.8048046999999992,0.339896899999999
-9.352750000000023,-1.811187699999999,0.3430884166666657
-9.346367000000024,-1.817570699999999,0.34627993333333235
-9.339984000000024,-1.8239536999999988,0.34947144999999896
-9.339984000000024,-1.8239536999999988,0.34947144999999896
-9.343175333333358,-1.8143791333333323,0.3686205733333323
-9.346366666666691,-1.8048045666666657,0.38776969666666566
-9.349558000000025,-1.7952299999999992,0.40691881999999896
-9.36551566666669,-1.7952299999999992,0.39734425999999895
-9.381473333333355,-1.7952299999999992,0.3877696999999989
-9.39743100000002,-1.7952299999999992,0.3781951399999988
-9.39743100000002,-1.7952299999999992,0.3781951399999988
-9.384665000000021,-1.7984215666666659,0.3973442599999988
-9.371899000000022,-1.8016131333333325,0.41649337999999875
-9.359133000000023,-1.8048046999999992,0.43564249999999866
-9.359133000000023,-1.8048046999999992,0.43564249999999866
-9.359133000000023,-1.7984216333333325,0.4484085766666654
-9.359133000000023,-1.7920385666666656,0.4611746533333321
-9.359133000000023,-1.785655499999999,0.47394072999999876
-9.359133000000023,-1.785655499999999,0.47394072999999876
-9.355941333333357,-1.788846999999999,0.47713225333333215
-9.352749666666691,-1.7920384999999992,0.4803237766666654
-9.349558000000025,-1.7952299999999992,0.4835152999999987
-9.349558000000025,-1.7952299999999992,0.4835152999999986
-9.327217500000025,-1.8079960999999993,0.45798313999999857
-9.304877000000024,-1.8207621999999992,0.43245097999999854
-9.282536500000022,-1.8335282999999993,0.4069188199999985
-9.282536500000022,-1.8335282999999993,0.4069188199999985
-9.324026000000023,-1.8207621999999992,0.38457817999999855
-9.365515500000022,-1.8079960999999993,0.3622375399999986
-9.407005000000021,-1.7952299999999992,0.33989689999999856
-9.407005000000021,-1.7952299999999992,0.33989689999999856
-9.391047666666688,-1.779272399999999,0.34947145666666524
-9.375090333333356,-1.763314799999999,0.3590460133333319
-9.359133000000023,-1.7473571999999988,0.36862056999999854
-9.333600833333357,-1.7505487666666657,0.36862056999999854
-9.30806866666669,-1.7537403333333323,0.36862056999999854
-9.282536500000022,-1.756931899999999,0.36862056999999854
-9.282536500000022,-1.756931899999999,0.36862056999999854
-9.282536500000022,-1.756931899999999,0.36862056999999854
-9.272962000000023,-1.7665064333333322,0.3877696966666652
-9.263387500000023,-1.7760809666666653,0.40691882333333185
-9.253813000000024,-1.7856554999999983,0.4260679499999985
-9.276153333333356,-1.7856554999999983,0.4388340233333319
-9.298493666666689,-1.7856554999999983,0.4516000966666653
-9.320834000000021,-1.7856554999999983,0.46436616999999863
-9.320834000000021,-1.7856554999999983,0.46436616999999875
-9.33040866666669,-1.7824639999999983,0.4675576899999987
-9.339983333333358,-1.7792724999999985,0.47074920999999864
-9.349558000000025,-1.7760809999999987,0.47394072999999864
-9.349558000000025,-1.776080999999999,0.47394072999999864
-9.333600333333358,-1.7633148999999992,0.4643661766666653
-9.317642666666691,-1.7505487999999996,0.45479162333333195
-9.301685000000022,-1.7377826999999997,0.4452170699999986
-9.301685000000022,-1.7377826999999997,0.4452170699999986
-9.28572766666669,-1.7345911999999999,0.4452170699999986
-9.269770333333357,-1.7313997,0.4452170699999986
-9.253813000000024,-1.7282082000000003,0.4452170699999986
-9.253813000000024,-1.7282082000000003,0.4452170699999986
-9.285728000000026,-1.7888470666666672,0.4196849033333319
-9.317643000000025,-1.8494859333333338,0.3941527366666653
-9.349558000000025,-1.9101248000000004,0.36862056999999865
-9.410197000000025,-1.9101248000000004,0.3973442599999986
-9.470836000000025,-1.9101248000000004,0.42606794999999864
-9.531475000000023,-1.9101248000000004,0.45479163999999866
-9.531475000000023,-1.9101248000000004,0.45479163999999866
-9.531475000000023,-1.9101248000000004,0.45479163999999866
-9.48679366666669,-1.865443533333334,0.4835153066666653
-9.442112333333355,-1.820762266666667,0.512238973333332
-9.39743100000002,-1.7760810000000002,0.5409626399999986
-9.381473333333355,-1.7696979666666668,0.5569202599999986
-9.36551566666669,-1.7633149333333336,0.5728778799999986
-9.349558000000025,-1.7569319000000003,0.5888354999999986
-9.349558000000025,-1.7569319000000003,0.5888354999999986
-9.311260000000026,-1.7313997333333333,0.5696863666666653
-9.272962000000026,-1.7058675666666663,0.5505372333333319
-9.234664000000025,-1.6803353999999995,0.5313880999999986
-9.234664000000025,-1.6803353999999995,0.5313880999999986
-9.269770666666693,-1.705867566666666,0.4994728999999986
-9.304877333333359,-1.731399733333333,0.46755769999999863
-9.339984000000024,-1.7569318999999999,0.43564249999999866
-9.339984000000024,-1.7569319000000003,0.43564249999999866
-9.336792333333358,-1.7633149333333336,0.4196848999999987
-9.333600666666692,-1.7696979666666668,0.40372729999999873
-9.330409000000026,-1.7760810000000002,0.3877696999999987
-9.330409000000028,-1.7760810000000002,0.3877696999999987
-9.346366666666695,-1.7633149000000004,0.40691882333333207
-9.362324333333364,-1.7505488000000007,0.4260679466666654
-9.37828200000003,-1.737782700000001,0.4452170699999987
-9.378282000000032,-1.737782700000001,0.4452170699999987
-9.362324333333367,-1.7409742000000008,0.47394074666666536
-9.346366666666702,-1.7441657000000006,0.502664423333332
-9.330409000000037,-1.7473572000000004,0.5313880999999987
-9.330409000000037,-1.7473572000000004,0.5313880999999987
-9.295302333333371,-1.7282081000000005,0.5409626533333319
-9.260195666666705,-1.7090590000000005,0.5505372066666653
-9.225089000000038,-1.6899099000000006,0.5601117599999985
-9.279344833333372,-1.6867184000000008,0.5664948066666652
-9.333600666666706,-1.683526900000001,0.572877853333332
-9.387856500000039,-1.6803354000000013,0.5792608999999986
-9.38785650000004,-1.6803354000000013,0.5792608999999986
-9.38785650000004,-1.6803354000000013,0.5792608999999986
-9.365515666666708,-1.6548032333333345,0.576069383333332
-9.343174833333373,-1.6292710666666679,0.5728778666666653
-9.32083400000004,-1.6037389000000013,0.5696863499999987
-9.27615266666671,-1.600547400000001,0.550537233333332
-9.231471333333376,-1.5973559000000013,0.5313881166666654
-9.186790000000045,-1.5941644000000015,0.5122389999999988
-9.186790000000045,-1.5941644000000015,0.5122389999999988
-9.272961333333377,-1.6643778333333348,0.47074923333333213
-9.35913266666671,-1.734591266666668,0.42925946666666553
-9.445304000000043,-1.8048047000000011,0.3877696999999989
-9.445304000000043,-1.8048047000000011,0.3877696999999989
-9.397431000000042,-1.7920386000000013,0.4228764166666656
-9.349558000000043,-1.7792725000000011,0.45798313333333224
-9.301685000000042,-1.766506400000001,0.49308984999999894
-9.301685000000042,-1.766506400000001,0.49308984999999894
-9.308068000000041,-1.7473572666666677,0.5122389666666657
-9.314451000000041,-1.7282081333333343,0.5313880833333323
-9.32083400000004,-1.709059000000001,0.550537199999999
-9.32083400000004,-1.709059000000001,0.550537199999999
-9.352749333333376,-1.7218250666666677,0.5409626666666657
-9.38466466666671,-1.7345911333333344,0.5313881333333322
-9.416580000000046,-1.7473572000000008,0.5218135999999989
-9.416580000000048,-1.7473572000000008,0.5218135999999988
-9.403814000000049,-1.7537402666666677,0.5218135999999988
-9.39104800000005,-1.7601233333333344,0.5218135999999988
-9.37828200000005,-1.766506400000001,0.5218135999999988
-9.38466500000005,-1.7601233333333344,0.5122390166666654
-9.39104800000005,-1.7537402666666677,0.502664433333332
-9.397431000000049,-1.7473572000000008,0.49308984999999866
-9.397431000000049,-1.7473572000000008,0.49308984999999866
-9.458070000000049,-1.744165700000001,0.4739407333333319
-9.51870900000005,-1.7409742000000012,0.45479161666666523
-9.579348000000047,-1.7377827000000015,0.43564249999999854
-9.579348000000047,-1.7377827000000015,0.43564249999999854
-9.505943000000048,-1.696292933333335,0.48032378333333187
-9.432538000000049,-1.6548031666666685,0.5250050666666654
-9.359133000000051,-1.613313400000002,0.5696863499999988
-9.359133000000051,-1.613313400000002,0.5696863499999988
-9.355941333333385,-1.6260795000000021,0.5728778666666655
-9.35274966666672,-1.6388456000000022,0.5760693833333321
-9.349558000000053,-1.6516117000000021,0.5792608999999987
-9.349558000000053,-1.6516117000000021,0.5601117999999988
-9.349558000000053,-1.6516117000000021,0.5409626999999989
-9.349558000000053,-1.6516117000000021,0.521813599999999
-9.349558000000053,-1.6516117000000021,0.5218135999999991
-9.349558000000053,-1.6516117000000021,0.5218135999999991
-9.333600333333386,-1.6292710333333353,0.5186220666666658
-9.31764266666672,-1.6069303666666688,0.5154305333333323
-9.30168500000005,-1.5845897000000022,0.512238999999999
-9.295302166666717,-1.5973558000000019,0.5026644333333322
-9.288919333333384,-1.6101219000000018,0.4930898666666656
-9.28253650000005,-1.6228880000000014,0.4835152999999989
-9.28253650000005,-1.6228880000000014,0.4835152999999989
-9.269770333333385,-1.6675693000000014,0.45160009999999895
-9.25700416666672,-1.7122506000000015,0.419684899999999
-9.244238000000054,-1.7569319000000014,0.38776969999999905
-9.244238000000056,-1.7569319000000014,0.38776969999999905
-9.266578666666723,-1.7856555666666682,0.39415273999999906
-9.288919333333391,-1.8143792333333348,0.40053577999999906
-9.311260000000058,-1.8431029000000017,0.40691881999999907
-9.311260000000058,-1.8431029000000017,0.40691881999999907
-9.311260000000058,-1.8526774333333351,0.44521707999999904
-9.311260000000058,-1.8622519666666684,0.483515339999999
-9.311260000000058,-1.8718265000000018,0.521813599999999
-9.311260000000058,-1.8718265000000018,0.5218135999999991
-9.288919333333391,-1.8718265000000018,0.5664948666666658
-9.266578666666723,-1.8718265000000018,0.6111761333333325
-9.244238000000056,-1.8718265000000018,0.6558573999999993
-9.244238000000056,-1.8718265000000018,0.6558573999999994
-9.279344666666722,-1.8367198000000018,0.636708266666666
-9.31445133333339,-1.8016131000000017,0.6175591333333327
-9.349558000000055,-1.7665064000000017,0.5984099999999993
-9.35274966666672,-1.7441657666666683,0.5824523999999993
-9.355941333333385,-1.7218251333333348,0.5664947999999993
-9.359133000000051,-1.6994845000000014,0.5505371999999994
-9.359133000000051,-1.6994845000000012,0.5505371999999994
-9.359133000000051,-1.6994845000000012,0.5601117666666661
-9.359133000000051,-1.6994845000000012,0.5696863333333327
-9.359133000000051,-1.6994845000000012,0.5792608999999994
-9.359133000000051,-1.6994845000000012,0.5792608999999994
-9.349558333333386,-1.718633633333334,0.5952184999999993
-9.33998366666672,-1.7377827666666672,0.6111760999999993
-9.330409000000055,-1.7569319000000003,0.6271336999999994
-9.330409000000056,-1.7569319000000003,0.6271336999999994
-9.317642666666723,-1.7601234000000001,0.6079845833333327
-9.304876333333388,-1.7633149,0.5888354666666661
-9.292110000000054,-1.7665063999999997,0.5696863499999995
-9.292110000000052,-1.7665063999999997,0.5696863499999995
-9.308068000000054,-1.7601233333333328,0.5473457166666661
-9.324026000000053,-1.7537402666666662,0.5250050833333328
-9.339984000000053,-1.7473571999999995,0.5026644499999996
-9.339984000000053,-1.7473571999999995,0.5026644499999996
-9.339984000000053,-1.7473571999999995,0.5026644499999996
-9.339984000000053,-1.7473571999999995,0.5026644499999996
-9.339984000000053,-1.7473571999999995,0.5026644499999996
-9.343175333333386,-1.7282080999999991,0.5441541999999995
-9.34636666666672,-1.7090589999999992,0.5856439499999994
-9.349558000000053,-1.6899098999999993,0.6271336999999994
-9.349558000000053,-1.6899098999999993,0.6271336999999994
-9.359132666666719,-1.747357266666666,0.6016015333333327
-9.368707333333385,-1.8048046333333325,0.576069366666666
-9.37828200000005,-1.8622519999999991,0.5505371999999994
-9.37189900000005,-1.8399113333333326,0.5345796166666661
-9.365516000000051,-1.817570666666666,0.5186220333333328
-9.359133000000051,-1.7952299999999994,0.5026644499999996
-9.359133000000051,-1.7952299999999994,0.5026644499999996
-9.365516000000051,-1.804804566666666,0.48351532333333286
-9.37189900000005,-1.8143791333333326,0.4643661966666661
-9.37828200000005,-1.823953699999999,0.4452170699999994
-9.37828200000005,-1.823953699999999,0.4452170699999994
-9.343175333333384,-1.8175706999999992,0.4484085933333328
-9.308068666666719,-1.8111876999999994,0.4516001166666661
-9.272962000000051,-1.8048046999999994,0.45479163999999944
-9.272962000000051,-1.8048046999999994,0.45479163999999944
-9.298494000000053,-1.7952301333333327,0.4484085933333328
-9.324026000000053,-1.7856555666666658,0.44202554666666605
-9.349558000000053,-1.776080999999999,0.4356424999999993
-9.349558000000053,-1.776080999999999,0.4356424999999993
-9.324026000000053,-1.7920385666666654,0.42606793999999937
-9.298494000000053,-1.8079961333333319,0.4164933799999994
-9.272962000000051,-1.8239536999999981,0.4069188199999994
-9.272962000000051,-1.8239536999999981,0.4069188199999994
-9.311260166666719,-1.830336766666665,0.4069188199999994
-9.349558333333384,-1.8367198333333317,0.4069188199999994
-9.38785650000005,-1.8431028999999983,0.4069188199999994
-9.352749833333384,-1.8207622666666652,0.42606793666666604
-9.317643166666718,-1.7984216333333318,0.44521705333333267
-9.28253650000005,-1.7760809999999985,0.4643661699999993
-9.28253650000005,-1.7760809999999985,0.4643661699999993
-9.28253650000005,-1.7760809999999985,0.4643661699999993
-9.304877000000053,-1.7728894666666648,0.4675576899999993
-9.327217500000053,-1.7696979333333314,0.47074920999999925
-9.349558000000053,-1.766506399999998,0.4739407299999992
-9.349558000000053,-1.7537403333333312,0.4611746533333325
-9.349558000000053,-1.7409742666666645,0.44840857666666584
-9.349558000000053,-1.728208199999998,0.4356424999999991
-9.349558000000053,-1.728208199999998,0.4356424999999991
-9.384665000000053,-1.715442099999998,0.4324509833333325
-9.419772000000052,-1.7026759999999976,0.4292594666666658
-9.45487900000005,-1.6899098999999973,0.42606794999999914
-9.45487900000005,-1.689909899999997,0.42606794999999914
-9.419772000000052,-1.6675692666666635,0.4420255433333325
-9.384665000000053,-1.6452286333333301,0.45798313666666585
-9.349558000000053,-1.6228879999999968,0.4739407299999992
-9.349558000000053,-1.6228879999999968,0.4739407299999992
-9.333600333333386,-1.6133134666666635,0.48670681999999926
-9.31764266666672,-1.6037389333333305,0.4994729099999992
-9.30168500000005,-1.5941643999999975,0.5122389999999991
-9.30168500000005,-1.5941643999999975,0.5122389999999991
-9.330408833333385,-1.606930433333331,0.5026644333333324
-9.359132666666717,-1.6196964666666644,0.4930898666666657
-9.38785650000005,-1.632462499999998,0.48351529999999904
-9.38785650000005,-1.632462499999998,0.48351529999999904
-9.37189900000005,-1.648420133333331,0.48351529999999904
-9.355941500000052,-1.6643777666666644,0.48351529999999904
-9.339984000000053,-1.6803353999999977,0.48351529999999904
-9.339984000000053,-1.6803353999999977,0.48351529999999904
-9.343175333333386,-1.689909933333331,0.48351529999999904
-9.34636666666672,-1.6994844666666644,0.48351529999999904
-9.349558000000053,-1.7090589999999979,0.48351529999999904
-9.362324166666719,-1.7250166333333314,0.4643661833333324
-9.375090333333384,-1.7409742666666645,0.4452170666666658
-9.38785650000005,-1.7569318999999979,0.42606794999999914
-9.38785650000005,-1.7569318999999979,0.42606794999999914
-9.38466500000005,-1.7601233999999977,0.4420255433333325
-9.38147350000005,-1.7633148999999975,0.45798313666666585
-9.37828200000005,-1.7665063999999973,0.4739407299999992
-9.37828200000005,-1.7665063999999973,0.4739407299999992
-9.346366833333384,-1.7601233333333306,0.49947288666666584
-9.314451666666718,-1.7537402666666637,0.5250050433333325
-9.28253650000005,-1.747357199999997,0.5505371999999993
-9.28253650000005,-1.747357199999997,0.5505371999999994
-9.30168566666672,-1.7601232999999972,0.5218135233333326
-9.320834833333386,-1.772889399999997,0.493089846666666
-9.339984000000053,-1.7856554999999972,0.4643661699999993
-9.339984000000053,-1.7856554999999972,0.4643661699999993
-9.387857000000054,-1.7856554999999972,0.47713226333333275
-9.435730000000055,-1.7856554999999972,0.48989835666666615
-9.483603000000054,-1.7856554999999972,0.5026644499999996
-9.483603000000054,-1.7856554999999972,0.5026644499999996
-9.426155333333389,-1.7186335666666641,0.5377711666666661
-9.368707666666722,-1.6516116333333306,0.5728778833333328
-9.311260000000056,-1.584589699999997,0.6079845999999994
-9.311260000000058,-1.5845896999999969,0.6079845999999994
-9.320834666666723,-1.5973557999999966,0.5824524333333327
-9.330409333333389,-1.6101218999999964,0.556920266666666
-9.339984000000054,-1.6228879999999961,0.5313880999999995
-9.339984000000053,-1.6228879999999961,0.5313880999999995
-9.343175333333386,-1.632462566666663,0.5090474566666661
-9.34636666666672,-1.6420371333333297,0.4867068133333327
-9.349558000000053,-1.6516116999999966,0.4643661699999993
-9.324026000000053,-1.6420371333333297,0.457983136666666
-9.298494000000053,-1.632462566666663,0.4516001033333327
-9.272962000000051,-1.6228879999999961,0.4452170699999994
-9.272962000000051,-1.6228879999999961,0.4452170699999994
-9.29211100000005,-1.6165049666666629,0.4484085933333328
-9.311260000000049,-1.6101219333333294,0.4516001166666661
-9.330409000000047,-1.6037388999999962,0.45479163999999944
-9.330409000000047,-1.6037388999999962,0.45479163999999944
-9.339983666666713,-1.6260795333333296,0.43564251333333276
-9.349558333333379,-1.6484201666666631,0.416493386666666
-9.359133000000044,-1.6707607999999965,0.3973442599999993
-9.359133000000043,-1.6707607999999965,0.3973442599999992
-9.34636666666671,-1.6771438333333297,0.40372730666666595
-9.333600333333374,-1.6835268666666632,0.4101103533333326
-9.32083400000004,-1.6899098999999964,0.41649339999999935
-9.32083400000004,-1.6899098999999964,0.41649339999999935
-9.333600333333374,-1.6994844999999963,0.426067956666666
-9.34636666666671,-1.7090590999999964,0.43564251333333265
-9.359133000000043,-1.7186336999999963,0.4452170699999993
-9.359133000000043,-1.7186336999999963,0.4452170699999993
-9.34636666666671,-1.6994845333333297,0.45798314666666595
-9.333600333333374,-1.6803353666666634,0.47074922333333263
-9.32083400000004,-1.6611861999999968,0.48351529999999937
-9.32083400000004,-1.6611861999999968,0.48351529999999937
-9.352749333333376,-1.6867183666666632,0.4516000999999994
-9.38466466666671,-1.7122505333333295,0.4196848999999994
-9.416580000000046,-1.737782699999996,0.3877696999999995
-9.419771666666714,-1.7122505333333293,0.41968489999999953
-9.42296333333338,-1.686718366666663,0.45160009999999945
-9.426155000000046,-1.6611861999999966,0.4835152999999994
-9.426155000000044,-1.6611861999999966,0.48351529999999937
-9.387856666666709,-1.6420370999999963,0.48989834999999937
-9.349558333333375,-1.6228879999999961,0.4962813999999994
-9.31126000000004,-1.603738899999996,0.5026644499999994
-9.311260000000038,-1.603738899999996,0.5026644499999994
-9.34317500000004,-1.6133134333333292,0.48670684666666614
-9.37509000000004,-1.6228879666666627,0.47074924333333285
-9.407005000000039,-1.6324624999999962,0.45479163999999955
-9.40700500000004,-1.6324624999999962,0.45479163999999955
-9.368706666666709,-1.6675692333333296,0.45479163999999955
-9.330408333333375,-1.7026759666666627,0.45479163999999955
-9.292110000000044,-1.737782699999996,0.45479163999999955
-9.292110000000044,-1.7377826999999957,0.45479163999999955
-9.314451000000043,-1.7920385333333286,0.4579831499999995
-9.336792000000044,-1.8462943666666618,0.4611746599999995
-9.359133000000043,-1.900550199999995,0.4643661699999995
-9.359133000000043,-1.900550199999995,0.46436616999999963
-9.330409333333376,-1.935656899999995,0.4388340133333329
-9.301685666666708,-1.970763599999995,0.4133018566666662
-9.272962000000042,-2.005870299999995,0.3877696999999995
-9.272962000000042,-2.005870299999995,0.3877696999999995
-9.311260166666708,-2.050551633333328,0.32393929333333277
-9.349558333333375,-2.095232966666661,0.2601088866666661
-9.38785650000004,-2.1399142999999943,0.19627847999999945
-9.359132666666708,-2.101616066666661,0.20266151999999946
-9.330408833333374,-2.0633178333333277,0.20904455999999946
-9.301685000000042,-2.025019599999994,0.21542759999999947
-9.301685000000042,-2.0250195999999936,0.2154275999999995
-9.301685000000042,-2.0250195999999936,0.2154275999999995
-9.26338666666671,-2.0409771999999937,0.17074632166666617
-9.225088333333376,-2.056934799999994,0.12606504333333285
-9.186790000000045,-2.072892399999994,0.08138376499999951
-9.158066333333378,-2.165446499999994,0.05425584333333285
-9.12934266666671,-2.2580005999999937,0.027127921666666183
-9.100619000000044,-2.3505546999999933,0.0
-9.100619000000044,-2.3505546999999933,0.0
-9.046363333333376,-2.4367256999999936,0.02393639999999952
-8.99210766666671,-2.5228966999999938,0.04787279999999952
-8.937852000000042,-2.609067699999994,0.07180919999999952
-8.93785200000004,-2.609067699999994,0.07180919999999952
-9.052746833333375,-2.6154506999999945,0.2601088866666662
-9.167641666666707,-2.621833699999994,0.4484085733333329
-9.28253650000004,-2.6282166999999936,0.6367082599999996
-9.282536500000042,-2.628216699999993,0.6367082599999996
-9.272962000000042,-2.468640799999993,0.7899012066666664
-9.263387500000043,-2.309064899999993,0.943094153333333
-9.253813000000044,-2.149488999999993,1.0962870999999996
-9.253813000000044,-2.149488999999993,1.0962870999999994
-9.474027666666709,-2.2611921333333265,1.2430970333333329
-9.694242333333376,-2.3728952666666596,1.3899069666666666
-9.914457000000041,-2.484598399999993,1.5367169
-9.914457000000041,-2.4845983999999937,1.5367169
-9.263387000000042,-2.3314054666666606,1.4824610666666667
-8.612317000000042,-2.1782125333333275,1.4282052333333333
-7.961247000000043,-2.0250195999999945,1.3739493999999999
-7.961247000000043,-2.0250195999999945,1.3739493999999999
-7.370815766666709,-1.8686350999999946,1.310119
-6.780384533333375,-1.7122505999999948,1.2462886
-6.189953300000042,-1.5558660999999951,1.1824582000000001
-7.648478200000042,-2.0633177333333284,1.02288219
-9.107003100000043,-2.5707693666666622,0.86330618
-10.565528000000043,-3.0782209999999957,0.70373017
-10.565528000000043,-3.0782209999999957,0.70373017
-13.57832266666671,-5.191007333333329,0.40372728666666674
-16.591117333333376,-7.303793666666663,0.1037244033333334
-19.603912000000047,-9.416579999999996,-0.19627847999999995
-19.603912000000047,-9.416579999999994,-0.19627847999999995
-16.20494300000005,-10.57829333333333,0.24415128000000008
-12.805974000000049,-11.740006666666664,0.6845810400000002
-9.407005000000048,-12.901719999999997,1.1250108000000003
-9.407005000000048,-12.901719999999997,1.1250108
-5.660160566666714,-11.647452666666666,1.1888412333333334
-1.9133161333333806,-10.393185333333335,1.2526716666666668
1.833528299999953,-9.138918000000004,1.3165021000000001
1.833528299999953,-9.138918000000006,1.3165021000000001
5.08249586666662,-7.654861200000005,1.9994874000000002
8.331463433333287,-6.170804400000005,2.6824727000000004
11.580430999999955,-4.686747600000005,3.3654580000000007
11.580430999999953,-4.686747600000005,3.3654580000000007
10.916594833333287,-6.027186066666672,3.0399229333333344
10.25275866666662,-7.367624533333338,2.7143878666666676
9.588922499999954,-8.708063000000005,2.388852800000001
4.514405333333287,-12.336821000000002,2.3728952000000008
-0.5601118333333801,-15.965579000000004,2.3569376000000006
-5.6346290000000465,-19.594337000000003,2.3409800000000005
-5.6346290000000465,-19.594337000000007,2.3409800000000005
-5.6346290000000465,-19.594337000000007,2.3409800000000005
-10.281482666666713,-19.58157133333334,1.4920356533333339
-14.928336333333377,-19.568805666666673,0.6430913066666673
-19.575190000000045,-19.556040000000007,-0.20585303999999946
-18.35922033333338,-16.265582666666674,-1.776081026666666
-17.143250666666713,-12.975125333333343,-3.346309013333333
-15.927281000000049,-9.684668000000011,-4.916537
-15.927281000000049,-9.68466800000001,-4.916537
-13.243212666666714,-5.056963666666676,-4.763344000000001
-10.55914433333338,-0.42925933333334204,-4.610151000000001
-7.875076000000047,4.1984449999999915,-4.456958000000002
-7.875076000000047,4.1984449999999915,-4.456958000000003
-7.683584800000048,6.154846666666658,-4.5782357333333366
-7.492093600000049,8.111248333333325,-4.69951346666667
-7.30060240000005,10.067649999999993,-4.820791200000005
-7.30060240000005,10.067649999999993,-4.820791200000005
-10.179353600000049,9.35913256666666,-4.932494466666671
-13.058104800000047,8.650615133333325,-5.044197733333337
-15.936856000000047,7.942097699999991,-5.155901000000003
-15.936856000000047,7.942097699999991,-5.155901000000003
-17.159208000000046,0.7484111333333244,-4.638874666666669
-18.381560000000047,-6.445275433333342,-4.121848333333335
-19.603912000000047,-13.638962000000008,-3.6048220000000017
-19.603912000000047,-13.638962000000008,-3.6048220000000017
-16.56558500000005,-15.62408700000001,-2.318639380000002
-13.527258000000048,-17.60921200000001,-1.0324567600000016
-10.488931000000049,-19.594337000000014,0.25372585999999836
-10.488931000000049,-19.594337000000014,0.25372585999999836
-3.8569523333333824,-17.01239733333335,-0.08138376000000164
2.7750263333332836,-14.430457666666683,-0.4164933800000017
9.40700499999995,-11.848518000000018,-0.7516030000000016
10.734677666666618,-9.37509000000002,-0.5345796266666681
12.062350333333285,-6.90166200000002,-0.31755625333333487
13.390022999999951,-4.42823400000002,-0.10053288000000153
13.390022999999951,-4.428234000000021,-0.10053288000000153
12.582568333333285,-6.604850666666688,0.2154276133333318
11.775113666666618,-8.781467333333355,0.5313881066666651
10.96765899999995,-10.958084000000019,0.8473485999999983
10.96765899999995,-10.958084000000019,0.8473485999999983
7.47613594999995,-13.836835000000017,0.39734424999999834
3.9846128999999504,-16.715586000000016,-0.05266010000000165
0.49308984999995076,-19.594337000000014,-0.5026644500000016
0.49308984999995076,-19.594337000000014,-0.5026644500000016
-5.0793041000000505,-19.594337000000014,-1.0196906666666683
-10.651698050000052,-19.594337000000014,-1.536716883333335
-16.224092000000052,-19.594337000000014,-2.0537431000000015
-16.224092000000052,-19.594337000000014,-2.0537431000000015
-16.026218000000053,-17.883682666666683,-2.5484287333333344
-15.828344000000053,-16.17302833333335,-3.0431143666666673
-15.630470000000054,-14.462374000000016,-3.5378000000000003
-15.630470000000054,-14.462374000000016,-3.5377999999999994
-13.128318333333388,-8.609125866666682,-3.563332199999999
-10.62616666666672,-2.755877733333348,-3.5888643999999985
-8.124015000000052,3.097370399999985,-3.614396599999998
-8.124015000000052,3.097370399999985,-3.614396599999998
-7.661244500000052,5.041006266666653,-3.5665237999999975
-7.1984740000000516,6.98464213333332,-3.518650999999997
-6.735703500000052,8.928277999999988,-3.4707781999999967
-8.22933500000005,8.095291166666655,-3.834611566666663
-9.72296650000005,7.262304333333323,-4.19844493333333
-11.21659800000005,6.429317499999992,-4.562278299999997
-11.21659800000005,6.429317499999992,-4.562278299999998
-11.21659800000005,6.429317499999992,-4.562278299999998
-13.712366333333385,2.305873333333324,-4.536746033333331
-16.20813466666672,-1.817570833333343,-4.511213766666665
-18.703903000000057,-5.94101500000001,-4.485681499999999
-18.42943233333339,-10.492122333333343,-3.540991566666666
-18.154961666666726,-15.043229666666678,-2.596301633333333
-17.880491000000063,-19.594337000000014,-1.6516116999999995
-17.880491000000067,-19.594337000000014,-1.6516116999999995
-13.252787000000067,-19.236887333333346,-1.4090561566666662
-8.625083000000068,-18.87943766666668,-1.1665006133333329
-3.9973790000000675,-18.52198800000001,-0.9239450699999997
-3.9973790000000675,-18.52198800000001,-0.9239450699999997
0.14521433333326592,-14.781526133333344,-0.6111760996666663
4.287807666666599,-11.041064266666679,-0.298407129333333
8.430400999999932,-7.300602400000012,0.014361841000000338
8.430400999999934,-7.300602400000012,0.014361841000000338
9.786796999999932,-5.893141933333344,0.8473485606666671
11.14319299999993,-4.485681466666676,1.6803352803333338
12.49958899999993,-3.0782210000000085,2.513322
12.49958899999993,-3.0782210000000085,2.513322
12.183628333333262,-5.503776333333342,2.130339633333333
11.867667666666597,-7.929331666666674,1.747357266666666
11.55170699999993,-10.354887000000007,1.364374899999999
11.55170699999993,-10.354887000000007,1.364374899999999
8.044226433333263,-13.434703666666676,0.2058530666666655
4.536745866666595,-16.514520333333344,-0.952668766666668
1.0292652999999283,-19.594337000000014,-2.111190600000002
-4.808024800000072,-19.45071900000001,-2.7399200666666683
-10.645314900000072,-19.307101000000014,-3.368649533333335
-16.48260500000007,-19.163483000000014,-3.997379000000002
-16.48260500000007,-19.163483000000014,-3.997379000000002
-14.93471800000007,-16.054942333333347,-4.128231333333335
-13.38683100000007,-12.946401666666683,-4.259083666666668
-11.838944000000069,-9.837861000000018,-4.389936000000001
-11.838944000000069,-9.83786100000002,-4.389936000000002
-10.214460233333403,-4.319722666666686,-4.15376346666667
-8.589976466666736,1.1984156666666472,-3.9175909333333365
-6.96549270000007,6.716553999999981,-3.681418400000003
-6.96549270000007,6.716553999999981,-3.681418400000003
-7.022940133333404,6.805916666666647,-3.8154622666666693
-7.080387566666739,6.895279333333313,-3.9495061333333363
-7.137835000000074,6.98464199999998,-4.083550000000003
-7.137835000000074,6.98464199999998,-4.083550000000003
-8.637849333333406,6.027185899999979,-4.11546516666667
-10.137863666666739,5.069729799999979,-4.147380333333337
-11.637878000000072,4.112273699999978,-4.179295500000003
-11.637878000000072,4.112273699999978,-4.179295500000003
-14.044284666666739,-0.6271335333333553,-4.102699100000003
-16.450691333333406,-5.366540766666688,-4.026102700000004
-18.857098000000075,-10.105948000000021,-3.9495063000000035
-18.857098000000075,-10.105948000000021,-3.9495063000000035
-18.04326033333341,-13.268744333333354,-2.1718295333333373
-17.229422666666743,-16.431540666666688,-0.3941527666666708
-16.415585000000075,-19.59433700000002,1.383523999999996
-11.155959420000075,-18.592200333333352,1.147351499999996
-5.896333840000075,-17.59006366666669,0.9111789999999961
-0.6367082600000747,-16.587927000000025,0.675006499999996
-0.6367082600000746,-16.58792700000003,0.675006499999996
-0.6367082600000746,-16.58792700000003,0.675006499999996
1.9835297266665919,-13.651728100000028,0.5218135333333294
4.6037677133332595,-10.715529200000027,0.3686205666666627
7.224005699999926,-7.7793303000000265,0.21542759999999606
9.068704133333258,-6.7803845333333586,0.7675605666666628
10.913402566666592,-5.7814387666666915,1.3196935333333295
12.758100999999927,-4.7824930000000245,1.8718264999999963
12.75810099999993,-4.7824930000000245,1.8718264999999963
12.308096999999933,-7.083579000000025,1.9196993333333294
11.858092999999934,-9.384665000000025,1.967572166666663
11.408088999999938,-11.685751000000025,2.0154449999999966
11.408088999999938,-11.685751000000025,2.0154449999999966
7.731457713333271,-14.321946333333358,1.1441599999999965
4.0548264266666045,-16.95814166666669,0.2728749999999966
0.378195139999938,-19.594337000000024,-0.5984100000000034
0.378195139999938,-19.594337000000024,-0.5984100000000034
-5.478244573333395,-19.50816633333336,-1.4728865666666702
-11.334684286666729,-19.421995666666692,-2.347363133333337
-17.191124000000062,-19.33582500000003,-3.221839700000004
-17.191124000000062,-19.33582500000003,-3.221839700000004
-16.17941200000006,-16.728353000000027,-3.700567800000004
-15.167700000000062,-14.120881000000026,-4.179295900000004
-14.155988000000065,-11.513409000000024,-4.658024000000005
-14.155988000000065,-11.513409000000024,-4.658024000000005
-12.381502666666732,-5.433563133333358,-4.201636500000004
-10.607017333333397,0.6462827333333081,-3.7452490000000034
-8.832532000000064,6.726128599999974,-3.288861500000003
-8.832532000000064,6.726128599999974,-3.288861500000003
-8.452741000000065,7.300602399999975,-3.31439366666667
-8.072950000000064,7.875076199999975,-3.339925833333337
-7.693159000000065,8.449549999999975,-3.365458000000004
-9.020831333333398,6.914428666666642,-3.71333376666667
-10.34850366666673,5.379307333333308,-4.0612095333333365
-11.676176000000062,3.8441859999999752,-4.409085300000002
-11.676176000000062,3.8441859999999752,-4.409085300000002
-11.676176000000062,3.8441859999999752,-4.409085300000002
-14.021943333333397,-0.9622433333333581,-4.498447766666668
-16.367710666666728,-5.768672666666691,-4.587810233333334
-18.713478000000062,-10.575102000000024,-4.677172700000001
-18.496454666666732,-13.58151366666669,-3.240988656666667
-18.279431333333402,-16.587925333333356,-1.8048046133333333
-18.062408000000072,-19.59433700000002,-0.36862057000000004
-18.062408000000072,-19.59433700000002,-0.36862057000000004
-13.11555190000007,-18.994331666666685,-0.02074488000000006
-8.168695800000071,-18.394326333333353,0.32713080999999994
-3.2218397000000714,-17.79432100000002,0.6750065
-3.2218397000000714,-17.79432100000002,0.6750065
0.7292621999999286,-14.14322180000002,0.4739407333333334
4.680364099999928,-10.49212260000002,0.2728749666666667
8.631465999999929,-6.84102340000002,0.07180920000000009
8.631465999999929,-6.84102340000002,0.07180920000000009
9.81232833333326,-6.110165266666686,0.6813895333333334
10.993190666666592,-5.379307133333352,1.2909698666666667
12.174052999999924,-4.648449000000018,1.9005502000000003
12.174052999999924,-4.648449000000018,1.9005502000000003
12.282564999999925,-6.375061333333352,2.2899157000000003
12.391076999999925,-8.101673666666684,2.6792812000000006
12.499588999999924,-9.828286000000018,3.068646700000001
10.038926766666592,-12.911294666666684,1.667569333333334
7.578264533333258,-15.99430333333335,0.2664919666666674
5.117602299999926,-19.077312000000017,-1.134585399999999
5.117602299999926,-19.077312000000017,-1.134585399999999
-2.8580061333334066,-19.249653666666685,-1.4026730999999992
-10.83361456666674,-19.421995333333353,-1.6707607999999992
-18.809223000000074,-19.59433700000002,-1.938848499999999
-18.809223000000074,-19.594337000000024,-1.938848499999999
-18.22198333333341,-17.519849000000026,-2.822899499999999
-17.63474366666674,-15.445361000000029,-3.7069504999999983
-17.047504000000075,-13.370873000000032,-4.591001499999998
-17.047504000000075,-13.370873000000032,-4.591001499999997
-14.612374333333406,-6.311230666666699,-5.162283666666664
-12.177244666666738,0.7484116666666338,-5.733565833333331
-9.742115000000071,7.8080539999999665,-6.304847999999999
-9.742115000000071,7.8080539999999665,-6.304848
-9.767647000000073,8.7559353333333,-6.311230999999999
-9.793179000000073,9.703816666666635,-6.317613999999999
-9.818711000000073,10.651697999999968,-6.3239969999999985
-9.818711000000073,10.651697999999966,-6.3239969999999985
-11.146383666666742,8.637848999999965,-6.030377199999999
-12.474056333333408,6.623999999999966,-5.736757399999999
-13.801729000000075,4.6101509999999655,-5.4431376
-13.801729000000075,4.610150999999965,-5.4431376
-15.649619333333407,-1.125010666666702,-3.9846128999999997
-17.49750966666674,-6.860172333333369,-2.5260882
-19.345400000000076,-12.595334000000037,-1.0675634999999997
-19.34540000000008,-12.595334000000037,-1.0675634999999997
-17.663468666666745,-14.928335000000034,0.16755480000000023
-15.981537333333412,-17.261336000000036,1.4026731000000003
-14.299606000000077,-19.594337000000035,2.6377914000000007
-9.301685456666744,-18.86986200000004,2.3026817666666677
-4.303764913333411,-18.145387000000042,1.967572133333335
0.6941556299999228,-17.420912000000044,1.6324625000000015
0.6941556299999228,-17.420912000000044,1.6324625000000015
3.397373086666589,-13.664493000000043,1.252671616666668
6.100590543333255,-9.908074000000042,0.8728807333333345
8.803807999999922,-6.151655000000041,0.4930898500000012
8.803807999999922,-6.151655000000041,0.4930898500000012
10.405951333333254,-5.698459166666709,0.9813924333333346
12.008094666666588,-5.245263333333376,1.469695016666668
13.610237999999924,-4.792067500000043,1.9579976000000017
13.610237999999924,-4.792067500000043,1.9579976000000017
13.201723333333256,-7.667627000000043,1.7058675000000016
12.793208666666589,-10.543186500000042,1.4537374000000014
12.384693999999923,-13.418746000000041,1.2016073000000012
12.384693999999925,-13.418746000000041,1.2016073000000012
6.027185866666592,-15.477276333333373,0.6143676133333346
-0.3303222666667409,-17.535806666666705,0.027127926666667967
-6.687830400000074,-19.59433700000004,-0.5601117599999986
-6.687830400000074,-19.59433700000004,-0.5601117599999986
-10.993190933333407,-19.453910666666705,-1.0739465066666654
-15.298551466666739,-19.313484333333374,-1.587781253333332
-19.603912000000072,-19.17305800000004,-2.1016159999999986
-19.603912000000072,-19.17305800000004,-2.1016159999999986
-17.720915333333405,-14.800675200000038,-2.7814097999999987
-15.83791866666674,-10.428292400000037,-3.461203599999999
-13.954922000000074,-6.055909600000039,-4.140997399999999
-12.040010000000075,-0.7516030666667053,-3.939931599999999
-10.125098000000076,4.552703466666628,-3.7388657999999992
-8.210186000000077,9.857009999999962,-3.5377999999999994
-8.210186000000077,9.857009999999962,-3.5377999999999994
-8.210186000000077,9.857009999999962,-3.5377999999999994
-8.91232033333341,9.391048333333295,-3.7101421
-9.614454666666743,8.925086666666628,-3.8824842000000004
-10.316589000000077,8.45912499999996,-4.054826300000001
-12.375119333333409,5.822929066666627,-3.943123133333334
-14.43364966666674,3.1867331333332936,-3.8314199666666675
-16.492180000000072,0.5505371999999605,-3.719716800000001
-16.492180000000072,0.5505371999999605,-3.719716800000001
-17.529424000000073,-5.813353866666707,-3.3526919666666672
-18.566668000000075,-12.177244933333375,-2.9856671333333336
-19.603912000000076,-18.54113600000004,-2.6186423
-19.603912000000076,-18.54113600000004,-2.6186423
-17.503892000000075,-18.89220300000004,-2.2324683333333337
-15.403872000000076,-19.24327000000004,-1.8462943666666671
-13.303852000000076,-19.594337000000042,-1.4601204000000003
-13.303852000000076,-19.594337000000042,-1.4601204000000003
-8.277207666666742,-17.56453033333338,-1.3930985000000005
-3.250563333333409,-15.534723666666716,-1.3260766000000004
1.7760809999999239,-13.504917000000049,-1.2590547000000003
1.7760809999999239,-13.504917000000049,-1.2590547000000003
5.5484576666665895,-11.194256533333382,-0.3558545000000004
9.320834333333256,-8.883596066666717,0.5473456999999996
13.093210999999924,-6.572935600000051,1.4505458999999996
13.093210999999926,-6.572935600000051,1.4505458999999996
13.307042999999927,-7.820820066666717,1.7696979333333331
13.520874999999927,-9.068704533333383,2.0888499666666664
13.73470699999993,-10.31658900000005,2.4080019999999998
13.73470699999993,-10.31658900000005,2.4080019999999998
11.28042799999993,-12.904912000000051,1.6165049866666663
8.82614899999993,-15.49323500000005,0.8250079733333329
6.37186999999993,-18.08155800000005,0.0335109599999995
1.5654406666665972,-18.585817666666717,-0.9047959266666673
-3.240988666666736,-19.090077333333383,-1.843102813333334
-8.04741800000007,-19.59433700000005,-2.7814097000000007
-8.04741800000007,-19.59433700000005,-2.7814096999999998
-11.85809300000007,-19.265610666666717,-3.122902366666666
-15.66876800000007,-18.936884333333385,-3.464395033333332
-19.479443000000067,-18.608158000000056,-3.805887699999998
-19.479443000000064,-18.608158000000056,-3.805887699999998
-16.977291333333397,-12.55384435666672,-4.243125899999998
-14.47513966666673,-6.499530713333386,-4.6803640999999985
-11.972988000000063,-0.4452170700000539,-5.117602299999999
-11.972988000000063,-0.4452170700000539,-5.1176023
-10.897445666666728,3.9558889533332793,-4.795258866666667
-9.821903333333395,8.356994976666613,-4.472915433333335
-8.746361000000062,12.758100999999945,-4.150572000000002
-8.746361000000062,12.758100999999945,-4.150572000000003
-9.898499666666728,10.239991833333276,-4.236743100000002
-11.050638333333394,7.72188266666661,-4.3229142000000005
-12.20277700000006,5.203773499999944,-4.4090853
-12.20277700000006,5.203773499999944,-4.409085299999999
-14.08577400000006,1.84948586666661,-4.026102799999999
-15.96877100000006,-1.5048017666667235,-3.6431203
-17.85176800000006,-4.859089400000057,-3.2601378000000008
-17.851768000000057,-4.859089400000057,-3.260137800000001
-18.196452000000058,-9.770838600000056,-1.9579975833333345
-18.54113600000006,-14.682587800000055,-0.6558573666666682
-18.88582000000006,-19.594337000000053,0.6462828499999985
-14.909186100000062,-19.568805333333387,1.0196906999999984
-10.93255220000006,-19.54327366666672,1.3930985499999984
-6.955918300000061,-19.517742000000055,1.7665063999999984
-6.955918300000061,-19.517742000000055,1.7665063999999984
-3.6558864000000604,-16.862397000000055,1.8175706999999983
-0.3558545000000599,-14.207052000000054,1.8686349999999985
2.9441773999999405,-11.551707000000055,1.9196992999999987
2.9441773999999405,-11.551707000000055,1.9196992999999989
6.075058933333274,-9.780413433333388,2.216510699999999
9.205940466666606,-8.009119866666722,2.5133220999999994
12.33682199999994,-6.237826300000056,2.8101334999999996
12.33682199999994,-6.237826300000056,2.8101335000000005
12.45490799999994,-7.84635253333339,2.9569434666666674
12.57299399999994,-9.454878766666722,3.1037534333333348
12.69107999999994,-11.063405000000053,3.250563400000002
12.69107999999994,-11.063405000000051,3.250563400000002
9.531474999999942,-13.524066666666718,2.695238833333336
6.371869999999941,-15.984728333333384,2.1399142666666693
3.2122649999999404,-18.44539000000005,1.5845897000000024
3.2122649999999404,-18.44539000000005,1.5845897000000022
-3.0175823333333933,-18.82837233333338,0.8186248800000023
-9.247429666666727,-19.21135466666671,0.052660060000002305
-15.477277000000063,-19.594337000000042,-0.7133047599999977
-16.65494800000006,-18.37836800000004,-1.7122505399999977
-17.83261900000006,-17.16239900000004,-2.7111963199999978
-19.010290000000058,-15.94643000000004,-3.7101420999999983
-19.010290000000058,-15.94643000000004,-3.7101420999999983
-19.010290000000058,-15.94643000000004,-3.7101420999999983
-16.03579333333339,-9.333600400000039,-3.971846733333331
-13.061296666666726,-2.7207708000000395,-4.233551366666664
-10.086800000000057,3.8920587999999605,-4.495255999999997
-9.563390333333391,6.4037850333332935,-4.271849666666664
-9.039980666666725,8.915511266666627,-4.0484433333333305
-8.51657100000006,11.427237499999961,-3.825036999999997
-8.516571000000061,11.427237499999961,-3.825036999999997
-8.838915000000062,9.76126416666663,-4.019719766666664
-9.161259000000063,8.095290833333296,-4.21440253333333
-9.483603000000064,6.429317499999962,-4.4090852999999965
-9.483603000000064,6.429317499999961,-4.4090852999999965
-11.357025000000064,3.7771641999999606,-4.5558951999999975
-13.230447000000064,1.1250108999999597,-4.702705099999998
-15.103869000000065,-1.5271424000000406,-4.849514999999999
-15.103869000000065,-1.5271424000000406,-4.849515
-16.603883333333396,-7.54954060000004,-3.2186481590000002
-18.10389766666673,-13.57193880000004,-1.587781318
-19.603912000000065,-19.59433700000004,0.043085523000000236
-19.60391200000007,-19.59433700000004,0.043085523000000236
-15.700683000000067,-19.59433700000004,0.6590489153333337
-11.797454000000066,-19.59433700000004,1.275012307666667
-7.894225000000065,-19.59433700000004,1.8909757000000003
-7.894225000000065,-19.59433700000004,1.8909757000000003
-3.690993000000065,-16.926226666666707,1.6643777666666668
0.5122389999999347,-14.258116333333376,1.4377798333333331
4.715470999999934,-11.590006000000045,1.2111818999999997
4.715470999999934,-11.590006000000045,1.2111818999999997
7.342091999999934,-9.346367133333379,1.7186335999999998
9.968712999999935,-7.102728266666712,2.2260853
12.595333999999935,-4.8590894000000455,2.733537
12.850655833333269,-5.139943133333378,3.288861466666667
13.105977666666602,-5.42079686666671,3.8441859333333337
13.361299499999935,-5.701650600000043,4.3995104000000005
13.361299499999935,-5.701650600000043,4.3995104000000005
13.361299499999935,-5.701650600000043,4.3995104000000005
10.922977899999935,-9.45168706666671,3.7133336000000003
8.484656299999935,-13.201723533333377,3.0271568
6.046334699999936,-16.951760000000043,2.34098
0.8984127999999366,-17.832619000000044,1.23352252
-4.249509100000063,-18.713478000000045,0.12606503999999985
-9.397431000000063,-19.594337000000046,-0.9813924400000001
-9.397431000000063,-19.59433700000005,-0.9813924400000001
-12.662356333333397,-19.268802333333383,-2.2069362933333334
-15.92728166666673,-18.943267666666717,-3.4324801466666663
-19.192207000000064,-18.617733000000054,-4.658024
-19.192207000000064,-18.617733000000054,-4.658024
-16.24005066666673,-12.920869466666721,-4.871855666666666
-13.287894333333393,-7.2240059333333875,-5.085687333333333
-10.33573800000006,-1.5271424000000533,-5.299518999999999
-10.335738000000061,-1.5271424000000533,-5.299518999999999
-10.061267333333396,2.62183373333328,-5.0090906666666655
-9.78679666666673,6.770809866666613,-4.718662333333332
-9.512326000000064,10.919785999999947,-4.428233999999999
-9.512326000000064,10.919785999999947,-4.428233999999999
-10.335738000000063,9.244237899999947,-4.2558919999999985
-11.159150000000063,7.568689799999947,-4.083549999999998
-11.982562000000064,5.893141699999947,-3.911207999999997
-11.982562000000064,5.893141699999947,-3.911207999999997
-13.042147000000064,2.972900799999947,-3.48354423333333
-14.101732000000064,0.0526598999999471,-3.055880466666664
-15.161317000000066,-2.867581000000053,-2.6282166999999976
-16.616649666666735,-8.443166333333386,-1.262246133333331
-18.0719823333334,-14.018751666666716,0.10372443333333574
-19.527315000000062,-19.59433700000005,1.4696950000000024
-19.52731500000006,-19.59433700000005,1.4696950000000024
-15.777279000000059,-19.571996333333384,1.8143791666666693
-12.02724300000006,-19.54965566666672,2.1590633333333358
-8.277207000000061,-19.527315000000055,2.5037475000000025
-8.277207000000063,-19.527315000000055,2.5037475000000025
-3.8314195333333956,-16.418774833333387,2.0952329333333357
0.6143679333332713,-13.310234666666721,1.6867183666666694
5.060155399999938,-10.201694500000054,1.2782038000000029
5.060155399999939,-10.201694500000054,1.2782038000000029
8.988916933333272,-8.385719466666721,1.5271424000000031
12.917678466666606,-6.569744433333388,1.7760810000000031
16.84643999999994,-4.7537694000000545,2.0250196000000034
16.84643999999994,-4.753769400000055,2.0250196000000034
16.50175549999994,-6.850597933333389,1.8367198666666702
16.15707099999994,-8.947426466666721,1.648420133333337
15.81238649999994,-11.044255000000055,1.4601204000000039
15.81238649999994,-11.044255000000055,1.4601204000000039
11.60596299999994,-13.607046000000054,0.6718149533333372
7.399539499999942,-16.169837000000054,-0.1164904933333295
3.1931159999999412,-18.73262800000005,-0.9047959399999962
3.1931159999999412,-18.73262800000005,-0.9047959399999962
-3.7931213333333917,-19.019864333333384,-1.160117559999996
-10.779358666666724,-19.30710066666672,-1.4154391799999964
-17.76559600000006,-19.594337000000056,-1.6707607999999965
-18.033684000000054,-17.63155233333339,-2.194170099999997
-18.301772000000053,-15.668767666666724,-2.717579399999997
-18.569860000000048,-13.705983000000055,-3.2409886999999973
-18.569860000000045,-13.705983000000055,-3.2409886999999973
-18.569860000000045,-13.705983000000055,-3.2409886999999973
-15.304934833333379,-6.461232333333389,-3.4356714666666637
-12.040009666666712,0.7835183333332765,-3.63035423333333
-8.775084500000046,8.028268999999943,-3.8250369999999965
-8.404868333333381,9.633603666666609,-4.230359999999995
-8.034652166666715,11.238938333333275,-4.635682999999994
-7.664436000000049,12.844272999999943,-5.041005999999993
-7.664436000000049,12.844272999999943,-5.041005999999993
-10.562336333333382,10.57829356666661,-5.545266266666661
-13.460236666666715,8.312314133333276,-6.049526533333328
-16.358137000000045,6.046334699999943,-6.553786799999995
-16.358137000000045,6.046334699999943,-6.553786799999995
-17.42410466666671,-0.9590518666667233,-5.6825017333333285
-18.490072333333377,-7.964438433333389,-4.811216666666662
-19.556040000000042,-14.969825000000057,-3.9399315999999955
-19.556040000000042,-14.969825000000057,-3.9399315999999955
-18.962417000000045,-16.511329000000057,-1.763314866666662
-18.368794000000047,-18.052833000000053,0.41330186666667146
-17.775171000000046,-19.594337000000053,2.5899186000000047
-17.775171000000046,-19.594337000000053,2.5899186000000047
-12.812357333333381,-18.75496800000005,2.3537461333333383
-7.849543666666714,-17.915599000000054,2.117573666666671
-2.8867300000000475,-17.076230000000052,1.8814012000000038
2.6314084999999525,-14.076200333333384,1.9420400666666706
8.149546999999952,-11.076170666666718,2.0026789333333372
13.667685499999953,-8.076141000000051,2.063317800000004
13.667685499999953,-8.076141000000051,2.0633178000000036
13.667685499999953,-8.076141000000051,2.0633178000000036
14.261307999999955,-8.420825333333385,2.6186422666666704
14.854930499999954,-8.765509666666718,3.1739667333333372
15.448552999999954,-9.110194000000051,3.729291200000004
12.183627999999956,-12.103839666666717,3.3750324666666707
8.918702999999956,-15.097485333333383,3.0207737333333373
5.6537779999999564,-18.09113100000005,2.666515000000004
5.6537779999999564,-18.091131000000047,2.666515000000004
-0.36862066666671023,-18.592199666666712,1.855868910000004
-6.391019333333376,-19.093268333333373,1.045222820000004
-12.413418000000043,-19.59433700000004,0.23457673000000398
-12.413418000000043,-19.59433700000004,0.23457673000000398
-14.810249333333376,-19.33582400000004,-0.9462857133333293
-17.20708066666671,-19.07731100000004,-2.1271481566666623
-19.603912000000044,-18.818798000000044,-3.308010599999996
-19.603912000000044,-18.818798000000044,-3.308010599999996
-17.353890500000045,-12.802782710000043,-4.185678733333329
-15.103869000000044,-6.786767420000042,-5.063346866666663
-12.853847500000043,-0.7707521300000408,-5.941014999999997
-12.853847500000043,-0.7707521300000408,-5.941014999999997
-11.305960333333376,3.5856729133332923,-5.66973573333333
-9.75807316666671,7.9420979566666245,-5.398456466666663
-8.210186000000043,12.298522999999959,-5.127177199999996
-8.210186000000043,12.298522999999955,-5.127177199999996
-9.751690333333377,10.651698666666622,-5.200582133333329
-11.29319466666671,9.004874333333289,-5.273987066666662
-12.834699000000043,7.358049999999957,-5.347391999999997
-12.834699000000043,7.358049999999959,-5.347391999999997
-13.667685333333376,6.084633333333291,-5.056963666666664
-14.50067166666671,4.811216666666625,-4.76653533333333
-15.333658000000042,3.5377999999999576,-4.476106999999996
-16.757076000000044,-4.022911000000042,-2.956943411666663
-18.180494000000042,-11.583622000000041,-1.4377798233333297
-19.60391200000004,-19.14433300000004,0.08138376500000355
-19.60391200000004,-19.144333000000035,0.08138376500000355
-15.971962333333373,-19.294334333333367,0.7228792766666703
-12.340012666666707,-19.4443356666667,1.364374788333337
-8.70806300000004,-19.594337000000028,2.0058703000000038
-8.70806300000004,-19.594337000000028,2.0058703000000038
-3.3941818000000405,-16.7985656666667,1.677143733333337
1.9196993999999599,-14.002794333333364,1.34841716666667
7.233580599999961,-11.20702300000003,1.019690600000003
7.233580599999961,-11.20702300000003,1.0196906000000032
9.113385733333294,-9.100619666666697,1.9324654000000032
10.993190866666628,-6.994216333333365,2.8452402000000028
12.872995999999963,-4.887813000000032,3.7580150000000025
12.872995999999963,-4.887813000000032,3.7580150000000025
12.292139333333296,-6.320805333333365,4.21121076666667
11.711282666666628,-7.753797666666699,4.664406533333337
11.130425999999963,-9.186790000000032,5.117602300000004
11.130425999999963,-9.186790000000032,5.117602300000004
8.714445399999962,-11.564472666666697,4.262274933333338
6.298464799999962,-13.942155333333366,3.4069475666666715
3.8824841999999626,-16.319838000000033,2.5516202000000052
3.8824841999999626,-16.319838000000033,2.5516202000000052
3.8824841999999626,-16.319838000000033,2.5516202000000052
3.8824841999999626,-16.319838000000033,2.5516202000000052
3.8824841999999626,-16.319838000000033,2.5516202000000052
-3.828228200000037,-16.332604333333364,0.7228792333333384
-11.538940600000037,-16.345370666666696,-1.1058617333333283
-19.249653000000034,-16.358137000000028,-2.9346026999999952
-19.249653000000038,-16.358137000000028,-2.9346026999999957
-16.434732666666704,-9.461261833333362,-4.067592466666663
-13.619812333333371,-2.564386666666696,-5.200582233333329
-10.804892000000038,4.332488499999971,-6.333571999999997
-10.804892000000038,4.332488499999971,-6.333571999999997
-10.188928666666705,7.45379499999997,-6.646340899999996
-9.572965333333372,10.575101499999969,-6.959109799999996
-8.957002000000038,13.696407999999968,-7.271878699999995
-8.957002000000038,13.696407999999968,-7.271878699999995
-10.019777666666704,11.548515133333302,-7.0420892999999944
-11.082553333333367,9.400622266666636,-6.812299899999996
-12.145329000000032,7.252729399999969,-6.582510499999997
-12.145329000000032,7.252729399999969,-6.582510499999998
-14.085773666666698,2.752685999999968,-5.618671333333332
-16.026218333333368,-1.7473574000000325,-4.654832166666664
-17.966663000000036,-6.247400800000033,-3.6909929999999984
-18.014535666666703,-10.696379533333365,-1.8431028333333312
-18.06240833333337,-15.145358266666697,0.004787333333335475
-18.11028100000004,-19.59433700000003,1.8526775000000022
-18.11028100000004,-19.594337000000035,1.8526775000000022
-13.77938810000004,-19.287951333333368,1.712250600000002
-9.448495200000039,-18.9815656666667,1.571823700000002
-5.11760230000004,-18.675180000000037,1.4313968000000017
-5.11760230000004,-18.675180000000037,1.4313968000000017
-0.9303280333333733,-16.192177333333373,1.5431000000000017
3.2569462333332933,-13.709174666666703,1.6548032000000017
7.44422049999996,-11.226172000000034,1.7665064000000017
7.44422049999996,-11.226172000000034,1.7665064000000017
10.172970333333295,-9.707008333333368,2.628216933333335
12.901720166666628,-8.1878446666667,3.489927466666669
15.630469999999962,-6.668681000000035,4.351638000000002
15.630469999999962,-6.668681000000035,4.351638000000002
13.705983333333295,-8.775084333333368,4.393127666666668
11.781496666666628,-10.8814876666667,4.4346173333333345
9.857009999999962,-12.987891000000033,4.476107
9.857009999999962,-12.987891000000033,4.476107
6.630383123333296,-15.027272333333366,3.6207796
3.4037562466666285,-17.066653666666703,2.7654522
0.1771293699999615,-19.106035000000038,1.9101248
0.1771293699999615,-19.106035000000038,1.9101248
0.1771293699999615,-19.106035000000038,1.9101248
0.1771293699999615,-19.106035000000038,1.9101248
0.1771293699999615,-19.106035000000038,1.9101248
-5.519734420000038,-17.650702000000035,0.13563959999999983
-11.216598210000038,-16.195369000000035,-1.6388456000000005
-16.913462000000038,-14.740036000000034,-3.4133308000000007
-16.913462000000038,-14.740036000000034,-3.4133308000000007
-15.046422666666706,-7.715500000000037,-3.9112080000000007
-13.179383333333371,-0.6909640000000371,-4.409085200000001
-11.312344000000039,6.333571999999962,-4.906962400000001
-11.312344000000039,6.333571999999962,-4.906962400000001
-11.155959000000038,8.679338999999962,-4.804833733333335
-10.999574000000038,11.02510599999996,-4.702705066666668
-10.843189000000038,13.37087299999996,-4.600576400000001
-10.843189000000038,13.37087299999996,-4.600576400000001
-11.309151166666704,10.757018333333292,-4.479298600000001
-11.77511333333337,8.143163666666625,-4.358020800000001
-12.241075500000036,5.529308999999959,-4.236743000000001
-12.241075500000036,5.52930899999996,-4.236743000000001
-14.32194633333337,2.12395679999996,-4.970792666666667
-16.402817166666704,-1.28139540000004,-5.704842333333333
-18.483688000000036,-4.68674760000004,-6.438891999999999
-18.7485846666667,-9.655944066666708,-4.045251866666667
-19.01348133333337,-14.625140533333374,-1.6516117333333329
-19.278378000000036,-19.59433700000004,0.7420284000000003
-19.278378000000036,-19.59433700000004,0.7420284000000003
-14.91237833333337,-18.89539433333337,1.4345882666666672
-10.546378666666703,-18.196451666666707,2.127148133333334
-6.180379000000037,-17.497509000000047,2.8197080000000003
-6.180379000000035,-17.497509000000047,2.8197080000000003
-0.6590490000000351,-15.47089400000005,3.253754666666667
4.862280999999965,-13.44427900000005,3.6878013333333333
10.383610999999966,-11.41766400000005,4.121848
10.383610999999966,-11.41766400000005,4.121848
11.574047999999967,-10.712337666666714,4.961218
12.764484999999965,-10.00701133333338,5.800588
13.954921999999963,-9.301685000000047,6.639958
13.954921999999963,-9.301685000000047,6.639958
11.20702316666663,-11.34106633333338,6.311231333333333
8.459124333333296,-13.380447666666713,5.982504666666666
5.711225499999962,-15.419829000000048,5.653777999999999
5.711225499999962,-15.419829000000048,5.653777999999999
0.16436366666662897,-16.811331666666714,4.428234233333332
-5.3824981666667036,-18.20283433333338,3.2026904666666653
-10.929360000000036,-19.59433700000005,1.977146699999999
-10.929360000000036,-19.594337000000053,1.9771466999999987
-13.82087733333337,-19.517740666666725,0.7069216999999987
-16.7123946666667,-19.441144333333398,-0.5633033000000014
-19.603912000000037,-19.36454800000007,-1.8335283000000013
-18.917735333333372,-14.207051600000069,-2.9346027666666683
-18.231558666666704,-9.049555200000066,-4.0356772333333355
-17.545382000000036,-3.892058800000065,-5.136751700000002
-17.545382000000032,-3.892058800000065,-5.136751700000002
-15.41025500000003,2.283532799999935,-4.961218133333335
-13.275128000000029,8.459124399999935,-4.785684566666669
-11.140001000000026,14.634715999999935,-4.610151000000003
-11.140001000000026,14.634715999999935,-4.610151000000003
-10.565527333333359,13.291085999999936,-4.144189000000003
-9.991053666666692,11.947455999999937,-3.678227000000003
-9.416580000000025,10.603825999999936,-3.2122650000000026
-9.416580000000023,10.603825999999936,-3.2122650000000026
-11.127235000000022,7.945289566666605,-3.352691866666669
-12.837890000000025,5.286753133333272,-3.493118733333336
-14.548545000000027,2.6282166999999386,-3.633545600000002
-14.548545000000027,2.6282166999999386,-3.633545600000002
-16.23366733333336,-4.204827533333394,-3.023965300000002
-17.918789666666694,-11.037871766666727,-2.4143850000000024
-19.603912000000022,-17.87091600000006,-1.8048047000000025
-19.60391200000002,-17.87091600000006,-1.8048047000000025
-17.733681333333355,-18.44538966666673,-0.6303252333333358
-15.863450666666687,-19.019863333333397,0.5441542333333309
-13.99322000000002,-19.594337000000063,1.7186336999999974
-8.449549533333354,-16.9198433333334,1.8399113999999976
-2.9058790666666865,-14.245349666666732,1.961189099999998
2.6377913999999802,-11.570856000000063,2.0824667999999984
2.6377913999999802,-11.570856000000063,2.0824667999999984
2.6377913999999802,-11.570856000000063,2.0824667999999984
7.412305599999981,-9.639986466666729,2.155871766666665
12.18681979999998,-7.709116933333398,2.229276733333332
16.961333999999983,-5.778247400000065,2.3026816999999986
15.177274333333315,-8.076141600000065,2.4558746999999985
13.39321466666665,-10.374035800000064,2.6090676999999984
11.609154999999982,-12.671930000000065,2.7622606999999983
11.609154999999982,-12.671930000000065,2.7622606999999983
8.009120133333314,-14.637906666666732,2.1718294799999978
4.409085266666648,-16.6038833333334,1.5813982599999974
0.8090503999999813,-18.569860000000062,0.990967039999997
0.8090503999999813,-18.569860000000066,0.990967039999997
-5.104836400000019,-18.9113523333334,1.0069246266666638
-11.018723200000018,-19.252844666666736,1.0228822133333304
-16.932610000000018,-19.59433700000007,1.038839799999997
-16.93261000000002,-19.59433700000007,1.038839799999997
-17.823044000000024,-18.68156266666674,0.2952155999999968
-18.713478000000023,-17.768788333333408,-0.4484086000000033
-19.603912000000022,-16.856014000000076,-1.1920328000000033
-19.60391200000002,-16.856014000000076,-1.1920328000000031
-17.478359666666687,-9.633603666666744,-1.983529800000003
-15.352807333333358,-2.41119333333341,-2.775026800000003
-13.227255000000023,4.811216999999924,-3.5665238000000037
-13.227255000000023,4.811216999999924,-3.5665238000000037
-11.545324000000022,8.005928333333257,-3.19949896666667
-9.863393000000022,11.200639666666591,-2.8324741333333363
-8.18146200000002,14.395350999999925,-2.4654493000000026
-8.18146200000002,14.395350999999925,-2.4654493000000026
-9.004874000000019,12.51873766666659,-2.723962433333336
-9.828286000000018,10.642124333333259,-2.98247556666667
-10.65169800000002,8.765510999999924,-3.240988700000004
-12.742143666666687,5.178242066666591,-3.703759133333337
-14.832589333333354,1.590973133333258,-4.16652956666667
-16.923035000000024,-1.9962958000000757,-4.629300000000002
-16.923035000000024,-1.9962958000000757,-4.6293000000000015
-16.923035000000024,-1.9962958000000757,-4.6293000000000015
-17.81666066666669,-7.862309533333409,-3.3526919333333347
-18.710286333333357,-13.728323266666743,-2.0760838666666683
-19.603912000000026,-19.594337000000078,-0.7994758000000015
-15.483659666666695,-19.559230333333414,-0.4292594666666682
-11.363407333333361,-19.52412366666675,-0.05904313333333481
-7.243155000000027,-19.489017000000086,0.31117319999999854
-7.243155000000027,-19.489017000000086,0.31117319999999854
-2.1399143333333606,-16.45388166666675,0.6079845666666653
2.963326333333306,-13.418746333333416,0.9047959333333321
8.066566999999973,-10.383611000000084,1.201607299999999
8.066566999999973,-10.383611000000082,1.201607299999999
11.283619333333307,-8.660190133333415,1.9994873666666655
14.50067166666664,-6.936769266666748,2.7973674333333327
17.717723999999972,-5.213348400000082,3.5952474999999993
17.717723999999972,-5.213348400000082,3.5952474999999993
15.790045833333304,-7.9165659333334135,3.033539933333332
13.862367666666637,-10.619783466666746,2.4718323666666655
11.93468949999997,-13.323001000000078,1.9101247999999986
11.93468949999997,-13.323001000000078,1.9101247999999986
7.150600799999974,-15.413446333333413,1.3516087766666651
2.3665120999999734,-17.50389166666675,0.7930927533333317
-2.4175766000000265,-19.594337000000085,0.23457672999999843
-2.4175766000000265,-19.594337000000085,0.23457672999999843
-7.555924066666694,-19.540081333333422,-0.25372588000000157
-12.694271533333362,-19.485825666666756,-0.7420284900000015
-17.83261900000003,-19.43157000000009,-1.2303311000000015
-17.83261900000003,-19.431570000000086,-1.2303311000000017
-16.808141000000028,-16.69962866666675,-1.5909728333333353
-15.783663000000026,-13.967687333333417,-1.9516145666666687
-14.759185000000025,-11.235746000000084,-2.3122563000000023
-12.34639576666669,-4.460149000000084,-2.6888557000000026
-9.933606533333355,2.3154479999999165,-3.0654551000000025
-7.520817300000021,9.091044999999916,-3.4420545000000025
-7.520817300000021,9.091044999999916,-3.4420545000000025
-8.676147533333356,10.54637833333325,-4.310147900000002
-9.831477766666692,12.001711666666582,-5.1782413000000025
-10.986808000000027,13.457044999999916,-6.046334700000003
-10.98680800000003,13.457044999999916,-6.046334700000003
-13.38044800000003,10.594251333333249,-5.896333333333337
-15.77408800000003,7.731457666666583,-5.74633196666667
-18.16772800000003,4.868663999999916,-5.596330600000003
-18.16772800000003,4.868663999999916,-5.596330600000002
-18.646456000000033,-3.221839666666751,-4.093124600000001
-19.125184000000033,-11.312343333333418,-2.589918600000001
-19.603912000000033,-19.402847000000087,-1.0867126000000014
-19.60391200000003,-19.402847000000087,-1.0867126000000014
-17.28686850000003,-19.466677000000086,-0.3718121000000015
-14.969825000000027,-19.53050700000009,0.3430883999999985
-12.652781500000025,-19.59433700000009,1.0579888999999987
-12.652781500000023,-19.594337000000092,1.0579888999999987
-8.366569986666688,-17.452827000000095,0.9111789766666654
-4.080358473333355,-15.311317000000097,0.7643690533333322
0.20585303999997784,-13.169807000000096,0.6175591299999988
3.094179026666644,-10.463398166666764,0.32393927999999883
5.982505013333309,-7.756989333333432,0.030319429999998853
8.870830999999974,-5.050580500000097,-0.26330042000000115
8.870830999999974,-5.050580500000098,-0.26330042000000115
10.565527999999977,-5.420796866666766,0.4739407199999988
12.260224999999977,-5.791013233333434,1.2111818599999988
13.954921999999977,-6.161229600000102,1.948422999999999
13.954921999999977,-6.161229600000103,1.948422999999999
11.950647233333308,-9.05913006666677,2.079275333333332
9.946372466666642,-11.957030533333437,2.2101276666666654
7.942097699999976,-14.854931000000105,2.3409799999999987
7.942097699999977,-14.854931000000105,2.3409799999999987
2.340979799999977,-16.434733000000104,2.063317733333332
-3.2601381000000225,-18.014535000000105,1.7856554666666653
-8.86125600000002,-19.594337000000106,1.5079931999999985
-8.86125600000002,-19.59433700000011,1.5079931999999985
-12.442141333333355,-19.386888000000113,1.1505429666666653
-16.02302666666669,-19.179439000000116,0.7930927333333321
-19.603912000000026,-18.97199000000012,0.4356424999999989
-19.60391200000003,-18.97199000000012,0.4356424999999989
-17.73368133333336,-12.818739666666787,-1.0547974666666677
-15.863450666666695,-6.665489333333453,-2.5452374333333343
-13.99322000000003,-0.5122390000001195,-4.035677400000001
-13.99322000000003,-0.5122390000001195,-4.035677400000001
-12.059158666666697,4.906961999999881,-4.603767933333334
-10.125097333333365,10.326162999999882,-5.1718584666666665
-8.191036000000032,15.745363999999883,-5.739948999999999
-9.097428000000033,13.44108666666655,-5.8165455
-10.003820000000031,11.136809333333217,-5.893142000000001
-10.91021200000003,8.832531999999881,-5.969738500000002
-10.91021200000003,8.832531999999881,-5.969738500000003
-10.91021200000003,8.832531999999881,-5.969738500000003
-13.284702666666696,5.012282433333215,-5.937823333333337
-15.659193333333363,1.1920328666665487,-5.90590816666667
-18.033684000000033,-2.628216700000118,-5.873993000000003
-18.534752666666698,-8.283590133333451,-4.096316213333337
-19.035821333333367,-13.938963566666784,-2.3186394266666697
-19.536890000000035,-19.594337000000117,-0.540962640000003
-19.53689000000004,-19.59433700000012,-0.540962640000003
-15.496425766666704,-19.22412066666679,-0.007978793333336323
-11.45596153333337,-18.853904333333457,0.5250050533333304
-7.415497300000037,-18.483688000000125,1.0579888999999971
-7.415497300000037,-18.483688000000125,1.0579888999999971
-2.816516700000036,-15.21557166666679,1.163309066666664
1.782463899999964,-11.947455333333457,1.2686292333333304
6.381444499999964,-8.679339000000121,1.3739493999999972
6.381444499999964,-8.679339000000121,1.3739493999999972
8.79423366666663,-8.101673800000123,1.996295833333331
11.207022833333298,-7.524008600000123,2.618642266666664
13.619811999999962,-6.946343400000122,3.2409886999999973
13.619811999999962,-6.946343400000122,3.2409886999999973
13.188956999999965,-8.733594933333455,3.03992293333333
12.758101999999965,-10.520846466666788,2.838857166666663
12.327246999999966,-12.30809800000012,2.637791399999996
12.327246999999966,-12.30809800000012,2.637791399999996
8.085716579999968,-14.53258700000012,1.4824610999999959
3.8441861599999676,-16.757076000000122,0.32713079999999595
-0.39734426000003253,-18.98156500000012,-0.8281995000000041
-0.39734426000003253,-18.98156500000012,-0.8281995000000041
-6.716554506666699,-19.18582233333345,-1.3420342666666703
-13.035764753333368,-19.390079666666782,-1.855869033333337
-19.354975000000035,-19.594337000000113,-2.3697038000000035
-18.5985846666667,-16.78579966666678,-2.94098586666667
-17.842194333333367,-13.977262333333448,-3.512267933333336
-17.085804000000035,-11.168725000000114,-4.0835500000000025
-17.085804000000035,-11.168725000000114,-4.0835500000000025
-17.085804000000035,-11.168725000000114,-4.0835500000000025
-14.392160666666703,-3.7005680000001138,-4.373978333333336
-11.69851733333337,3.767588999999887,-4.664406666666669
-9.004874000000038,11.235745999999887,-4.954835000000003
-8.506997000000036,11.35064099999989,-4.910153733333337
-8.009120000000037,11.465535999999888,-4.86547246666667
-7.511243000000036,11.580430999999889,-4.820791200000003
-7.511243000000036,11.580430999999885,-4.820791200000003
-9.489985333333367,9.20913133333322,-4.798450600000003
-11.468727666666702,6.837831666666552,-4.776110000000004
-13.447470000000036,4.4665319999998845,-4.753769400000004
-13.447470000000038,4.4665319999998845,-4.753769400000004
-15.250679333333371,-0.3430886666667818,-3.480352820000004
-17.053888666666708,-5.152709333333449,-2.2069362400000037
-18.85709800000004,-9.962330000000115,-0.9335196600000035
-18.85709800000004,-9.962330000000115,-0.9335196600000035
-18.684755333333374,-13.172999000000116,0.5218135266666631
-18.51241266666671,-16.383668000000117,1.9771467133333298
-18.340070000000043,-19.594337000000117,3.4324798999999966
-18.340070000000043,-19.59433700000012,3.4324798999999966
-13.731515100000044,-18.84113866666679,2.280341132666663
-9.122960200000042,-18.08794033333346,1.1282023653333293
-4.514405300000043,-17.33474200000013,-0.023936402000004058
-4.514405300000043,-17.33474200000013,-0.023936402000004058
0.770752133333291,-14.484714333333462,0.02074487999999594
6.0559095666666245,-11.634686666666795,0.06542616199999594
11.341066999999958,-8.784659000000127,0.11010744399999595
12.857038999999956,-8.401676666666795,0.643091295999996
14.373010999999954,-8.018694333333462,1.176075147999996
15.888982999999952,-7.635712000000129,1.7090589999999963
15.888982999999952,-7.635712000000129,1.7090589999999963
12.924060799999951,-10.20169400000013,1.8399113333333297
9.959138599999953,-12.76767600000013,1.970763666666663
6.994216399999954,-15.33365800000013,2.1016159999999964
6.994216399999954,-15.33365800000013,2.1016159999999964
2.0090619333332875,-16.753884333333463,1.6516116666666631
-2.976092533333379,-18.174110666666795,1.20160733333333
-7.9612470000000455,-19.594337000000127,0.7516029999999967
-7.9612470000000455,-19.594337000000127,0.7516029999999967
-11.84213533333338,-19.594337000000127,-0.14202266666666996
-15.723023666666712,-19.594337000000127,-1.0356483333333368
-19.603912000000047,-19.594337000000127,-1.9292740000000033
-19.603912000000047,-19.594337000000127,-1.9292740000000037
-17.481551333333382,-15.991111000000132,-2.3569376666666706
-15.359190666666718,-12.38788500000013,-2.7846013333333377
-13.23683000000005,-8.78465900000013,-3.2122650000000044
-13.23683000000005,-8.784659000000131,-3.2122650000000044
-11.446387133333383,-2.73992000000013,-3.7516319000000045
-9.655944266666717,3.30481899999987,-4.290998800000005
-7.865501400000052,9.349557999999869,-4.830365700000004
-7.865501400000052,9.349557999999869,-4.830365700000004
-8.439975100000053,10.211268499999868,-5.009090800000005
-9.014448800000054,11.072978999999867,-5.187815900000007
-9.588922500000054,11.934689499999864,-5.366541000000008
-11.191065333333386,9.419771666666533,-5.108027833333341
-12.793208166666718,6.904853833333199,-4.849514666666674
-14.39535100000005,4.3899359999998655,-4.591001500000007
-14.395351000000048,4.389935999999866,-4.591001500000007
-16.13153800000005,-2.7431116666668003,-3.4548204000000062
-17.867725000000046,-9.876159333333467,-2.318639300000006
-19.603912000000047,-17.009207000000135,-1.1824582000000061
-19.603912000000047,-17.00920700000013,-1.1824582000000061
-18.174111000000046,-17.87091700000013,0.20585303333332727
-16.744310000000045,-18.732627000000125,1.5941642666666607
-15.314509000000042,-19.594337000000124,2.982475499999994
-15.314509000000042,-19.594337000000124,2.982475499999994
-10.303822513333374,-17.07303666666679,2.2133191666666607
-5.293136026666709,-14.551736333333457,1.4441628333333274
-0.28244954000004263,-12.030436000000122,0.6750064999999942
-0.28244954000004263,-12.030436000000122,0.6750064999999942
2.449491773333291,-9.681476900000122,0.21542760999999422
5.181433086666624,-7.332517800000121,-0.24415128000000577
7.913374399999957,-4.983558700000121,-0.7037301700000058
7.913374399999957,-4.9835587000001205,-0.7037301700000058
9.761264599999956,-5.564415333333454,-0.23138519333333915
11.609154799999956,-6.145271966666787,0.24095978333332754
13.457044999999956,-6.72612860000012,0.7133047599999941
13.457044999999956,-6.72612860000012,0.7133047599999941
12.930443999999957,-9.83147740000012,1.7026759733333277
12.403842999999958,-12.936826200000121,2.692047186666661
11.877241999999958,-16.042175000000125,3.6814183999999943
7.182515966666624,-17.22622900000012,3.805887699999994
2.4877899333332896,-18.41028300000012,3.930356999999994
-2.206936100000044,-19.59433700000012,4.054826299999994
-2.206936100000044,-19.59433700000012,4.054826299999994
-2.206936100000044,-19.59433700000012,4.054826299999994
-8.00592806666671,-19.56561366666679,1.7856555333333273
-13.804920033333376,-19.536890333333456,-0.48351523333333946
-19.603912000000044,-19.508167000000125,-2.7526860000000064
-19.12199266666671,-15.451744866666791,-4.172912566666674
-18.64007333333338,-11.395322733333458,-5.593139133333341
-18.158154000000046,-7.338900600000126,-7.013365700000008
-18.15815400000005,-7.338900600000126,-7.013365700000008
-18.15815400000005,-7.338900600000126,-7.013365700000008
-18.15815400000005,-7.338900600000126,-7.013365700000008
-18.15815400000005,-7.338900600000126,-7.013365700000008
-18.15815400000005,-7.338900600000126,-7.013365700000008
-15.60174633333338,-1.8622520666667925,-5.99207923333334
-13.045338666666714,3.6143964666665407,-4.970792766666673
-10.488931000000047,9.091044999999873,-3.9495063000000052
-11.398514333333381,7.13145166666654,-3.716525333333339
-12.308097666666713,5.171858333333207,-3.4835443666666728
-13.217681000000047,3.212264999999874,-3.2505634000000065
-13.217681000000047,3.212264999999874,-3.2505634000000065
-15.346424666666714,-3.4995016666667937,-2.765452266666673
-17.475168333333382,-10.21126833333346,-2.28034113333334
-19.603912000000047,-16.92303500000013,-1.7952300000000063
-19.603912000000047,-16.92303500000013,-1.7952300000000063
-18.490071333333383,-17.81346900000013,-1.3962900000000065
-17.376230666666718,-18.70390300000013,-0.9973500000000065
-16.26239000000005,-19.594337000000127,-0.5984100000000064
-16.262390000000053,-19.594337000000127,-0.5984100000000064
-11.12723438666672,-17.72091500000013,0.4611746666666603
-5.992078773333386,-15.847493000000128,1.5207593333333271
-0.856923160000053,-13.974071000000128,2.580343999999994
-0.856923160000053,-13.974071000000128,2.5803439999999944
4.322914226666614,-12.28256533333346,2.7016217999999945
9.502751613333281,-10.591059666666794,2.8228995999999946
14.682588999999949,-8.899554000000128,2.944177399999995
14.682588999999949,-8.899554000000128,2.944177399999995
14.082582999999948,-10.74744433333346,2.3090648666666618
13.482576999999948,-12.595334666666792,1.6739523333333282
12.882570999999947,-14.443225000000124,1.0388397999999948
12.882570999999947,-14.443225000000124,1.0388397999999948
9.292110866666613,-15.927281666666792,1.0196906799999947
5.701650733333281,-17.41133833333346,1.000541559999995
2.1111905999999476,-18.895395000000125,0.9813924399999948
-4.112273600000052,-19.12837566666679,0.10691589333332814
-10.335737800000052,-19.361356333333458,-0.7675606533333386
-16.559202000000052,-19.594337000000127,-1.6420372000000054
-16.559202000000052,-19.594337000000127,-1.6420372000000054
-16.559202000000052,-19.594337000000127,-1.6420372000000054
-17.40176300000005,-18.81879800000013,-2.1718294666666726
-18.24432400000005,-18.04325900000013,-2.7016217333333388
-19.08688500000005,-17.26772000000013,-3.231414000000006
-16.85920433333338,-10.06445900000013,-4.0644007666666715
-14.631523666666714,-2.861198000000131,-4.897387533333337
-12.403843000000046,4.342062999999869,-5.730374300000002
-12.403843000000046,4.342062999999869,-5.730374300000002
-12.403843000000046,4.342062999999869,-5.730374300000002
-12.403843000000046,4.342062999999869,-5.730374300000002
-12.403843000000046,4.342062999999869,-5.730374300000002
-12.403843000000046,4.342062999999869,-5.730374300000002
-12.496397000000046,5.248454766666536,-5.71441686666667
-12.588951000000046,6.1548465333332025,-5.698459433333337
-12.681505000000046,7.061238299999869,-5.682502000000004
-14.794291666666714,1.7920385333332023,-4.4984478666666705
-16.907078333333377,-3.4771612333334647,-3.3143937333333375
-19.019865000000042,-8.74636100000013,-2.1303396000000037
-19.019865000000042,-8.74636100000013,-2.1303396000000037
-18.841139333333377,-12.362353000000128,-1.2239479000000035
-18.662413666666712,-15.97834500000013,-0.31755620000000356
-18.483688000000047,-19.59433700000013,0.5888354999999965
-18.483688000000047,-19.594337000000134,0.5888354999999965
-14.05385833333338,-19.370930666666805,1.0356483333333297
-9.624028666666712,-19.147524333333468,1.4824611666666632
-5.194199000000045,-18.924118000000135,1.9292739999999966
-5.194199000000045,-18.92411800000013,1.9292739999999966
1.1696919999999553,-16.2272836666668,2.1111906666666633
7.533582999999957,-13.530449333333467,2.2931073333333303
13.897473999999955,-10.833615000000135,2.4750239999999977
13.897473999999955,-10.833615000000135,2.475023999999998
13.587896666666621,-11.124043333333468,2.4877899999999977
13.278319333333286,-11.4144716666668,2.5005559999999973
12.968741999999951,-11.704900000000135,2.5133219999999974
12.968741999999951,-11.704900000000135,2.513321999999997
10.227226166666618,-13.795345333333467,3.2218394999999966
7.485710333333285,-15.8857906666668,3.9303569999999968
4.744194499999951,-17.976236000000135,4.638874499999996
4.744194499999952,-17.97623600000013,4.638874499999996
-1.147351666666715,-18.51560300000013,3.6686523999999956
-7.0388978333333805,-19.05497000000013,2.698430299999996
-12.930444000000046,-19.594337000000127,1.7282081999999963
-15.15493333333338,-19.342207333333462,0.7037302333333294
-17.379422666666716,-19.090077666666797,-0.3207477333333373
-19.603912000000047,-18.83794800000013,-1.3452257000000039
-19.603912000000047,-18.83794800000013,-1.3452257000000039
-18.02730133333338,-13.680451333333465,-2.2037446666666702
-16.450690666666713,-8.5229546666668,-3.062263633333337
-14.874080000000047,-3.365458000000133,-3.920782600000004
-14.874080000000047,-3.365458000000133,-3.920782600000004
-12.96235933333338,1.3994813333332008,-3.968655300000004
-11.050638666666712,6.164420666666534,-4.0165280000000045
-9.138918000000045,10.92935999999987,-4.064400700000005
-9.138918000000043,10.92935999999987,-4.064400700000005
-9.608071333333376,10.680421666666534,-3.914399333333338
-10.07722466666671,10.4314833333332,-3.764397966666671
-10.546378000000043,10.182544999999864,-3.614396600000004
-10.546378000000043,10.182544999999864,-3.614396600000004
-11.657027000000042,8.3729531333332,-3.585672866666671
-12.767676000000042,6.563361266666533,-3.556949133333338
-13.878325000000041,4.753769399999866,-3.528225400000005
-13.878325000000041,4.753769399999867,-3.528225400000005
-15.786854000000043,-2.2165104000001334,-3.534608500000005
-17.695383000000046,-9.186790200000134,-3.5409916000000052
-19.60391200000004,-16.157070000000136,-3.5473747000000055
-19.60391200000004,-16.157070000000132,-3.5473747000000055
-18.020918333333373,-17.302825666666795,-1.9228909333333384
-16.437924666666706,-18.44858133333346,-0.2984071666666715
-14.854931000000038,-19.594337000000124,1.3260765999999953
-9.987862620000039,-18.132621000000125,0.8473485853333287
-5.120794240000039,-16.67090500000013,0.36862057066666193
-0.2537258600000385,-15.209189000000132,-0.11010744400000479
-0.2537258600000385,-15.209189000000132,-0.11010744400000479
-0.2537258600000385,-15.209189000000132,-0.11010744400000479
4.335680093333295,-13.329383666666798,0.8377740373333286
8.925086046666628,-11.449578333333463,1.7856555186666618
13.514491999999962,-9.569773000000128,2.733536999999995
14.414500666666626,-10.418717666666796,3.0303483999999954
15.314509333333291,-11.267662333333464,3.327159799999995
16.214517999999956,-12.116607000000132,3.623971199999995
16.214517999999956,-12.116607000000132,3.623971199999995
12.716611999999955,-14.337904666666796,3.0303484333333284
9.218705999999955,-16.559202333333463,2.436725666666662
5.720799999999954,-18.78050000000013,1.8431028999999952
5.720799999999954,-18.78050000000013,1.8431028999999952
-2.018636333333379,-19.051779000000128,1.128202376666662
-9.758072666666713,-19.323058000000128,0.41330185333332853
-17.497509000000047,-19.594337000000124,-0.30159867000000484
-17.497509000000047,-19.594337000000124,-0.30159867000000484
-18.19964333333338,-18.74858466666679,-1.3611833133333382
-18.901777666666714,-17.90283233333346,-2.4207679566666713
-19.603912000000047,-17.057080000000127,-3.4803526000000047
-19.603912000000047,-17.057080000000127,-3.4803526000000047
-17.590063000000047,-9.780414000000128,-4.552703400000005
-15.576214000000043,-2.503748000000128,-5.625054200000005
-13.562365000000042,4.772917999999872,-6.697405000000004
-13.562365000000042,4.772917999999872,-6.697405000000003
-13.147467333333376,9.442111999999872,-7.156983666666669
-12.732569666666711,14.111305999999873,-7.616562333333334
-12.317672000000044,18.780499999999872,-8.076141
-14.124072666666711,15.403871999999874,-7.501667566666666
-15.930473333333376,12.027243999999873,-6.927194133333333
-17.736874000000043,8.650615999999873,-6.352720699999999
-17.736874000000043,8.650615999999873,-6.352720699999999
-18.35922000000004,0.7643696666665404,-5.025048399999999
-18.981566000000043,-7.121876666666793,-3.6973760999999996
-19.603912000000047,-15.008123000000126,-2.3697037999999995
-19.603912000000047,-15.008123000000126,-2.3697037999999995
-18.604966333333383,-16.536861000000126,-0.6526659666666661
-17.606020666666716,-18.065599000000123,1.064371866666667
-16.607075000000048,-19.594337000000124,2.7814097000000007
-16.60707500000005,-19.594337000000124,2.7814096999999998
-11.455961533333385,-18.764542000000123,2.6473658666666666
-6.304848066666718,-17.934747000000126,2.5133220333333335
-1.1537346000000521,-17.104952000000125,2.3792782000000003
-1.1537346000000521,-17.104952000000125,2.3792782000000003
4.587810266666615,-14.267690666666795,2.1335312000000006
10.329355133333282,-11.430429333333464,1.8877842000000011
16.07089999999995,-8.593168000000132,1.6420372000000008
16.07089999999995,-8.593168000000132,1.6420372000000008
14.280457333333281,-9.301685333333465,1.8622520333333343
12.490014666666612,-10.010202666666798,2.082466866666668
10.699571999999945,-10.71872000000013,2.3026817000000013
10.699571999999941,-10.71872000000013,2.302681700000001
7.772947766666608,-12.847464000000128,2.4080019000000004
4.846323533333275,-14.976208000000126,2.5133221
1.919699299999942,-17.10495200000012,2.6186422999999994
-1.753740133333391,-17.934747000000126,2.229276833333333
-5.427179566666724,-18.764542000000123,1.8399113666666664
-9.100619000000057,-19.594337000000124,1.4505458999999998
-9.100619000000057,-19.594337000000124,1.4505458999999998
-9.100619000000057,-19.594337000000124,1.4505458999999998
-12.601716666666723,-19.52412400000013,1.1377769333333332
-16.102814333333388,-19.453911000000133,0.8250079666666666
-19.603912000000054,-19.383698000000138,0.5122390000000001
-18.467731333333386,-14.108115033333467,-0.7260707999999999
-17.331550666666722,-8.832532066666797,-1.9643806
-16.195370000000057,-3.5569491000001285,-3.2026904
-16.195370000000057,-3.5569491000001285,-3.2026904
-14.851739666666726,3.3495005999998724,-3.9367400999999997
-13.508109333333394,10.255950299999872,-4.6707898
-12.164479000000062,17.162399999999874,-5.404839499999999
-12.164479000000062,17.162399999999874,-5.404839499999999
-12.547461333333395,15.525149999999874,-5.781438833333333
-12.930443666666728,13.887899999999874,-6.158038166666667
-13.313426000000062,12.250649999999874,-6.5346375
-13.313426000000062,12.250649999999874,-6.5346375
-15.33046666666673,5.175049833333207,-6.084633233333334
-17.3475073333334,-1.9005503333334606,-5.634628966666668
-19.364548000000067,-8.976150500000129,-5.184624700000001
-19.364548000000067,-8.976150500000129,-5.184624700000001
-18.87624566666673,-12.515546000000128,-3.0558807000000017
-18.387943333333393,-16.054941500000126,-0.9271367000000016
-17.899641000000056,-19.594337000000124,1.2016072999999985
-17.899641000000056,-19.594337000000124,1.2016072999999985
-13.648536000000055,-19.39965466666679,1.3388426666666653
-9.397431000000056,-19.20497233333346,1.4760780333333319
-5.146326000000055,-19.010290000000126,1.6133133999999985
-5.146326000000054,-19.010290000000126,1.6133133999999985
-1.6643776666667212,-16.29749766666679,1.163309073333332
1.8175706666666123,-13.584705333333455,0.7133047466666653
5.299518999999946,-10.87191300000012,0.2633004199999988
8.226143166666613,-9.135726166666787,0.2537258566666654
11.152767333333282,-7.399539333333455,0.2441512933333321
14.079391499999948,-5.663352500000123,0.2345767299999988
14.079391499999948,-5.663352500000123,0.2345767299999988
14.079391499999948,-5.663352500000123,0.2345767299999988
14.130455666666615,-6.88570466666679,0.6941556199999988
14.181519833333283,-8.108056833333457,1.1537345099999985
14.232583999999951,-9.330409000000122,1.6133133999999985
9.643178056666617,-12.61129200000012,1.8877841333333318
5.0537721133332845,-15.892175000000117,2.1622548666666654
0.46436616999995134,-19.173058000000115,2.4367255999999986
0.46436616999995134,-19.173058000000115,2.4367255999999986
-6.218676886666715,-19.31348433333345,2.2675750666666654
-12.901719943333381,-19.453910666666783,2.0984245333333322
-19.584763000000045,-19.594337000000113,1.9292739999999993
-19.58476300000005,-19.594337000000113,1.9292739999999995
-18.84113900000005,-16.97090800000012,0.3111732333333328
-18.097515000000055,-14.347479000000115,-1.306927533333334
-17.353891000000058,-11.724050000000114,-2.9250283000000006
-17.353891000000058,-11.724050000000114,-2.9250282999999997
-15.199615000000056,-5.270796000000115,-3.706950633333333
-13.045339000000055,1.182457999999885,-4.488872966666666
-10.891063000000054,7.635711999999884,-5.270795299999999
-10.891063000000054,7.635711999999884,-5.270795299999999
-10.73786966666672,8.915511666666552,-5.810162366666666
-10.584676333333386,10.195311333333217,-6.349529433333333
-10.431483000000052,11.475110999999885,-6.8888965
-10.517654333333384,9.758072999999884,-6.4516580999999995
-10.603825666666717,8.041034999999885,-6.014419699999999
-10.68999700000005,6.323996999999885,-5.577181299999999
-10.68999700000005,6.323996999999885,-5.577181299999999
-13.37087400000005,-0.3750038333334486,-3.652694706666665
-16.05175100000005,-7.074004666666782,-1.7282081133333316
-18.73262800000005,-13.773005500000115,0.19627848000000192
-18.73262800000005,-13.773005500000115,0.19627848000000192
-18.139005333333383,-15.713449333333449,3.5601409866666685
-17.54538266666672,-17.65389316666678,6.924003493333334
-16.951760000000053,-19.594337000000113,10.287866
-16.951760000000053,-19.594337000000113,10.287866
-11.321918214666718,-18.049641666666783,8.583593999999998
-5.692076429333386,-16.50494633333345,6.8793219999999975
-0.06223464400005222,-14.960251000000119,5.175049999999997
-0.06223464400005222,-14.960251000000119,5.175049999999998
4.613342570666615,-12.043201533333452,4.811216666666664
9.288919785333281,-9.126152066666785,4.447383333333331
13.964496999999946,-6.2091026000001195,4.083549999999998
13.964496999999946,-6.2091026000001195,4.083549999999998
13.88151733333328,-5.870801400000121,4.303764833333331
13.798537666666611,-5.532500200000122,4.523979666666665
13.715557999999943,-5.194199000000123,4.744194499999998
13.71555799999994,-5.194199000000122,4.744194499999998
10.246375533333275,-9.122960000000123,4.386744333333332
6.777193066666609,-13.051721000000123,4.0292941666666655
3.3080105999999425,-16.980482000000126,3.6718439999999988
3.3080105999999425,-16.980482000000126,3.6718439999999988
-2.8388572666667238,-17.851767000000127,3.598438999999999
-8.985725133333391,-18.723052000000127,3.5250339999999993
-15.132593000000057,-19.594337000000127,3.451628999999999
-15.984729000000058,-18.423049666666795,1.8845926333333327
-16.83686500000006,-17.25176233333346,0.3175562666666658
-17.68900100000006,-16.08047500000013,-1.249480100000001
-17.68900100000006,-16.08047500000013,-1.249480100000001
-14.778334666666728,-9.707009000000133,-2.2356598333333344
-11.867668333333393,-3.3335430000001316,-3.221839566666668
-8.957002000000061,3.0399229999998685,-4.208019300000001
-8.95700200000006,3.0399229999998685,-4.208019300000001
-8.918703666666724,6.544212333333202,-4.689938866666668
-8.88040533333339,10.048501666666533,-5.171858433333334
-8.842107000000055,13.552790999999866,-5.653778
-8.842107000000055,13.552790999999866,-5.653778
-11.002766000000056,12.853847666666534,-6.253783800000001
-13.163425000000055,12.154904333333201,-6.853789600000002
-15.324084000000056,11.455960999999869,-7.4537954000000015
-15.324084000000056,11.455960999999869,-7.4537954000000015
-16.75069333333339,4.109081666666536,-6.8091082666666685
-18.17730266666673,-3.237797666666797,-6.1644211333333345
-19.603912000000065,-10.584677000000129,-5.519734000000001
-19.60391200000007,-10.584677000000129,-5.519734000000001
-18.34007016666673,-13.587897000000131,-3.5952473800000013
-17.076228333333397,-16.59111700000013,-1.6707607600000014
-15.812386500000061,-19.594337000000127,0.2537258599999985
-15.812386500000061,-19.594337000000127,0.2537258599999985
-10.192119566666728,-18.809223666666796,0.3526629733333318
-4.571852633333394,-18.024110333333464,0.4516000866666651
1.0484142999999388,-17.23899700000013,0.5505371999999984
5.280370199999939,-13.884709000000129,0.6622403999999985
9.512326099999939,-10.530421000000128,0.7739435999999985
13.74428199999994,-7.176133000000129,0.8856467999999985
13.74428199999994,-7.176133000000129,0.8856467999999985
13.74428199999994,-7.176133000000129,0.8856467999999985
13.766622333333274,-6.732511666666795,1.306927533333332
13.788962666666608,-6.2888903333334625,1.7282082666666652
13.811302999999944,-5.84526900000013,2.1494889999999987
10.78255056666661,-9.518709333333462,1.7377828466666652
7.753798133333277,-13.192149666666793,1.326076693333332
4.725045699999943,-16.865590000000125,0.9143705399999987
4.725045699999943,-16.865590000000125,0.9143705399999987
4.725045699999943,-16.865590000000125,0.9143705399999987
4.725045699999943,-16.865590000000125,0.9143705399999987
4.725045699999943,-16.865590000000125,0.9143705399999987
4.725045699999943,-16.865590000000125,0.9143705399999987
-3.2729038666667223,-17.09857033333346,0.528196593333332
-11.270853433333388,-17.331550666666796,0.14202264666666542
-19.268803000000055,-17.56453100000013,-0.2441513000000012
-16.15387933333339,-10.661272933333462,-1.300544466666668
-13.038955666666725,-3.7580148666667967,-2.3569376333333345
-9.92403200000006,3.1452431999998693,-3.413330800000001
-9.924032000000063,3.1452431999998693,-3.413330800000001
-9.052747000000062,7.313368466666535,-3.5218425000000013
-8.181462000000062,11.4814937333332,-3.630354200000001
-7.310177000000061,15.649618999999866,-3.738865900000001
-7.310177000000061,15.649618999999866,-3.738865900000001
-8.976150666666728,12.9272523333332,-4.3484462666666674
-10.642124333333394,10.204885666666533,-4.958026633333334
-12.308098000000058,7.482518999999864,-5.567607
-12.308098000000058,7.482518999999864,-5.567607
-14.443224666666723,3.1133278666665305,-5.529308666666666
-16.578351333333387,-1.2558632666668028,-5.491010333333334
-18.713478000000052,-5.625054400000136,-5.452712000000002
-18.713478000000052,-5.625054400000136,-5.452712000000003
-18.88582033333339,-10.28148193333347,-3.8473774200000026
-19.05816266666673,-14.937909466666804,-2.242042840000003
-19.230505000000065,-19.594337000000138,-0.6367082600000028
-19.23050500000007,-19.594337000000138,-0.6367082600000027
-15.266636866666731,-19.549656333333473,-0.37181209000000265
-11.3027687333334,-19.50497566666681,-0.10691592000000265
-7.338900600000066,-19.460295000000144,0.15798024999999735
-7.338900600000066,-19.460295000000144,0.15798024999999735
-1.6707607333333998,-17.21346466666681,0.09414984666666404
3.9973791333332667,-14.966634333333474,0.030319443333330708
9.665518999999934,-12.719804000000138,-0.03351096000000262
11.5038346666666,-10.734678333333472,0.8090503599999974
13.342150333333265,-8.749552666666805,1.6516116799999976
15.18046599999993,-6.764427000000139,2.4941729999999978
15.18046599999993,-6.764427000000139,2.4941729999999978
15.18046599999993,-6.764427000000139,2.4941729999999978
12.505971999999929,-8.516571666666804,3.170775233333331
9.83147799999993,-10.26871633333347,3.8473774666666642
7.156983999999929,-12.020861000000139,4.523979699999997
4.163338099999929,-14.36024500000014,3.611204966666664
1.169692199999929,-16.69962900000014,2.698430233333331
-1.8239537000000707,-19.03901300000014,1.7856554999999978
-1.8239537000000707,-19.03901300000014,1.7856554999999978
-7.405922466666737,-19.22412100000014,0.9303281133333311
-12.987891233333402,-19.40922900000014,0.07500072666666442
-18.56986000000007,-19.594337000000138,-0.7803266600000023
-18.56986000000007,-19.594337000000138,-0.7803266600000023
-17.510275333333404,-17.411337666666807,-1.5590576066666688
-16.450690666666738,-15.228338333333474,-2.3377885533333354
-15.391106000000072,-13.04533900000014,-3.116519500000002
-15.391106000000072,-13.04533900000014,-3.1165195000000026
-12.844272833333404,-6.914428666666808,-3.5888645333333358
-10.297439666666735,-0.7835183333334749,-4.061209566666669
-7.7506065000000675,5.347391999999858,-4.533554600000003
-7.7506065000000675,5.347391999999858,-4.533554600000003
-8.216568666666733,6.978258666666526,-4.891004733333335
-8.682530833333399,8.609125333333193,-5.248454866666668
-9.148493000000064,10.239991999999859,-5.605905
-11.149576000000067,9.062321266666524,-5.203773466666667
-13.150659000000067,7.884650533333191,-4.801641933333333
-15.151742000000064,6.706979799999857,-4.3995104000000005
-15.151742000000064,6.706979799999857,-4.3995104000000005
-15.151742000000064,6.706979799999857,-4.3995104000000005
-16.409200666666734,1.5303341999998572,-3.7643979333333335
-17.666659333333403,-3.6463114000001426,-3.129285466666667
-18.924118000000075,-8.822957000000143,-2.494173
-18.85390466666674,-12.413417000000143,-2.1782125000000003
-18.783691333333405,-16.00387700000014,-1.8622520000000005
-18.713478000000073,-19.594337000000138,-1.5462915000000006
-18.713478000000077,-19.594337000000138,-1.5462915000000006
-13.986836866666744,-19.265610666666806,-2.2611920000000008
-9.260195733333413,-18.936884333333477,-2.9760925000000005
-4.5335546000000795,-18.608158000000145,-3.6909930000000006
-4.533554600000079,-18.608158000000145,-3.6909930000000006
-0.09415006666674526,-15.314509333333476,-3.0399229000000005
4.345254466666588,-12.020860666666811,-2.3888528000000004
8.784658999999921,-8.727212000000145,-1.7377827000000003
8.784658999999921,-8.727212000000144,-1.7377827000000003
12.355969999999921,-7.412305666666811,-0.5377711333333338
15.92728099999992,-6.0973993333334775,0.6622404333333328
19.49859199999992,-4.7824930000001435,1.8622519999999996
19.498591999999917,-4.782493000000144,1.8622519999999996
17.060270666666582,-7.737840666666812,1.6803353666666663
14.621949333333248,-10.693188333333476,1.498418733333333
12.183627999999914,-13.648536000000142,1.3165021
12.183627999999914,-13.648536000000142,1.3165021
5.9825044666665805,-15.63046966666681,0.5281966333333331
-0.21861906666675246,-17.61240333333348,-0.26010883333333346
-6.4197426000000855,-19.594337000000145,-1.0484143000000001
-6.4197426000000855,-19.59433700000015,-1.0484143000000001
-10.814465733333419,-19.581571333333482,-1.2845868333333337
-15.209188866666752,-19.568805666666815,-1.520759366666667
-19.603912000000086,-19.55604000000015,-1.7569319000000005
-17.02197233333342,-16.137921666666816,-2.1016160666666672
-14.440032666666752,-12.719803333333482,-2.446300233333334
-11.858093000000084,-9.30168500000015,-2.790984400000001
-11.858093000000084,-9.30168500000015,-2.7909844000000015
-9.582539233333419,-2.988858333333484,-2.9026876000000015
-7.306985466666752,3.3239683333331826,-3.014390800000001
-5.031431700000087,9.63679499999985,-3.1260940000000006
-5.031431700000087,9.63679499999985,-3.1260940000000006
-6.627191466666752,10.948509666666517,-4.204827866666667
-8.222951233333418,12.260224333333184,-5.283561733333334
-9.818711000000084,13.571938999999851,-6.3622956
-9.818711000000086,13.571938999999851,-6.3622956
-12.336820666666751,10.176161666666518,-6.0973994000000005
-14.854930333333416,6.780384333333186,-5.8325032000000006
-17.37304000000008,3.3846069999998516,-5.567607
-17.373040000000078,3.384606999999852,-5.567607
-18.116664000000082,-4.243126000000147,-4.329297166666667
-18.860288000000082,-11.870859000000147,-3.090987333333333
-19.603912000000083,-19.498592000000148,-1.8526775000000002
-19.603912000000086,-19.498592000000148,-1.8526774999999998
-16.24324133333342,-19.530507000000146,-0.7579860666666666
-12.882570666666751,-19.562422000000144,0.3367053666666668
-9.521900000000086,-19.59433700000014,1.4313968
-4.718662333333418,-16.935801000000144,0.8824553333333333
0.08457533333324878,-14.277265000000147,0.33351386666666666
4.887812999999916,-11.61872900000015,-0.21542759999999994
4.887812999999916,-11.61872900000015,-0.21542759999999994
4.887812999999916,-11.61872900000015,-0.21542759999999994
7.508051333333249,-8.538912066666816,0.3845781666666667
10.128289666666582,-5.459095133333482,0.9845839333333334
12.748527999999915,-2.379278200000149,1.5845896999999998
13.415555333333247,-4.562278133333483,1.8048046333333332
14.08258266666658,-6.745278066666816,2.0250195666666664
14.749609999999912,-8.928278000000148,2.2452345
14.74960999999991,-8.928278000000148,2.2452345
10.954892666666575,-12.416609333333481,2.0601263
7.160175333333243,-15.904940666666816,1.8750180999999995
3.36545799999991,-19.39327200000015,1.6899098999999993
3.36545799999991,-19.393272000000152,1.6899098999999993
-3.4931186666667564,-19.460293666666818,1.6260794999999995
-10.351695333333423,-19.527315333333487,1.5622490999999996
-17.21027200000009,-19.594337000000152,1.4984186999999995
-17.21027200000009,-19.594337000000152,1.4984186999999995
-17.67623400000009,-18.550710333333488,0.569686333333333
-18.142196000000087,-17.507083666666826,-0.3590460333333338
-18.60815800000009,-16.46345700000016,-1.2877784000000005
-18.60815800000009,-16.46345700000016,-1.2877784000000008
-15.898557666666752,-9.292111166666826,-2.723962466666667
-13.18895733333342,-2.1207653333334933,-4.160146533333333
-10.479357000000087,5.05058049999984,-5.596330599999999
-10.479357000000086,5.05058049999984,-5.596330599999999
-10.412335000000086,8.944234999999841,-6.346337733333333
-10.345313000000088,12.83788949999984,-7.096344866666667
-10.278291000000088,16.73154399999984,-7.846352
-10.27829100000009,16.73154399999984,-7.846352
-12.461290666666756,13.862367666666506,-7.721882766666668
-14.644290333333421,10.993191333333172,-7.597413533333334
-16.827290000000087,8.124014999999838,-7.472944300000001
-17.75283066666675,-0.033510666666828115,-5.8803758
-18.67837133333342,-8.191036333333495,-4.2878073
-19.603912000000086,-16.34856200000016,-2.6952388000000003
-19.603912000000086,-16.34856200000016,-2.6952388000000003
-19.603912000000086,-16.34856200000016,-2.6952388000000003
-18.41666633333342,-17.43048700000016,-1.4633120000000002
-17.22942066666676,-18.512412000000158,-0.2313852000000002
-16.042175000000093,-19.594337000000156,1.0005415999999998
-10.839997500000093,-18.946458666666825,1.1058617666666664
-5.637820000000093,-18.29858033333349,1.2111819333333331
-0.4356425000000925,-17.650702000000155,1.3165021
-0.4356425000000925,-17.650702000000155,1.3165021
4.916536666666574,-14.650673333333492,1.737782733333333
10.268715833333241,-11.650644666666826,2.1590633666666665
15.62089499999991,-8.65061600000016,2.5803439999999997
15.62089499999991,-8.650616000000161,2.580344
15.231529666666574,-8.905937333333492,2.835665666666667
14.842164333333239,-9.161258666666825,3.090987333333333
14.452798999999905,-9.416580000000158,3.3463089999999998
14.452798999999905,-9.416580000000156,3.3463089999999998
10.141055299999906,-12.809165666666823,2.9601349999999997
5.829311599999905,-16.20175133333349,2.573961
1.5175678999999043,-19.594337000000156,2.187787
1.5175678999999043,-19.594337000000156,2.187787
-4.4186597333334285,-19.594337000000156,1.9771466999999998
-10.35488736666676,-19.594337000000156,1.7665064
-16.291115000000094,-19.594337000000156,1.5558661
-17.19112333333343,-18.86347933333349,0.6462828666666666
-18.091131666666765,-18.132621666666825,-0.26330036666666673
-18.991140000000104,-17.40176400000016,-1.1728836000000002
-18.991140000000104,-17.40176400000016,-1.1728836
-18.991140000000104,-17.40176400000016,-1.1728836
-16.233666666666775,-10.989999900000162,-2.3537460666666665
-13.47619333333344,-4.5782358000001615,-3.534608533333333
-10.718720000000104,1.8335282999998384,-4.715470999999999
-10.942126666666772,6.732512199999835,-5.711225333333331
-11.165533333333437,11.631496099999834,-6.706979666666665
-11.388940000000105,16.53047999999983,-7.702733999999997
-11.388940000000105,16.53047999999983,-7.702733999999997
-12.853847666666773,14.04747683333317,-7.310176999999997
-14.31875533333344,11.564473666666506,-6.917619999999997
-15.783663000000105,9.081470499999842,-6.525062999999997
-15.783663000000104,9.08147049999984,-6.525062999999997
-17.057079333333437,1.7760806666665072,-5.111219533333331
-18.330495666666767,-5.529309166666827,-3.697376066666665
-19.603912000000097,-12.834699000000159,-2.2835325999999987
-19.603912000000097,-12.834699000000159,-2.2835325999999987
-18.799649333333427,-15.087911666666827,-1.0739464999999988
-17.995386666666757,-17.341124333333493,0.1356396000000013
-17.19112400000009,-19.594337000000156,1.3452257000000014
-17.191124000000087,-19.594337000000156,1.3452257000000014
-12.946402000000086,-18.91135200000016,1.7090590000000014
-8.701680000000087,-18.228367000000162,2.0728923000000012
-4.456958000000088,-17.545382000000163,2.4367256000000013
-4.456958000000088,-17.545382000000163,2.4367256000000013
-0.8377740666667549,-14.315563666666833,2.321830900000001
2.781409866666578,-11.0857453333335,2.206936200000001
6.4005937999999105,-7.855927000000168,2.092041500000001
8.889979533333245,-8.002736666666834,2.3856613333333336
11.37936526666658,-8.149546333333502,2.679281166666667
13.868750999999913,-8.296356000000166,2.9729010000000002
13.868750999999913,-8.296356000000165,2.9729010000000002
12.557035999999911,-10.875104666666834,3.1516261333333335
11.24532099999991,-13.453853333333498,3.3303512666666664
9.933605999999909,-16.032602000000164,3.5090763999999997
9.93360599999991,-16.032602000000164,3.5090763999999997
3.7580146666665772,-17.21984700000016,2.6186422799999995
-2.4175766666667555,-18.407092000000162,1.7282081599999994
-8.59316800000009,-19.594337000000163,0.8377740399999994
-8.59316800000009,-19.594337000000163,0.8377740399999993
-12.26341600000009,-19.552848000000164,-0.1484057066666674
-15.93366400000009,-19.511359000000166,-1.1345854533333342
-19.60391200000009,-19.469870000000167,-2.120765200000001
-19.60391200000009,-19.469870000000167,-2.1207652000000015
-18.882628666666758,-15.138976666666835,-2.8197080333333346
-18.161345333333426,-10.808083333333501,-3.5186508666666683
-17.440062000000093,-6.477190000000168,-4.217593700000002
-17.440062000000097,-6.477190000000168,-4.217593700000003
-15.936856000000097,0.4930899999998317,-3.5920558000000025
-14.433650000000094,7.4633699999998315,-2.9665179000000026
-12.930444000000094,14.433649999999831,-2.3409800000000023
-12.930444000000094,14.433649999999831,-2.3409800000000023
-13.447470333333426,14.357053333333164,-2.101616000000002
-13.96449666666676,14.280456666666497,-1.8622520000000022
-14.481523000000093,14.20385999999983,-1.622888000000002
-15.933664666666763,8.858063899999832,-2.3888528666666686
-17.38580633333343,3.5122677999998313,-3.154817733333335
-18.837948000000097,-1.8335283000001688,-3.9207826000000012
-18.837948000000097,-1.8335283000001688,-3.9207826000000012
-18.837948000000097,-1.8335283000001688,-3.9207826000000012
-19.093269333333435,-7.753797866666836,-2.149488866666668
-19.348590666666766,-13.674067433333503,-0.3781951333333347
-19.603912000000097,-19.59433700000017,1.3930985999999985
-16.6326070000001,-19.568805333333504,1.645228733333332
-13.661302000000099,-19.54327366666684,1.8973588666666652
-10.689997000000098,-19.517742000000172,2.1494889999999987
-10.689997000000098,-19.517742000000172,2.1494889999999987
-6.461232733333432,-17.073037333333506,1.862252133333332
-2.232468466666766,-14.628332666666841,1.5750152666666652
1.996295799999901,-12.183628000000175,1.2877783999999985
1.996295799999901,-12.183628000000175,1.2877783999999983
6.592084866666568,-10.313397200000175,1.3037359999999982
11.187873933333236,-8.443166400000175,1.319693599999998
15.783662999999905,-6.572935600000176,1.335651199999998
15.783662999999905,-6.572935600000176,1.335651199999998
15.435787333333238,-8.893170733333507,1.3962900999999979
15.087911666666571,-11.21340586666684,1.4569289999999977
14.740035999999904,-13.533641000000172,1.5175678999999975
14.740035999999904,-13.533641000000168,1.5175678999999975
10.453824399999904,-15.553873000000166,0.45479166666666426
6.1676127999999055,-17.574105000000163,-0.6079845666666689
1.881401199999906,-19.594337000000163,-1.670760800000002
1.881401199999906,-19.594337000000163,-1.670760800000002
-4.9707925333334275,-19.556039000000165,-3.027156866666669
-11.82298626666676,-19.517741000000168,-4.383552933333335
-18.675180000000093,-19.47944300000017,-5.739949000000002
-18.675180000000093,-19.47944300000017,-5.739949000000002
-18.31772966666676,-18.05283366666683,-5.222922800000002
-17.96027933333343,-16.626224333333496,-4.705896600000002
-17.602829000000096,-15.19961500000016,-4.188870400000002
-14.953867333333427,-8.127206333333492,-4.603767933333335
-12.30490566666676,-1.0547976666668248,-5.018665466666668
-9.655944000000092,6.0176109999998415,-5.433563000000002
-9.655944000000092,6.0176109999998415,-5.433563000000002
-9.655944000000092,6.0176109999998415,-5.433563000000002
-10.13148066666676,8.519762999999841,-5.912291000000002
-10.60701733333343,11.021914999999842,-6.391019000000003
-11.082554000000096,13.52406699999984,-6.869747000000003
-12.595334333333431,11.36021619999984,-6.595276233333336
-14.108114666666765,9.19636539999984,-6.320805466666669
-15.620895000000099,7.032514599999838,-6.046334700000002
-15.620895000000099,7.032514599999838,-6.046334700000002
-16.824098333333435,-0.10053293333349522,-4.878238400000002
-18.02730166666677,-7.233580466666829,-3.7101421000000023
-19.230505000000104,-14.366628000000162,-2.5420458000000026
-19.230505000000104,-14.366628000000162,-2.542045800000002
-17.918790333333437,-16.109197666666827,-2.267575100000002
-16.607075666666766,-17.851767333333495,-1.9931044000000018
-15.295361000000097,-19.594337000000163,-1.7186337000000016
-15.295361000000097,-19.594337000000166,-1.7186337000000016
-11.194257400000097,-19.396463000000168,-1.048414433333335
-7.093153800000098,-19.19858900000017,-0.37819516666666836
-2.992050200000099,-19.00071500000017,0.2920240999999983
-2.992050200000099,-19.00071500000017,0.2920240999999983
2.1303395333332342,-15.67515100000017,0.7388368999999982
7.2527292666665675,-12.34958700000017,1.1856496999999984
12.3751189999999,-9.02402300000017,1.6324624999999982
13.409171666666568,-9.31126000000017,1.7537402666666646
14.443224333333236,-9.59849700000017,1.8750180333333313
15.477276999999903,-9.88573400000017,1.9962957999999977
15.477276999999903,-9.88573400000017,1.9962957999999975
11.507025933333237,-12.381502666666838,2.302681766666664
7.536774866666569,-14.877271333333505,2.609067733333331
3.5665237999999015,-17.373040000000174,2.9154536999999974
3.5665237999999015,-17.373040000000174,2.9154536999999974
-0.8952211333334318,-18.113472333333505,2.2580005333333304
-5.356966066666765,-18.853904666666836,1.6005473666666639
-9.818711000000098,-19.594337000000166,0.9430941999999972
-9.8187110000001,-19.594337000000166,0.9430941999999972
-12.624057333333432,-19.453910666666832,0.7069217099999973
-15.429403666666765,-19.313484333333502,0.47074921999999725
-18.234750000000098,-19.173058000000168,0.23457672999999732
-18.234750000000098,-19.173058000000168,0.23457672999999732
-15.059187666666766,-14.500672333333503,-0.6207506466666693
-11.883625333333434,-9.828286666666836,-1.4760780233333362
-8.708063000000102,-5.15590100000017,-2.3314054000000026
-8.708063000000102,-5.15590100000017,-2.331405400000003
-9.0208320000001,0.15798033333316397,-3.5856729333333366
-9.3336010000001,5.471861666666498,-4.83994046666667
-9.646370000000097,10.785742999999831,-6.094208000000003
-9.646370000000097,10.785742999999831,-6.094208000000002
-11.21978933333343,10.7602106666665,-6.5059140000000015
-12.793208666666764,10.73467833333317,-6.917620000000002
-14.366628000000098,10.709145999999839,-7.329326000000002
-14.366628000000098,10.709145999999839,-7.329326000000002
-15.266636666666765,6.432508933333171,-5.848460666666669
-16.16664533333343,2.1558718666665038,-4.367595333333337
-17.066654000000103,-2.120765200000163,-2.8867300000000036
-17.7847460000001,-7.945289133333496,-1.6931014566666702
-18.5028380000001,-13.76981306666683,-0.4994729133333369
-19.2209300000001,-19.594337000000163,0.6941556299999965
-19.2209300000001,-19.594337000000166,0.6941556299999965
-15.142167333333433,-19.578379666666834,0.90479595333333
-11.063404666666765,-19.5624223333335,1.1154362766666635
-6.9846420000000995,-19.54646500000017,1.3260765999999968
-6.9846420000000995,-19.54646500000017,1.3260765999999968
-3.933548666666765,-17.274102666666835,1.3994815666666636
