accx,accy,accz
6.4197426,-1.3548003,7.300602400000002
6.4197426,-1.3548003,7.300602400000002
6.4197426,-1.3548003,7.300602400000002
6.4197426,-1.3548003,7.300602400000002
6.812299566666667,-1.2750123,7.214431266666668
7.204856533333333,-1.1952242999999998,7.128260133333334
7.597413499999999,-1.1154362999999998,7.042089
8.002736666666667,-1.3484172666666667,6.847406333333333
8.408059833333335,-1.5813982333333334,6.652723666666667
8.813383,-1.8143792000000003,6.458041000000001
8.813383,-1.8143792000000003,6.458041000000001
8.972958666666665,-1.3324596566666669,6.138889
9.132534333333332,-0.8505401133333335,5.819737
9.29211,-0.3686205700000001,5.500585
9.29211,-0.3686205700000001,5.500585
9.904881999999999,-1.2367140466666668,5.481435866666666
10.517653999999999,-2.1048075233333337,5.4622867333333325
11.130425999999998,-2.9729010000000002,5.443137599999999
11.130425999999998,-2.9729010000000002,5.443137599999999
10.859146999999998,-2.832474066666667,5.149517833333332
10.587867999999999,-2.692047133333334,4.855898066666665
10.316588999999999,-2.5516202000000003,4.562278299999998
10.316588999999999,-2.5516202000000003,4.562278299999998
10.169778999999998,-2.503747466666667,4.405893666666665
10.022968999999998,-2.4558747333333333,4.249509033333332
9.876159,-2.4080019999999998,4.0931244
9.876159,-2.4080019999999998,4.0931244
9.58892233333333,-2.098424533333333,3.831419799999999
9.301685666666664,-1.7888470666666667,3.5697151999999988
9.014448999999997,-1.4792696000000003,3.308010599999998
9.014448999999997,-1.4792696000000003,3.308010599999998
9.196365666666665,-1.6228880000000003,3.1994988999999983
9.378282333333331,-1.7665064000000001,3.0909871999999985
9.560198999999997,-1.9101248000000002,2.9824754999999983
9.560198999999995,-1.9101248000000002,2.9824754999999983
9.64956133333333,-2.012253466666667,2.9058789999999988
9.738923666666663,-2.1143821333333332,2.8292824999999993
9.828285999999997,-2.2165108,2.7526859999999993
9.828285999999999,-2.2165108,2.7526859999999993
9.892116333333332,-2.0728923666666668,2.8069418999999995
9.955946666666664,-1.9292739333333337,2.8611977999999993
10.019776999999998,-1.7856555000000005,2.915453699999999
10.019776999999998,-1.7856555000000005,2.915453699999999
9.975095999999999,-1.709059033333334,2.877155466666666
9.930414999999998,-1.6324625666666674,2.838857233333332
9.885734,-1.555866100000001,2.8005589999999985
9.885734,-1.555866100000001,2.8005589999999985
9.793179666666667,-1.543100033333334,2.6920473333333326
9.700625333333335,-1.530333966666667,2.5835356666666662
9.608071000000002,-1.5175679000000002,2.475024
9.608071000000002,-1.5175679000000002,2.4750240000000003
9.617645666666668,-1.4984187333333336,2.4271511333333335
9.627220333333334,-1.479269566666667,2.379278266666667
9.636795,-1.4601204000000008,2.3314054000000004
9.636795,-1.4601204000000008,2.331405400000001
9.639986666666665,-1.447354333333334,2.309064800000001
9.643178333333331,-1.4345882666666674,2.2867242000000014
9.646369999999997,-1.421822200000001,2.2643836000000017
9.646369999999997,-1.421822200000001,2.2643836000000017
9.639986666666665,-1.501610200000001,2.2165108000000013
9.633603333333333,-1.5813982000000009,2.168638000000001
9.627220000000001,-1.661186200000001,2.1207652000000006
9.627220000000001,-1.661186200000001,2.1207652
9.620837000000002,-1.562249100000001,2.1494888333333333
9.614454000000002,-1.463312000000001,2.178212466666666
9.608071000000002,-1.3643749000000012,2.206936099999999
9.608071000000002,-1.3643749000000014,2.2069360999999987
9.627220333333334,-1.3356512000000016,2.213319133333332
9.646369666666665,-1.3069275000000016,2.2197021666666656
9.665518999999996,-1.2782038000000016,2.2260851999999987
9.665518999999994,-1.2782038000000018,2.2260851999999987
9.643177999999995,-1.3292681333333352,2.2101275999999985
9.620836999999996,-1.3803324666666683,2.1941699999999984
9.598495999999995,-1.4313968000000017,2.1782123999999983
9.608070666666661,-1.4282052666666685,2.1558717999999986
9.617645333333327,-1.4250137333333353,2.133531199999999
9.627219999999992,-1.421822200000002,2.111190599999999
9.627219999999992,-1.421822200000002,2.111190599999999
9.70062499999999,-1.466503500000002,2.143105766666666
9.77402999999999,-1.511184800000002,2.1750209333333324
9.847434999999988,-1.555866100000002,2.2069360999999987
9.847434999999987,-1.555866100000002,2.2069360999999987
9.809136999999987,-1.463312000000002,2.245234399999999
9.770838999999986,-1.3707579000000019,2.2835326999999985
9.732540999999987,-1.2782038000000018,2.321830999999998
9.732540999999989,-1.2782038000000018,2.321830999999998
9.707008666666654,-1.2813953333333352,2.289915733333332
9.681476333333322,-1.2845868666666689,2.2580004666666653
9.65594399999999,-1.2877784000000023,2.2260851999999987
9.65594399999999,-1.2877784000000025,2.2260851999999987
9.63360349999999,-1.3165020666666691,2.2228937333333323
9.611262999999992,-1.3452257333333357,2.2197022666666655
9.588922499999994,-1.3739494000000025,2.2165107999999987
9.588922499999994,-1.3739494000000025,2.2165107999999987
9.604879999999993,-1.3771409333333358,2.2197022666666655
9.620837499999991,-1.3803324666666692,2.2228937333333323
9.63679499999999,-1.3835240000000029,2.2260851999999987
9.66232699999999,-1.4505459000000027,2.2452343333333324
9.68785899999999,-1.517567800000003,2.2643834666666662
9.713390999999993,-1.5845897000000033,2.2835325999999996
9.713390999999993,-1.5845897000000033,2.2835326
9.713390999999993,-1.5845897000000033,2.2835326
9.716582666666659,-1.6133134000000033,2.2899156333333335
9.719774333333325,-1.6420371000000031,2.2962986666666665
9.72296599999999,-1.670760800000003,2.3026817
9.72296599999999,-1.670760800000003,2.3026816999999995
9.713391499999991,-1.590972800000003,2.318639366666666
9.703816999999992,-1.511184800000003,2.3345970333333326
9.694242499999993,-1.4313968000000028,2.3505546999999987
9.694242499999993,-1.4313968000000028,2.3505546999999987
9.624029333333326,-1.370757900000003,2.347363133333332
9.553816166666659,-1.3101190000000031,2.3441715666666654
9.483602999999993,-1.2494801000000033,2.3409799999999987
9.483602999999993,-1.2494801000000033,2.3409799999999987
9.537858666666658,-1.3548003000000033,2.3218308666666654
9.592114333333322,-1.460120500000003,2.3026817333333316
9.646369999999989,-1.5654407000000028,2.283532599999998
9.646369999999989,-1.5654407000000028,2.283532599999998
9.678284999999988,-1.552674600000003,2.302681733333331
9.710199999999988,-1.5399085000000028,2.321830866666665
9.74211499999999,-1.5271424000000027,2.3409799999999987
9.74211499999999,-1.5271424000000027,2.3409799999999987
9.73573199999999,-1.530333900000003,2.315447866666666
9.72934899999999,-1.533525400000003,2.2899157333333324
9.72296599999999,-1.536716900000003,2.264383599999999
9.72296599999999,-1.536716900000003,2.264383599999999
9.687859333333323,-1.536716900000003,2.2962987333333325
9.652752666666657,-1.536716900000003,2.328213866666666
9.617645999999992,-1.536716900000003,2.3601289999999993
9.617645999999992,-1.536716900000003,2.3601289999999993
9.633603666666657,-1.5430999666666698,2.408001833333332
9.649561333333322,-1.5494830333333365,2.455874666666665
9.665518999999987,-1.5558661000000031,2.503747499999998
9.665518999999986,-1.5558661000000031,2.503747499999998
9.64956133333332,-1.5462915333333365,2.4877898999999988
9.633603666666655,-1.5367169666666696,2.471832299999999
9.61764599999999,-1.5271424000000027,2.4558746999999994
9.617645999999992,-1.5271424000000027,2.4558746999999994
9.617645999999992,-1.5271424000000027,2.4558746999999994
9.627220666666657,-1.559057600000003,2.443108666666666
9.636795333333323,-1.5909728000000032,2.4303426333333324
9.646369999999989,-1.6228880000000034,2.417576599999999
9.611263333333321,-1.6069304000000038,2.4303426333333324
9.576156666666655,-1.5909728000000036,2.443108666666666
9.54104999999999,-1.5750152000000035,2.4558746999999994
9.54104999999999,-1.5750152000000035,2.4558746999999994
9.502751666666656,-1.5494830333333367,2.4303425333333326
9.464453333333324,-1.5239508666666701,2.404810366666666
9.426154999999993,-1.4984187000000035,2.3792781999999986
9.426154999999993,-1.4984187000000035,2.3792781999999986
9.426154999999993,-1.4984187000000035,2.3792781999999986
9.458069999999992,-1.5782067000000033,2.3633205999999984
9.489984999999992,-1.6579947000000033,2.3473629999999983
9.521899999999993,-1.7377827000000032,2.331405399999998
9.55062366666666,-1.7154420666666699,2.420768033333332
9.579347333333326,-1.6931014333333365,2.5101306666666656
9.608070999999994,-1.670760800000003,2.5994932999999993
9.608070999999994,-1.670760800000003,2.5994933
9.582538999999992,-1.6835268666666696,2.6282169333333334
9.557006999999992,-1.6962929333333363,2.656940566666667
9.531474999999991,-1.7090590000000028,2.6856642
9.531474999999991,-1.7090590000000028,2.6856642
9.515517666666659,-1.6739523000000027,2.682472733333334
9.499560333333326,-1.6388456000000027,2.679281266666667
9.483602999999993,-1.6037389000000026,2.6760898
9.483602999999993,-1.6037389000000026,2.6760898
9.518709499999993,-1.578206733333336,2.6760898
9.553815999999992,-1.5526745666666695,2.6760898
9.588922499999994,-1.5271424000000027,2.6760898
9.588922499999994,-1.5271424000000027,2.6760898
9.582539333333324,-1.530333900000003,2.631408466666667
9.576156166666657,-1.533525400000003,2.586727133333334
9.569772999999989,-1.536716900000003,2.542045800000001
9.569772999999989,-1.536716900000003,2.542045800000001
9.528283333333322,-1.4952271666666697,2.5484288666666672
9.486793666666657,-1.4537374333333364,2.5548119333333337
9.445303999999991,-1.4122477000000029,2.561195
9.445303999999991,-1.4122477000000029,2.561195
9.458070333333325,-1.4313968000000028,2.5197052
9.470836666666658,-1.4505459000000027,2.4782154000000003
9.483602999999993,-1.4696950000000026,2.436725600000001
9.502751999999992,-1.4696950000000026,2.4686408000000006
9.52190099999999,-1.4696950000000026,2.500556000000001
9.54104999999999,-1.4696950000000026,2.532471200000001
9.54104999999999,-1.4696950000000026,2.5324712000000016
9.563390333333324,-1.4984187000000029,2.522896633333335
9.585730666666658,-1.5271424000000031,2.513322066666668
9.608070999999994,-1.5558661000000031,2.503747500000001
9.608070999999994,-1.5558661000000031,2.503747500000001
9.560198333333325,-1.5303339333333366,2.503747500000001
9.512325666666657,-1.50480176666667,2.503747500000001
9.46445299999999,-1.4792696000000032,2.503747500000001
9.46445299999999,-1.4792696000000032,2.503747500000001
9.467644666666656,-1.50480176666667,2.522896666666668
9.470836333333322,-1.5303339333333366,2.5420458333333347
9.474027999999988,-1.5558661000000031,2.5611950000000014
9.474027999999986,-1.5558661000000031,2.5611950000000014
9.53147533333332,-1.5558661000000031,2.609067733333335
9.588922666666653,-1.5558661000000031,2.6569404666666685
9.646369999999987,-1.5558661000000031,2.704813200000002
9.646369999999989,-1.5558661000000031,2.704813200000002
9.636795333333323,-1.571823700000003,2.701621733333335
9.627220666666657,-1.587781300000003,2.698430266666669
9.617645999999992,-1.6037389000000026,2.695238800000002
9.61126266666666,-1.5558660666666695,2.6569405333333354
9.604879333333328,-1.5079932333333363,2.6186422666666687
9.598495999999995,-1.460120400000003,2.580344000000002
9.598495999999995,-1.460120400000003,2.580344000000002
9.585730333333329,-1.453737400000003,2.580344000000002
9.572964666666662,-1.4473544000000027,2.580344000000002
9.560198999999995,-1.4409714000000025,2.580344000000002
9.560198999999995,-1.4409714000000022,2.580344000000002
9.582539333333328,-1.428205300000002,2.5197051666666685
9.60487966666666,-1.4154392000000016,2.4590663333333356
9.627219999999992,-1.4026731000000012,2.398427500000002
9.627219999999992,-1.4026731000000012,2.398427500000002
9.60487966666666,-1.4473543666666682,2.350554666666669
9.582539333333328,-1.4920356333333349,2.302681833333335
9.560198999999995,-1.5367169000000018,2.2548090000000016
9.560198999999995,-1.5367169000000018,2.2548090000000016
9.512325999999996,-1.4760780333333352,2.3250224333333347
9.464452999999995,-1.4154391666666684,2.395235866666668
9.416579999999994,-1.3548003000000017,2.4654493000000013
9.416579999999994,-1.3548003000000017,2.4654493000000013
9.496367999999995,-1.377140933333335,2.494172933333335
9.576155999999996,-1.3994815666666687,2.5228965666666685
9.655943999999996,-1.421822200000002,2.551620200000002
9.655943999999998,-1.421822200000002,2.551620200000002
9.691051,-1.5335254333333355,2.497364400000002
9.726158,-1.645228666666669,2.443108600000002
9.761265000000002,-1.7569319000000023,2.388852800000002
9.761265000000002,-1.7569319000000025,2.388852800000002
9.639987,-1.7026760666666696,2.4016188666666687
9.518709,-1.6484202333333364,2.4143849333333356
9.397430999999997,-1.5941644000000033,2.427151000000002
9.397430999999997,-1.5941644000000033,2.427151000000002
9.483601999999998,-1.597355900000003,2.4877899000000023
9.569772999999998,-1.6005474000000028,2.548428800000002
9.655943999999998,-1.6037389000000026,2.6090677000000024
9.655943999999998,-1.6037389000000026,2.6090677000000024
9.659135666666664,-1.6388456000000027,2.5739609666666685
9.66232733333333,-1.6739523000000027,2.538854233333335
9.665518999999996,-1.7090590000000028,2.503747500000001
9.63041233333333,-1.6452286333333361,2.459066266666668
9.595305666666665,-1.5813982666666693,2.414385033333335
9.560198999999999,-1.5175679000000024,2.3697038000000017
9.560198999999999,-1.5175679000000024,2.3697038000000017
9.560198999999999,-1.5175679000000024,2.3697038000000017
9.563390333333333,-1.4792696333333357,2.3984274333333353
9.566581666666666,-1.440971366666669,2.427151066666669
9.569773,-1.4026731000000023,2.4558747000000025
9.569773,-1.4026731000000023,2.4558747000000025
9.601688333333334,-1.4441628666666688,2.4558747000000025
9.633603666666668,-1.4856526333333353,2.4558747000000025
9.665519000000003,-1.5271424000000018,2.4558747000000025
9.665519000000005,-1.5271424000000018,2.4558747000000025
9.65275266666667,-1.5494830666666688,2.4399171333333354
9.639986333333336,-1.5718237333333354,2.4239595666666687
9.627220000000003,-1.594164400000002,2.4080020000000015
9.627220000000001,-1.5941644000000015,2.4080020000000015
9.595305000000002,-1.6005474000000017,2.395235933333335
9.56339,-1.606930400000002,2.382469866666668
9.531475,-1.613313400000002,2.3697038000000017
9.569773333333332,-1.6324625333333354,2.3697038000000017
9.608071666666666,-1.6516116666666687,2.3697038000000017
9.646369999999997,-1.670760800000002,2.3697038000000017
9.646369999999997,-1.670760800000002,2.3697038000000017
9.643178333333331,-1.677143833333335,2.3728952666666685
9.639986666666665,-1.6835268666666685,2.376086733333335
9.636795,-1.6899099000000017,2.3792782000000017
9.636795,-1.6899099000000017,2.3792782000000017
9.633603333333333,-1.661186233333335,2.376086733333335
9.630411666666667,-1.6324625666666683,2.3728952666666685
9.627220000000001,-1.6037389000000015,2.3697038000000017
9.627220000000001,-1.6037389000000015,2.3697038000000017
9.627220000000001,-1.6037389000000015,2.3697038000000017
9.608071,-1.6101219333333348,2.3888528666666686
9.588921999999998,-1.6165049666666682,2.408001933333335
9.569772999999998,-1.6228880000000014,2.427151000000002
9.59530533333333,-1.5941643000000016,2.446300133333335
9.620837666666665,-1.5654406000000016,2.4654492666666683
9.646369999999997,-1.5367169000000018,2.484598400000001
9.646369999999997,-1.5367169000000018,2.484598400000001
9.646369999999997,-1.5367169000000018,2.484598400000001
9.620837666666665,-1.5590575666666684,2.4654492666666683
9.59530533333333,-1.581398233333335,2.446300133333335
9.569772999999998,-1.6037389000000015,2.427151000000002
9.592113666666664,-1.581398233333335,2.4494916666666686
9.614454333333333,-1.5590575666666684,2.471832333333335
9.636795,-1.5367169000000018,2.4941730000000017
9.636795,-1.5367169000000018,2.4941730000000017
9.617646,-1.5335254000000018,2.5133220666666687
9.598497000000002,-1.5303339000000016,2.532471133333335
9.579348000000003,-1.5271424000000016,2.551620200000002
9.579348000000005,-1.5271424000000016,2.551620200000002
9.55381566666667,-1.5558660666666684,2.5420457333333353
9.528283333333338,-1.584589733333335,2.5324712666666684
9.502751000000005,-1.6133134000000018,2.5228968000000016
9.502751000000005,-1.6133134000000018,2.5228968000000016
9.541049333333339,-1.5877812333333352,2.4782154666666685
9.579347666666674,-1.5622490666666684,2.4335341333333353
9.61764600000001,-1.5367169000000018,2.388852800000002
9.61764600000001,-1.5367169000000018,2.388852800000002
9.595305333333343,-1.6516116666666685,2.3473630666666687
9.572964666666676,-1.7665064333333351,2.3058733333333357
9.550624000000008,-1.8814012000000018,2.264383600000002
9.550624000000008,-1.8814012000000018,2.264383600000002
9.550624000000008,-1.7537403666666684,2.353746133333335
9.550624000000008,-1.6260795333333353,2.4431086666666686
9.550624000000008,-1.498418700000002,2.5324712000000016
9.550624000000008,-1.498418700000002,2.5324712000000016
9.550624000000008,-1.5399084666666685,2.526088133333335
9.550624000000008,-1.581398233333335,2.5197050666666687
9.550624000000008,-1.6228880000000014,2.5133220000000023
9.550624000000008,-1.6228880000000014,2.5133220000000023
9.537858000000009,-1.5909728000000012,2.4845983333333357
9.52509200000001,-1.559057600000001,2.4558746666666686
9.51232600000001,-1.5271424000000007,2.427151000000002
9.51232600000001,-1.5271424000000007,2.427151000000002
9.53147500000001,-1.5399085000000008,2.401618900000002
9.550624000000008,-1.5526746000000007,2.3760868000000017
9.569773000000007,-1.5654407000000008,2.3505547000000018
9.569773000000007,-1.5654407000000008,2.3505547000000018
9.569773000000007,-1.5654407000000008,2.3505547000000018
9.576156166666676,-1.5718237000000006,2.3505547000000018
9.582539333333344,-1.5782067000000009,2.3505547000000018
9.588922500000011,-1.584589700000001,2.3505547000000018
9.601688333333344,-1.549483000000001,2.3697038000000017
9.614454166666677,-1.514376300000001,2.3888529000000016
9.62722000000001,-1.479269600000001,2.4080020000000015
9.62722000000001,-1.479269600000001,2.4080020000000015
9.617645333333344,-1.5111848000000008,2.417576533333335
9.608070666666679,-1.5431000000000008,2.4271510666666685
9.598496000000013,-1.5750152000000008,2.4367256000000013
9.598496000000015,-1.5750152000000008,2.4367256000000013
9.598496000000015,-1.5750152000000008,2.4367256000000013
9.604879333333347,-1.530333933333334,2.490981500000001
9.61126266666668,-1.485652666666667,2.545237400000001
9.617646000000011,-1.4409714000000002,2.599493300000001
9.60807150000001,-1.482461166666667,2.605876300000001
9.59849700000001,-1.5239509333333334,2.612259300000001
9.588922500000011,-1.5654407,2.6186423000000016
9.588922500000011,-1.5654407,2.6186423000000016
9.61126300000001,-1.6324626,2.5580034000000023
9.633603500000008,-1.6994844999999998,2.497364500000003
9.655944000000007,-1.7665064,2.436725600000003
9.655944000000007,-1.7665064,2.4367256000000035
9.655944000000007,-1.7665064,2.4367256000000035
9.652752666666673,-1.7792725,2.4080019666666703
9.64956133333334,-1.7920386,2.3792783333333376
9.646370000000006,-1.8048047,2.3505547000000044
9.620837666666674,-1.7728894666666666,2.385661366666671
9.595305333333341,-1.7409742333333333,2.420768033333338
9.569773000000007,-1.7090589999999999,2.4558747000000047
9.569773000000007,-1.7090589999999999,2.4558747000000047
9.611262833333342,-1.680335333333333,2.459066233333338
9.652752666666677,-1.6516116666666665,2.4622577666666707
9.69424250000001,-1.6228879999999997,2.4654493000000035
9.69424250000001,-1.6228879999999997,2.4654493000000035
9.69424250000001,-1.6228879999999997,2.4654493000000035
9.595305333333343,-1.6133134666666666,2.4111934333333376
9.496368166666675,-1.6037389333333334,2.356937566666671
9.397431000000006,-1.5941644000000004,2.302681700000005
9.397431000000006,-1.5941644000000004,2.302681700000005
9.435729333333342,-1.6005474000000006,2.3218308000000047
9.474027666666677,-1.6069304000000006,2.3409799000000047
9.51232600000001,-1.613313400000001,2.3601290000000046
9.515517333333344,-1.6196964333333341,2.430342500000004
9.518708666666678,-1.6260794666666676,2.5005560000000044
9.521900000000011,-1.6324625000000008,2.5707695000000044
9.521900000000011,-1.6324625000000008,2.570769500000005
9.531474666666677,-1.6739523000000007,2.551620333333338
9.541049333333342,-1.7154421000000009,2.5324711666666713
9.550624000000008,-1.7569319000000012,2.5133220000000045
9.550624000000008,-1.7569319000000014,2.513322000000004
9.56658133333334,-1.725016666666668,2.513322000000004
9.582538666666673,-1.6931014333333347,2.513322000000004
9.598496000000006,-1.6611862000000013,2.513322000000004
9.598496000000006,-1.6611862000000013,2.513322000000004
9.608070666666672,-1.6516116333333344,2.5165136000000037
9.617645333333337,-1.6420370666666677,2.5197052000000038
9.627220000000003,-1.6324625000000008,2.5228968000000034
9.627220000000001,-1.6324625000000008,2.5228968000000034
9.668710000000003,-1.6739523000000007,2.4909815333333367
9.710200000000002,-1.7154421000000009,2.4590662666666705
9.751690000000004,-1.7569319000000012,2.427151000000004
9.751690000000005,-1.7569319000000014,2.427151000000004
9.697434166666671,-1.654803233333335,2.5165136000000037
9.643178333333337,-1.5526745666666681,2.605876200000004
9.588922500000004,-1.4505459000000016,2.695238800000004
9.588922500000002,-1.4505459000000016,2.695238800000004
9.464453,-1.4058646333333351,2.6282168666666705
9.3399835,-1.3611833666666684,2.561194933333337
9.215513999999999,-1.316502100000002,2.4941730000000035
9.215513999999999,-1.316502100000002,2.4941730000000035
9.276152999999999,-1.2686292666666683,2.45268326666667
9.336791999999997,-1.220756433333335,2.411193533333337
9.397430999999997,-1.1728836000000014,2.3697038000000035
9.397430999999997,-1.1728836000000011,2.3697038000000035
9.505942666666664,-1.2016073000000012,2.3728952666666703
9.614454333333333,-1.230331000000001,2.3760867333333366
9.722966,-1.2590547000000007,2.3792782000000035
9.722966,-1.2590547000000007,2.3792782000000035
9.81552,-1.1633091000000004,2.4941729666666705
9.908074,-1.0675635000000003,2.609067733333337
10.000627999999999,-0.9718179000000001,2.7239625000000043
10.000627999999999,-0.9718179000000001,2.7239625000000047
9.812328333333333,-1.0547973999999998,2.790984433333339
9.624028666666668,-1.1377768999999998,2.858006366666673
9.435729000000002,-1.2207563999999995,2.925028300000007
9.435729000000004,-1.2207563999999995,2.925028300000007
9.435729000000004,-1.2207563999999995,2.925028300000007
9.39743066666667,-1.2590546666666662,3.0654552000000073
9.359132333333338,-1.297352933333333,3.2058821000000073
9.320834000000007,-1.3356511999999998,3.3463090000000073
9.151683666666672,-1.4601204666666663,3.3526920000000078
8.982533333333341,-1.584589733333333,3.359075000000008
8.813383000000009,-1.7090589999999997,3.365458000000008
8.813383000000009,-1.7090589999999997,3.365458000000008
8.781467666666677,-1.8303367999999995,3.2824785000000083
8.749552333333341,-1.9516145999999999,3.199499000000008
8.717637000000005,-2.0728924,3.1165195000000074
8.717637000000005,-2.0728924,3.1165195000000074
8.717637000000005,-2.0728924,3.1165195000000074
8.436783333333336,-2.0728924,2.9824756666666743
8.155929666666669,-2.0728924,2.848431833333341
7.875076000000001,-2.0728924,2.714388000000008
7.236772000000001,-1.7952301333333331,2.6824727666666743
6.598468,-1.5175678666666663,2.650557533333341
5.960164,-1.2399055999999997,2.618642300000008
5.960164,-1.2399055999999995,2.618642300000008
5.7239915,-1.2399055999999995,2.497364533333341
5.487819000000001,-1.2399055999999995,2.3760867666666745
5.2516465000000006,-1.2399055999999995,2.2548090000000083
5.2516465000000006,-1.2399055999999995,2.2548090000000083
5.2516465000000006,-1.2399055999999995,2.2548090000000083
6.601659333333335,-1.3867155333333328,2.363320666666675
7.951672166666668,-1.533525466666666,2.471832333333342
9.301685,-1.680335399999999,2.5803440000000086
9.729349000000001,-1.520759366666666,2.6888556666666754
10.157013000000001,-1.3611833333333327,2.797367333333342
10.584677000000001,-1.2016072999999994,2.905879000000009
10.584677000000001,-1.2016072999999994,2.905879000000009
11.963413333333335,-1.539908466666666,2.806941900000009
13.34214966666667,-1.8782096333333327,2.7080048000000088
14.720886000000002,-2.2165107999999996,2.609067700000009
14.720886000000002,-2.2165107999999996,2.609067700000009
14.720886000000002,-2.2165107999999996,2.609067700000009
14.408117000000003,-1.980338266666666,2.2899157000000088
14.095348000000001,-1.7441657333333325,1.9707637000000087
13.782579,-1.507993199999999,1.6516117000000083
13.782579,-1.507993199999999,1.6516117000000083
13.488959333333334,-1.453737366666666,1.5111848333333417
13.195339666666667,-1.3994815333333328,1.370757966666675
12.90172,-1.3452256999999996,1.2303311000000081
11.296385333333333,-1.2558631666666662,1.5303339333333417
9.691050666666667,-1.1665006333333328,1.830336766666675
8.085716,-1.0771380999999993,2.1303396000000085
8.085716,-1.0771380999999993,2.1303396000000085
8.085716,-1.0771380999999993,2.1303396000000085
7.131451666666668,-1.2079903999999992,2.1814039333333417
6.177187333333336,-1.3388426999999992,2.232468266666675
5.222923000000003,-1.469694999999999,2.2835326000000085
5.222923000000004,-1.469694999999999,2.2835326000000085
5.146326333333337,-1.4409713333333325,2.2165106666666747
5.06972966666667,-1.4122476666666657,2.1494887333333415
4.993133000000003,-1.3835239999999989,2.082466800000008
5.178241200000002,-1.4792695999999992,1.9452314666666748
5.3633494000000015,-1.5750151999999993,1.8079961333333412
5.548457600000002,-1.6707607999999994,1.6707608000000078
5.548457600000002,-1.6707607999999994,1.6707608000000078
5.548457600000002,-1.6707607999999994,1.6707608000000078
6.716554066666668,-1.5750151999999993,1.6611862666666743
7.884650533333335,-1.4792695999999992,1.6516117333333409
9.052747000000004,-1.3835239999999989,1.6420372000000076
9.052747000000005,-1.3835239999999989,1.6420372000000076
12.129372333333341,-1.1090532533333322,1.673952366666674
15.205997666666676,-0.8345825066666656,1.7058675333333406
18.28262300000001,-0.5601117599999988,1.7377827000000072
17.87730000000001,-0.7164962733333322,1.9452314666666737
17.47197700000001,-0.8728807866666656,2.1526802333333404
17.06665400000001,-1.029265299999999,2.3601290000000072
17.06665400000001,-1.029265299999999,2.3601290000000072
17.06665400000001,-1.029265299999999,2.3601290000000072
14.567693666666676,-1.022882233333332,2.40800183333334
12.068733333333341,-1.0164991666666654,2.455874666666673
9.569773000000007,-1.0101160999999987,2.503747500000006
9.569773000000007,-1.0101160999999985,2.503747500000006
8.315505666666674,-1.1537345333333315,2.7718352000000057
7.06123833333334,-1.2973529666666648,3.039922900000006
5.806971000000007,-1.4409713999999978,3.308010600000006
5.806971000000007,-1.4409713999999976,3.308010600000006
5.341009100000007,-1.7377827333333304,3.215456500000006
4.875047200000005,-2.0345940666666635,3.1229024000000063
4.4090853000000045,-2.3314053999999964,3.0303483000000067
4.409085300000004,-2.3314053999999964,3.0303483000000067
4.60376786666667,-2.1814039999999966,2.9952416333333396
4.798450433333337,-2.0314025999999967,2.9601349666666734
4.993133000000003,-1.8814011999999967,2.925028300000007
4.993133000000003,-1.8814011999999967,2.925028300000007
5.178241200000002,-1.6643778333333301,2.701621866666674
5.3633494000000015,-1.4473544666666633,2.4782154333333404
5.548457600000002,-1.2303310999999966,2.2548090000000065
5.548457600000002,-1.2303310999999966,2.254809000000007
7.6772015666666675,-1.3803325333333298,2.28672423333334
9.805945533333334,-1.530333966666663,2.318639466666674
11.9346895,-1.6803353999999964,2.350554700000007
11.9346895,-1.6803353999999964,2.350554700000007
12.831506666666668,-1.6899099333333298,2.117573700000007
13.728323833333334,-1.6994844666666633,1.8845927000000071
14.625141000000001,-1.7090589999999966,1.6516117000000072
14.625141000000001,-1.7090589999999966,1.6516117000000072
15.438978666666669,-2.0856583999999967,1.5335254333333406
16.252816333333335,-2.4622577999999966,1.4154391666666737
17.066654000000003,-2.8388571999999965,1.297352900000007
17.066654000000003,-2.8388571999999965,1.297352900000007
14.883654000000005,-2.175020999999997,1.7186336000000069
12.700654000000005,-1.511184799999997,2.1399143000000067
10.517654000000006,-0.847348599999997,2.5611950000000068
10.517654000000006,-0.8473485999999969,2.5611950000000068
9.151683533333339,-1.3196935999999966,2.29949033333334
7.785713066666671,-1.7920385999999968,2.0377856666666734
6.419742600000004,-2.264383599999997,1.7760810000000067
6.419742600000004,-2.264383599999997,1.7760810000000067
5.491010266666671,-2.159063399999997,1.763314900000007
4.5622779333333385,-2.0537431999999964,1.7505488000000071
3.6335456000000064,-1.9484229999999965,1.7377827000000075
3.6335456000000064,-1.9484229999999965,1.7377827000000075
3.990995866666673,-1.9069332333333298,1.760123366666674
4.348446133333339,-1.8654434666666628,1.7824640333333406
4.7058964000000065,-1.8239536999999961,1.8048047000000071
4.705896400000007,-1.8239536999999961,1.8048047000000071
6.911236933333341,-1.689909866666663,1.8303368666666737
9.116577466666675,-1.5558660333333298,1.8558690333333405
11.321918000000005,-1.4218221999999967,1.881401200000007
11.321918000000005,-1.4218221999999967,1.881401200000007
14.05385933333334,-1.3675663666666633,2.0473602000000075
16.785800666666674,-1.31331053333333,2.2133192000000075
19.51774200000001,-1.2590546999999965,2.379278200000008
19.51774200000001,-1.2590546999999965,2.3792782000000083
18.020918666666674,-1.50480173333333,2.6441744666666747
16.52409533333334,-1.7505487666666635,2.909070733333341
15.027272000000005,-1.9962957999999968,3.1739670000000078
15.027272000000005,-1.9962957999999968,3.173967000000007
13.39640533333334,-1.8303367666666635,3.5378002333333405
11.765538666666671,-1.66437773333333,3.9016334666666737
10.134672000000005,-1.4984186999999967,4.265466700000007
10.134672000000004,-1.4984186999999967,4.265466700000007
7.45698666666667,-1.3324596666666633,3.9399316333333396
4.779301333333337,-1.1665006333333299,3.6143965666666724
2.101616000000003,-1.0005415999999965,3.288861500000005
2.101616000000003,-1.0005415999999965,3.288861500000005
2.6314083333333365,-1.469695066666663,2.995241666666672
3.16120066666667,-1.9388485333333296,2.701621833333339
3.6909930000000037,-2.408001999999996,2.4080020000000055
3.6909930000000037,-2.408001999999996,2.4080020000000055
4.19525316666667,-2.232468399999996,2.519705200000006
4.699513333333337,-2.0569347999999956,2.6314084000000064
5.203773500000003,-1.8814011999999956,2.7431116000000064
5.203773500000003,-1.8814011999999956,2.7431116000000064
5.203773500000003,-1.8814011999999956,2.7431116000000064
5.873992766666668,-1.9548061333333289,2.6282169000000066
6.544212033333334,-2.028211066666662,2.5133222000000064
7.2144313,-2.1016159999999955,2.398427500000006
8.478273533333333,-2.0633177666666622,2.229276900000006
9.742115766666668,-2.0250195333333285,2.060126300000006
11.005958000000001,-1.986721299999995,1.8909757000000063
11.005958000000001,-1.986721299999995,1.8909757000000063
12.659165333333336,-2.0760838666666617,1.460120466666673
14.312372666666668,-2.165446433333328,1.0292652333333396
15.965580000000001,-2.254808999999994,0.5984100000000062
15.965579999999997,-2.254808999999994,0.5984100000000062
15.965579999999997,-2.254808999999994,0.5984100000000062
16.578351999999995,-2.2580005333333273,0.7547945000000064
17.19112399999999,-2.261192066666661,0.9111790000000064
17.80389599999999,-2.2643835999999946,1.0675635000000063
15.454936999999992,-1.884592666666661,1.6899099000000064
13.105977999999993,-1.5048017333333277,2.3122563000000067
10.757018999999994,-1.1250107999999943,2.934602700000007
10.757018999999994,-1.125010799999994,2.9346027000000077
8.366570299999994,-1.6196964333333277,2.564386366666674
5.976121599999995,-2.114382066666661,2.1941700333333407
3.585672899999994,-2.609067699999995,1.8239537000000074
3.585672899999994,-2.609067699999995,1.8239537000000074
3.509076399999994,-2.6569404666666614,1.8048046000000075
3.4324798999999935,-2.704813233333328,1.7856555000000076
3.355883399999993,-2.752685999999995,1.7665064000000077
3.355883399999993,-2.752685999999995,1.7665064000000077
4.109082099999994,-2.3633205666666615,1.8909757000000076
4.8622807999999935,-1.9739551333333278,2.0154450000000077
5.615479499999993,-1.5845896999999944,2.1399143000000076
5.615479499999993,-1.5845896999999944,2.1399143000000076
7.067621333333327,-1.5973557999999943,2.120765133333341
8.51976316666666,-1.610121899999994,2.101615966666674
9.971904999999994,-1.6228879999999937,2.0824668000000073
9.971904999999994,-1.6228879999999937,2.0824668000000073
11.561281999999993,-1.6452286333333273,1.8462943333333406
13.150658999999992,-1.6675692666666606,1.610121866666674
14.740035999999991,-1.689909899999994,1.3739494000000072
14.740035999999991,-1.689909899999994,1.3739494000000072
14.740035999999991,-1.689909899999994,1.3739494000000072
15.799620666666657,-2.1590633999999937,1.6196964666666742
16.859205333333325,-2.6282168999999933,1.865443533333341
17.91878999999999,-3.0973703999999933,2.111190600000008
14.797483333333325,-2.714387933333326,2.4718324000000074
11.676176666666661,-2.3314054666666597,2.832474200000007
8.554869999999996,-1.9484229999999931,3.193116000000007
8.554869999999996,-1.9484229999999931,3.193116000000007
7.6548611999999965,-1.8814010666666598,3.34311743333334
6.754852399999997,-1.8143791333333263,3.4931188666666735
5.854843599999998,-1.7473571999999928,3.6431203000000068
5.854843599999998,-1.7473571999999928,3.6431203000000068
5.146326133333332,-1.661186199999993,3.5122680000000073
4.437808666666666,-1.575015199999993,3.3814157000000074
3.729291200000001,-1.488844199999993,3.250563400000008
3.729291200000001,-1.488844199999993,3.250563400000008
4.160146466666668,-1.7058675666666598,3.1101364333333414
4.591001733333334,-1.9228909333333266,2.969709466666675
5.021857,-2.1399142999999934,2.8292825000000086
5.021857,-2.139914299999993,2.8292825000000086
5.714416799999999,-1.8973587666666596,2.7111963333333424
6.406976599999999,-1.6548032333333262,2.593110166666676
7.099536399999999,-1.412247699999993,2.4750240000000088
7.099536400000001,-1.412247699999993,2.4750240000000088
9.186790766666668,-1.4313967999999928,2.050551766666675
11.274045133333336,-1.4505458999999927,1.6260795333333418
13.361299500000003,-1.4696949999999926,1.2016073000000083
13.361299500000003,-1.4696949999999926,1.2016073000000083
14.816632666666669,-1.5973558333333262,1.115436266666675
16.271965833333336,-1.7250166666666598,1.0292652333333416
17.727299000000002,-1.8526774999999933,0.9430942000000083
17.727299000000002,-1.8526774999999933,0.9430942000000083
17.015590000000003,-2.0026788999999936,1.0292652333333416
16.303881000000004,-2.1526802999999934,1.115436266666675
15.592172000000005,-2.3026816999999937,1.2016073000000083
15.592172000000005,-2.3026816999999937,1.2016073000000083
13.83364433333334,-2.1814039666666605,1.6803353333333417
12.075116666666673,-2.060126233333327,2.159063366666675
10.316589000000008,-1.9388484999999935,2.6377914000000087
10.316589000000008,-1.9388484999999935,2.6377914000000087
8.117631600000008,-2.222893799999994,2.411193466666676
5.918674200000008,-2.506939099999994,2.184595533333343
3.7197168000000076,-2.790984399999994,1.95799760000001
3.7197168000000076,-2.7909843999999944,1.95799760000001
3.9463146666666744,-2.813324999999994,1.9133163000000097
4.172912533333341,-2.835665599999994,1.8686350000000094
4.399510400000008,-2.8580061999999935,1.8239537000000092
4.399510400000008,-2.8580061999999935,1.8239537000000092
4.977175600000007,-2.414384933333327,1.878209566666676
5.554840800000007,-1.9707636666666606,1.9324654333333429
6.1325060000000065,-1.5271423999999938,1.9867213000000097
6.1325060000000065,-1.5271423999999938,1.9867213000000097
7.3995393333333395,-1.7920385999999942,1.8686350333333428
8.666572666666672,-2.0569347999999943,1.7505487666666761
9.933606000000005,-2.3218309999999946,1.6324625000000095
9.933606000000005,-2.3218309999999946,1.6324625000000095
11.379365000000005,-2.334596999999995,1.8016131000000095
12.825124000000004,-2.3473629999999956,1.9707637000000096
14.270883000000005,-2.3601289999999957,2.1399143000000094
14.270883000000005,-2.3601289999999957,2.1399143000000094
14.669823000000006,-2.2739579999999955,2.3409800666666762
15.068763000000006,-2.1877869999999953,2.5420458333333427
15.467703000000007,-2.101615999999995,2.7431116000000095
14.436841666666673,-1.8303367999999953,3.0016247333333426
13.40598033333334,-1.5590575999999956,3.260137866666676
12.375119000000005,-1.2877783999999959,3.518651000000009
12.375119000000005,-1.2877783999999959,3.518651000000009
10.224034500000007,-1.0133076566666628,3.448437533333342
8.072950000000008,-0.7388369133333293,3.378224066666675
5.921865500000007,-0.4643661699999959,3.3080106000000082
5.921865500000007,-0.4643661699999959,3.3080106000000082
5.350583433333341,-1.1058617133333293,2.905879066666675
4.779301366666675,-1.7473572566666629,2.503747533333342
4.208019300000008,-2.3888527999999964,2.101616000000009
4.208019300000008,-2.3888527999999964,2.101616000000009
4.616533866666675,-2.2899156999999963,2.206936200000009
5.025048433333342,-2.1909785999999962,2.312256400000009
5.4335630000000075,-2.0920414999999966,2.417576600000009
5.4335630000000075,-2.0920414999999966,2.417576600000009
5.676118533333342,-1.9707637333333292,2.5197052333333425
5.918674066666675,-1.8494859666666628,2.6218338666666754
6.161229600000008,-1.7282081999999963,2.7239625000000083
6.161229600000008,-1.7282081999999963,2.7239625000000083
7.070812733333341,-1.9643806666666628,2.5867271000000085
7.980395866666673,-2.20055313333333,2.4494917000000087
8.889979000000006,-2.4367255999999964,2.312256300000009
8.889979000000006,-2.4367255999999964,2.312256300000009
11.060213000000006,-2.1654463999999964,2.0314025333333423
13.230447000000007,-1.8941671999999967,1.750548766666676
15.400681000000008,-1.622887999999997,1.4696950000000093
15.400681000000008,-1.6228879999999972,1.4696950000000093
16.460265666666675,-1.9835297333333308,1.431396766666676
17.51985033333334,-2.344171466666664,1.3930985333333428
18.579435000000007,-2.704813199999998,1.3548003000000095
18.579435000000004,-2.704813199999998,1.3548003000000095
16.102815000000003,-2.3537460333333313,1.7218251000000093
13.626195000000001,-2.0026788666666646,2.0888499000000094
11.149574999999999,-1.6516116999999977,2.455874700000009
11.149574999999999,-1.6516116999999977,2.455874700000009
9.569772666666665,-1.5239508999999976,2.870772366666676
7.989970333333332,-1.3962900999999974,3.2856700333333424
6.410167999999999,-1.2686292999999973,3.700567700000009
6.410167999999999,-1.2686292999999973,3.700567700000009
5.596330433333333,-1.4633120333333307,3.317585200000009
4.782492866666668,-1.657994766666664,2.9346027000000086
3.9686553000000018,-1.852677499999997,2.5516202000000088
3.9686553000000018,-1.8526774999999969,2.5516202000000088
3.8697182000000017,-1.73778273333333,2.2580004000000087
3.770781100000002,-1.622887966666663,1.9643806000000084
3.671844000000002,-1.507993199999996,1.6707608000000083
3.671844000000002,-1.507993199999996,1.6707608000000083
4.788876000000002,-1.7441657333333296,1.664377766666675
5.905908000000001,-1.980338266666663,1.6579947333333418
7.022940000000001,-2.2165107999999965,1.6516117000000083
7.022940000000001,-2.2165107999999965,1.6516117000000083
9.308068333333336,-1.9101248333333298,1.8367198333333417
11.59319666666667,-1.603738866666663,2.021827966666675
13.878325000000002,-1.2973528999999964,2.2069361000000085
13.878324999999998,-1.2973528999999964,2.2069361000000085
15.225146666666665,-1.5558660666666633,2.497364400000008
16.57196833333333,-1.8143792333333302,2.787792700000008
17.918789999999998,-2.072892399999997,3.0782210000000076
17.918789999999994,-2.072892399999997,3.0782210000000076
15.761322333333327,-2.4941730333333303,3.4899272333333413
13.603854666666663,-2.915453666666663,3.901633466666675
11.446387,-3.3367342999999963,4.313339700000008
11.446387,-3.3367342999999963,4.313339700000008
10.188928099999998,-2.6824726666666634,4.4920648000000085
8.931469199999997,-2.02821103333333,4.670789900000009
7.674010299999996,-1.3739493999999965,4.849515000000008
7.674010299999996,-1.3739493999999965,4.849515000000008
6.639957766666664,-1.8048045999999969,4.281424400000009
5.605905233333331,-2.2356597999999965,3.713333800000008
4.571852699999998,-2.6665149999999964,3.145243200000008
4.450574899999999,-2.8005588999999964,3.0590721333333413
4.329297099999998,-2.9346027999999964,2.9729010666666746
4.2080192999999975,-3.0686466999999964,2.8867300000000085
4.2080192999999975,-3.0686466999999964,2.8867300000000085
4.539937366666664,-2.6920472999999965,2.982475666666675
4.871855433333331,-2.3154478999999966,3.0782213333333424
5.203773499999998,-1.9388484999999964,3.1739670000000095
5.203773499999998,-1.9388484999999964,3.1739670000000095
6.895279333333331,-1.89735873333333,3.209073633333342
8.586785166666663,-1.8558689666666635,3.2441802666666746
10.278290999999998,-1.814379199999997,3.2792869000000073
10.278290999999998,-1.814379199999997,3.2792869000000073
12.250650666666663,-1.619696499999997,3.2984360333333407
14.22301033333333,-1.4250137999999968,3.3175851666666745
16.195369999999997,-1.2303310999999966,3.3367343000000083
16.195369999999997,-1.2303310999999966,3.3367343000000083
16.374094666666664,-1.4090561999999967,2.9888586333333413
16.552819333333332,-1.5877812999999967,2.6409829666666744
16.731544,-1.7665063999999966,2.2931073000000075
16.731544,-1.7665063999999966,2.2931073000000075
16.080474,-1.7537403333333301,2.175021033333341
15.429404,-1.7409742666666634,2.056934766666675
14.778334000000001,-1.7282081999999968,1.9388485000000089
14.778334000000001,-1.7282081999999968,1.9388485000000089
12.604909000000001,-1.7920385666666634,2.069700800000009
10.431484000000003,-1.85586893333333,2.200553100000009
8.258059000000003,-1.9196992999999969,2.3314054000000093
8.258059000000005,-1.919699299999997,2.3314054000000097
7.549541333333337,-1.9579975333333308,2.2356598333333433
6.841023666666671,-1.9962957666666643,2.139914266666677
6.132506000000004,-2.034593999999998,2.0441687000000104
6.132506000000004,-2.034593999999998,2.0441687000000104
6.5761273333333365,-1.9803381666666648,1.9994874000000102
7.019748666666669,-1.9260823333333317,1.9548061000000103
7.463370000000002,-1.8718264999999985,1.9101248000000102
7.463370000000002,-1.8718264999999985,1.9101248000000102
8.114440000000004,-1.782463966666665,2.0058704333333437
8.765510000000004,-1.6931014333333316,2.101616066666677
9.416580000000005,-1.6037388999999982,2.1973617000000103
9.416580000000005,-1.6037388999999982,2.1973617000000103
10.262332666666671,-1.530333933333332,2.2197023333333434
11.10808533333334,-1.4569289666666652,2.242042966666677
11.953838000000005,-1.3835239999999984,2.2643836000000106
11.953838000000005,-1.3835239999999984,2.2643836000000106
12.170861666666672,-1.2782038333333319,2.1814040666666767
12.387885333333339,-1.172883666666665,2.0984245333333433
12.604909000000006,-1.0675634999999983,2.01544500000001
12.604909000000006,-1.0675634999999983,2.01544500000001
11.813412000000007,-0.9016044499999983,1.897358733333343
11.021915000000007,-0.7356453999999983,1.7792724666666764
10.230418000000007,-0.5696863499999983,1.6611862000000095
10.230418000000007,-0.5696863499999982,1.6611862000000095
10.163396000000006,-0.3335138599999982,1.680335366666676
10.096374000000006,-0.0973413699999982,1.6994845333333426
10.029352000000008,0.13883112000000178,1.718633700000009
10.029352000000008,0.13883112000000178,1.718633700000009
8.755935533333341,-0.25053435333333157,1.6356541333333423
7.482519066666675,-0.6398998266666649,1.5526745666666757
6.209102600000008,-1.029265299999998,1.4696950000000089
6.209102600000006,-1.0292652999999983,1.4696950000000089
6.4803817333333384,-1.2271395333333317,1.6899098666666756
6.751660866666671,-1.425013766666665,1.9101247333333424
7.022940000000003,-1.6228879999999979,2.1303396000000094
7.022940000000003,-1.6228879999999979,2.1303396000000094
7.198473666666669,-1.7250166666666644,2.334596933333343
7.374007333333336,-1.8271453333333312,2.538854266666676
7.549541000000002,-1.9292739999999977,2.7431116000000095
7.549541000000002,-1.9292739999999977,2.7431116000000095
8.072950333333337,-2.149488866666665,2.838857166666676
8.59635966666667,-2.3697037333333317,2.9346027333333424
9.119769000000003,-2.589918599999999,3.030348300000009
9.119769000000003,-2.589918599999999,3.030348300000009
9.991053833333337,-2.503747533333332,3.317585133333342
10.862338666666671,-2.417576466666665,3.6048219666666754
11.733623500000006,-2.3314053999999977,3.8920588000000094
11.733623500000006,-2.3314053999999977,3.8920588000000094
12.15171266666667,-2.1494887666666647,3.9335485333333424
12.569801833333337,-1.9675721333333318,3.975038266666676
12.987891000000003,-1.7856554999999983,4.016528000000009
12.987891000000003,-1.7856554999999983,4.016528000000009
12.20596866666667,-1.6260794666666651,3.872909633333343
11.424046333333338,-1.466503433333332,3.7292912666666767
10.642124000000008,-1.3069273999999986,3.5856729000000107
10.642124000000008,-1.3069273999999986,3.5856729000000107
10.824040666666674,-1.3260765666666652,3.272903933333344
11.00595733333334,-1.345225733333332,2.960134966666677
11.187874000000006,-1.3643748999999987,2.64736600000001
11.187874000000006,-1.364374899999999,2.64736600000001
10.651698666666674,-1.188841279999999,2.4207680666666764
10.115523333333341,-1.013307659999999,2.1941701333333428
9.579348000000008,-0.8377740399999989,1.9675722000000093
9.579348000000008,-0.8377740399999988,1.9675722000000093
9.001682666666676,-0.9271366266666655,1.8941672000000092
8.424017333333342,-1.0164992133333322,1.820762200000009
7.846352000000009,-1.1058617999999987,1.7473572000000088
7.846352000000009,-1.105861799999999,1.7473572000000088
7.983587666666676,-0.9494772866666655,1.7026759333333423
8.120823333333343,-0.7930927733333323,1.6579946666666758
8.258059000000008,-0.636708259999999,1.6133134000000091
8.258059000000008,-0.6367082599999991,1.6133134000000091
8.258059000000008,-0.6367082599999991,1.6133134000000091
8.318697666666676,-0.5952185066666658,1.5973558333333424
8.379336333333343,-0.5537287533333324,1.5813982666666757
8.43997500000001,-0.512238999999999,1.565440700000009
8.650615333333343,-0.872880799999999,1.4250138000000092
8.861255666666676,-1.233522599999999,1.2845869000000094
9.071896000000008,-1.5941643999999988,1.1441600000000094
9.071896000000008,-1.5941643999999986,1.1441600000000094
9.531475000000007,-1.5622491666666651,1.3420342333333428
9.991054000000007,-1.530333933333332,1.5399084666666758
10.450633000000009,-1.4984186999999984,1.737782700000009
10.450633000000009,-1.4984186999999984,1.7377827000000086
11.561281666666678,-1.4250137333333317,1.8335283333333419
12.671930333333345,-1.351608766666665,1.9292739666666752
13.782579000000013,-1.2782037999999982,2.0250196000000087
13.782579000000013,-1.2782037999999982,2.0250196000000087
12.793208000000012,-1.4218221999999983,1.9356570333333416
11.80383700000001,-1.565440599999998,1.8462944666666747
10.81446600000001,-1.709058999999998,1.7569319000000079
10.81446600000001,-1.709058999999998,1.7569319000000079
10.33573800000001,-1.788846999999998,1.9037418333333413
9.857010000000011,-1.8686349999999983,2.050551766666675
9.378282000000011,-1.9484229999999982,2.1973617000000085
9.378282000000013,-1.9484229999999982,2.1973617000000085
8.510188533333347,-1.677143799999998,2.3026818000000087
7.64209506666668,-1.4058645999999981,2.408001900000009
6.7740016000000125,-1.134585399999998,2.513322000000009
6.7740016000000125,-1.134585399999998,2.513322000000009
6.732511833333345,-1.4090561333333316,2.5260880666666754
6.691022066666679,-1.6835268666666652,2.538854133333342
6.649532300000011,-1.9579975999999988,2.5516202000000088
6.649532300000011,-1.9579975999999988,2.5516202000000088
6.1101654333333455,-1.9324654666666652,2.583535466666675
5.570798566666679,-1.9069333333333318,2.6154507333333417
5.031431700000013,-1.8814011999999982,2.6473660000000083
5.031431700000013,-1.8814011999999982,2.6473660000000083
5.0569638000000126,-1.8622520333333314,2.6154507333333417
5.082495900000012,-1.8431028666666647,2.583535466666675
5.108028000000012,-1.823953699999998,2.5516202000000088
5.108028000000012,-1.823953699999998,2.5516202000000088
5.108028000000012,-1.823953699999998,2.5516202000000088
5.108028000000012,-1.823953699999998,2.5516202000000088
5.108028000000012,-1.823953699999998,2.5516202000000088
6.968684333333344,-1.8782095666666647,2.669706466666675
8.829340666666678,-1.9324654333333315,2.787792733333342
10.689997000000012,-1.9867212999999984,2.905879000000009
10.689997000000012,-1.9867212999999984,2.905879000000009
12.052776000000014,-2.050551666666665,2.7782182666666753
13.415555000000014,-2.114382033333332,2.6505575333333415
14.778334000000015,-2.1782123999999987,2.5228968000000083
14.778334000000015,-2.178212399999999,2.5228968000000083
15.901749000000015,-2.2356598333333326,2.4239596000000083
17.025164000000014,-2.293107266666666,2.3250224000000084
18.148579000000012,-2.3505546999999996,2.2260852000000084
18.148579000000012,-2.3505546999999996,2.2260852000000084
15.971962333333346,-1.8526775199999992,2.0984244333333417
13.795345666666682,-1.3548003399999988,1.9707636666666748
11.618729000000016,-0.8569231599999987,1.843102900000008
11.618729000000016,-0.8569231599999987,1.843102900000008
9.662327200000016,-1.0643719733333319,1.8016131666666748
7.705925400000017,-1.2718207866666653,1.7601234333333415
5.749523600000018,-1.4792695999999987,1.718633700000008
5.749523600000018,-1.4792695999999987,1.718633700000008
5.369732733333351,-1.5399084666666656,1.7952301333333416
4.989941866666684,-1.6005473333333322,1.871826566666675
4.610151000000017,-1.6611861999999988,1.9484230000000082
4.610151000000017,-1.6611861999999988,1.9484230000000082
4.7665353333333496,-1.450545899999999,1.9260824000000083
4.922919666666682,-1.2399055999999986,1.9037418000000084
5.079304000000016,-1.0292652999999985,1.8814012000000082
5.079304000000015,-1.0292652999999983,1.8814012000000082
6.055909333333347,-1.3484172999999984,1.6005474000000082
7.032514666666681,-1.6675692999999985,1.3196936000000081
8.009120000000014,-1.9867212999999986,1.038839800000008
9.276153666666682,-2.1431057666666655,1.0962871666666747
10.543187333333348,-2.2994902333333322,1.1537345333333413
11.810221000000018,-2.4558746999999985,1.211181900000008
11.810221000000018,-2.4558746999999985,1.211181900000008
11.810221000000018,-2.4558746999999985,1.211181900000008
12.946402000000019,-2.0154449333333315,1.5271423666666746
14.08258300000002,-1.575015166666665,1.8431028333333412
15.21876400000002,-1.1345853999999982,2.159063300000008
15.56983100000002,-1.4505458666666649,2.609067666666675
15.92089800000002,-1.766506333333332,3.0590720333333414
16.27196500000002,-2.0824667999999984,3.509076400000008
16.271965000000023,-2.0824667999999984,3.509076400000008
13.86875066666669,-1.5622490666666646,3.5920559333333415
11.465536333333356,-1.042031333333331,3.675035466666675
9.062322000000025,-0.5218135999999979,3.7580150000000088
9.062322000000023,-0.5218135999999979,3.7580150000000088
7.836778000000021,-0.5345796533333312,3.512268000000008
6.611234000000022,-0.5473457066666646,3.266521000000008
5.3856900000000225,-0.560111759999998,3.020774000000008
5.3856900000000225,-0.5601117599999981,3.020774000000008
4.9324941666666895,-0.8345825066666648,2.723962533333341
4.4792983333333565,-1.1090532533333315,2.427151066666674
4.026102500000023,-1.3835239999999984,2.130339600000007
4.026102500000023,-1.3835239999999984,2.130339600000007
4.418659500000023,-1.5877812666666653,2.0888498333333407
4.811216500000023,-1.7920385333333322,2.0473600666666742
5.203773500000023,-1.9962957999999993,2.0058703000000078
5.203773500000023,-1.9962957999999993,2.005870300000008
5.2963276666666905,-1.8494858999999995,2.1175735333333416
5.388881833333357,-1.7026759999999996,2.229276766666675
5.481436000000023,-1.5558661,2.3409800000000085
5.481436000000021,-1.5558661,2.3409800000000085
7.59103100000002,-1.15373455,2.3409800000000085
9.70062600000002,-0.7516029999999999,2.3409800000000085
11.810221000000018,-0.34947145,2.3409800000000085
11.810221000000018,-0.34947145,2.3409800000000085
14.388969000000017,-0.7292623666666666,2.021828000000008
16.967717000000018,-1.109053283333333,1.702676000000008
19.546465000000016,-1.4888441999999997,1.3835240000000077
19.546465000000016,-1.4888441999999997,1.3835240000000077
18.257091000000017,-1.7186335999999995,1.3005444666666743
16.967717000000018,-1.9484229999999998,1.2175649333333411
15.678343000000018,-2.1782124,1.134585400000008
15.678343000000018,-2.1782124,1.134585400000008
13.664493666666685,-2.0058703333333336,1.4122476666666748
11.650644333333352,-1.8335282666666668,1.6899099333333416
9.636795000000019,-1.6611862000000002,1.9675722000000084
9.636795000000019,-1.6611862000000002,1.9675722000000084
7.361241166666685,-1.7633148666666667,1.6931014666666753
5.085687333333351,-1.8654435333333332,1.4186307333333419
2.8101335000000183,-1.9675722,1.1441600000000085
2.8101335000000183,-1.9675722,1.1441600000000085
3.1931159000000178,-2.2835327,1.1696921333333419
3.5760983000000173,-2.5994932,1.195224266666675
3.9590807000000168,-2.9154537,1.2207564000000082
3.9590807000000168,-2.9154537,1.2207564000000084
4.769726800000017,-2.7558776666666667,1.4409713333333418
5.580372900000017,-2.596301633333333,1.6611862666666752
6.391019000000017,-2.436725599999999,1.8814012000000087
6.391019000000017,-2.4367255999999986,1.8814012000000087
7.603796666666683,-2.2324682999999985,2.0537433000000087
8.81657433333335,-2.0282109999999984,2.2260854000000085
10.029352000000017,-1.8239536999999986,2.3984275000000084
10.029352000000019,-1.8239536999999986,2.398427500000008
11.688942333333353,-1.7952300333333318,2.4590663333333413
13.348532666666685,-1.766506366666665,2.5197051666666748
15.008123000000017,-1.7377826999999983,2.5803440000000077
15.008123000000017,-1.737782699999998,2.5803440000000077
15.429403666666682,-2.0377855999999976,2.5260882000000078
15.850684333333348,-2.337788499999997,2.471832400000008
16.271965000000012,-2.637791399999997,2.417576600000008
16.271965000000012,-2.637791399999997,2.417576600000008
16.271965000000012,-2.637791399999997,2.417576600000008
14.77514233333335,-2.076083866666664,2.9058791333333414
13.278319666666684,-1.5143763333333304,3.394181666666675
11.781497000000021,-0.9526687999999971,3.882484200000008
10.105948766666687,-0.748411499999997,3.805887700000008
8.430400533333355,-0.5441541999999969,3.7292912000000076
6.754852300000022,-0.339896899999997,3.652694700000007
6.754852300000022,-0.339896899999997,3.652694700000007
5.976121433333355,-0.639899799999997,3.250563233333341
5.197390566666688,-0.9399026999999971,2.8484317666666743
4.418659700000021,-1.239905599999997,2.4463003000000074
4.418659700000021,-1.2399055999999968,2.446300300000007
4.603767866666689,-1.5143763333333302,2.31225643333334
4.788876033333356,-1.7888470666666636,2.1782125666666734
4.9739842000000225,-2.063317799999997,2.0441687000000064
4.9739842000000225,-2.0633177999999965,2.044168700000006
5.178241466666688,-1.9899128333333298,2.076083900000006
5.382498733333354,-1.916507866666663,2.1079991000000065
5.58675600000002,-1.8431028999999963,2.1399143000000067
5.58675600000002,-1.8431028999999963,2.139914300000007
6.608042666666687,-1.839911366666663,2.1207651333333404
7.629329333333356,-1.8367198333333299,2.1016159666666736
8.650616000000024,-1.8335282999999967,2.082466800000007
8.650616000000026,-1.8335282999999967,2.0824668000000064
11.274045666666693,-1.77608093333333,2.11757353333334
13.89747533333336,-1.7186335666666634,2.152680266666673
16.520905000000024,-1.6611861999999968,2.187787000000006
17.12729333333336,-1.7313996333333301,1.9611890666666725
17.733681666666694,-1.8016130666666632,1.734591133333339
18.340070000000026,-1.8718264999999965,1.5079932000000056
18.340070000000026,-1.8718264999999965,1.5079932000000056
18.340070000000026,-1.8718264999999965,1.5079932000000056
16.996440000000025,-1.6548031333333297,1.5813982000000057
15.652810000000025,-1.4377797666666632,1.654803200000006
14.309180000000026,-1.2207563999999964,1.728208200000006
11.388939200000026,-0.9590517666666633,2.053743200000006
8.468698400000028,-0.6973471333333302,2.379278200000006
5.548457600000027,-0.43564249999999705,2.704813200000006
5.548457600000027,-0.43564249999999705,2.704813200000006
5.548457600000027,-0.43564249999999705,2.704813200000006
4.520788166666694,-0.8696892333333303,2.3282138666666725
3.493118733333361,-1.3037359666666635,1.9516145333333388
2.465449300000028,-1.7377826999999968,1.5750152000000055
2.465449300000028,-1.7377826999999968,1.5750152000000055
2.873963866666695,-1.6803353666666634,1.507993266666672
3.282478433333362,-1.6228880333333298,1.4409713333333387
3.690993000000029,-1.5654406999999964,1.3739494000000052
4.756960833333362,-1.9037417999999964,1.2973529333333387
5.822928666666695,-2.2420428999999964,1.2207564666666721
6.88889650000003,-2.5803439999999966,1.1441600000000056
6.88889650000003,-2.5803439999999966,1.1441600000000056
8.656998666666695,-2.5324711999999963,1.437779866666672
10.42510083333336,-2.484598399999996,1.7313997333333384
12.193203000000025,-2.4367255999999955,2.0250196000000047
12.193203000000025,-2.436725599999995,2.0250196000000042
14.13683866666669,-2.3345969333333287,2.175021066666671
16.080474333333356,-2.232468266666662,2.3250225333333376
18.02411000000002,-2.1303395999999952,2.4750240000000048
18.024110000000018,-2.1303395999999952,2.475024000000005
16.938993333333354,-2.2452343999999953,2.9409859333333386
15.853876666666691,-2.3601291999999954,3.406947866666672
14.768760000000023,-2.4750239999999954,3.8729098000000057
14.768760000000023,-2.4750239999999954,3.8729098000000057
12.713420666666691,-1.9899128666666621,3.8058878666666724
10.658081333333357,-1.5048017333333286,3.7388659333333387
8.602742000000022,-1.019690599999995,3.6718440000000054
8.602742000000022,-1.019690599999995,3.6718440000000054
7.367623833333357,-0.7484114133333284,3.3686495666666723
6.132505666666691,-0.4771322266666618,3.065455133333339
4.897387500000025,-0.20585303999999516,2.762260700000006
4.897387500000025,-0.20585303999999516,2.762260700000006
4.568661000000024,-0.7803266933333285,2.3186394000000057
4.239934500000023,-1.3548003466666616,1.8750181000000055
3.911208000000022,-1.929273999999995,1.4313968000000052
4.268658233333356,-1.970763699999995,1.4569289333333384
4.626108466666689,-2.012253399999995,1.4824610666666718
4.983558700000023,-2.0537430999999953,1.507993200000005
4.983558700000024,-2.0537430999999953,1.507993200000005
5.9793129333333574,-1.740974166666662,1.6643777000000053
6.975067166666691,-1.4282052333333286,1.8207622000000054
7.970821400000026,-1.1154362999999952,1.9771467000000058
7.970821400000026,-1.1154362999999952,1.9771467000000058
9.83466926666669,-1.3324596666666617,1.788847033333339
11.698517133333356,-1.5494830333333285,1.600547366666672
13.562365000000023,-1.7665063999999953,1.4122477000000053
13.562365000000023,-1.7665063999999953,1.4122477000000053
14.440033333333355,-1.8239537666666619,1.1984158433333387
15.317701666666688,-1.8814011333333285,0.984583986666672
16.195370000000022,-1.938848499999995,0.7707521300000053
16.195370000000022,-1.938848499999995,0.7707521300000053
16.390052333333358,-2.0665093333333284,0.8984129533333386
16.58473466666669,-2.194170166666662,1.0260737766666719
16.779417000000024,-2.3218309999999955,1.1537346000000053
16.77941700000002,-2.321830999999996,1.1537346000000053
13.919815000000021,-1.721825199999996,1.5877813000000056
11.06021300000002,-1.121819399999996,2.021828000000006
8.200611000000022,-0.5218135999999961,2.455874700000006
8.200611000000022,-0.5218135999999961,2.455874700000006
6.869747100000022,-0.7133047666666629,2.232468300000006
5.538883200000022,-0.9047959333333294,2.009061900000006
4.208019300000022,-1.096287099999996,1.785655500000006
4.2080193000000214,-1.0962870999999959,1.785655500000006
3.908016400000021,-1.4122476333333296,1.6548032000000061
3.608013500000021,-1.728208166666663,1.5239509000000062
3.3080106000000207,-2.0441686999999966,1.3930986000000063
3.3080106000000207,-2.0441686999999966,1.3930986000000063
4.498447600000021,-2.1175736666666634,1.3867155333333396
5.688884600000022,-2.19097863333333,1.3803324666666728
6.879321600000022,-2.264383599999997,1.373949400000006
6.879321600000022,-2.264383599999997,1.373949400000006
9.502751066666688,-2.1016160666666632,1.6005473000000061
12.126180533333356,-1.9388485333333296,1.8271452000000064
14.749610000000024,-1.776080999999996,2.0537431000000064
14.411309000000022,-1.4920356899999963,2.0728922666666736
14.073008000000021,-1.2079903799999963,2.0920414333333404
13.73470700000002,-0.9239450699999963,2.111190600000007
13.73470700000002,-0.9239450699999961,2.111190600000007
13.73470700000002,-0.9239450699999961,2.111190600000007
14.644290333333354,-1.5973558466666626,2.1973616666666733
15.55387366666669,-2.2707666233333295,2.28353273333334
16.463457000000023,-2.9441773999999956,2.3697038000000066
13.476194000000026,-2.4080019999999953,2.436725700000006
10.488931000000026,-1.8718265999999952,2.5037476000000063
7.501668000000024,-1.3356511999999954,2.5707695000000066
7.501668000000024,-1.3356511999999954,2.570769500000007
6.920811333333359,-1.3579918333333287,2.6186423333333404
6.339954666666693,-1.380332466666662,2.666515166666674
5.759098000000027,-1.4026730999999957,2.714388000000008
5.759098000000027,-1.402673099999996,2.714388000000008
5.759098000000027,-1.402673099999996,2.714388000000008
5.04419753333336,-1.4569289666666627,2.5388543333333415
4.329297066666693,-1.5111848333333295,2.363320666666675
3.6143966000000254,-1.5654406999999964,2.1877870000000086
4.105890733333358,-1.7856555333333297,2.1335312000000086
4.597384866666691,-2.005870366666663,2.0792754000000087
5.088879000000024,-2.2260851999999964,2.0250196000000087
5.088879000000024,-2.2260851999999964,2.0250196000000087
6.365487000000026,-2.012253366666663,2.021828066666675
7.642095000000026,-1.79842153333333,2.0186365333333414
8.918703000000027,-1.5845896999999969,2.015445000000008
8.918703000000027,-1.5845896999999969,2.015445000000008
11.33787533333336,-1.565440599999997,1.871826566666675
13.757047666666693,-1.546291499999997,1.728208133333342
16.176220000000026,-1.5271423999999971,1.5845897000000086
16.17622000000003,-1.5271423999999971,1.5845897000000086
16.6102666666667,-1.8271452666666639,1.3803324333333418
17.044313333333367,-2.1271481333333306,1.1760751666666749
17.478360000000038,-2.427150999999997,0.9718179000000083
17.47836000000004,-2.4271509999999967,0.9718179000000083
16.364519666666705,-2.0856583666666633,1.1026702333333416
15.250679333333373,-1.7441657333333296,1.233522566666675
14.13683900000004,-1.402673099999996,1.3643749000000085
14.13683900000004,-1.402673099999996,1.3643749000000085
12.027244000000039,-1.357991833333329,1.6005474000000088
9.917649000000038,-1.3133105666666622,1.8367199000000092
7.808054000000037,-1.2686292999999957,2.0728924000000095
7.808054000000037,-1.268629299999996,2.0728924000000095
6.375061466666704,-1.6643777666666628,1.8431029333333424
4.942068933333371,-2.0601262333333294,1.6133134666666755
3.509076400000039,-2.4558746999999963,1.3835240000000084
3.509076400000039,-2.455874699999996,1.3835240000000084
3.6846100666667065,-2.548428799999996,1.4824611333333415
3.860143733333373,-2.6409828999999956,1.5813982666666746
4.035677400000039,-2.733536999999995,1.6803354000000077
4.035677400000039,-2.733536999999995,1.6803354000000077
4.9197284000000385,-2.459066266666662,1.734591233333341
5.803779400000038,-2.184595533333329,1.7888470666666745
6.6878304000000375,-1.9101247999999955,1.8431029000000079
6.6878304000000375,-1.9101247999999955,1.8431029000000079
8.717637266666703,-2.0218280333333287,1.8175707333333413
10.747444133333367,-2.133531266666662,1.7920385666666745
12.777251000000033,-2.2452344999999956,1.766506400000008
13.051721666666701,-1.957997666666662,1.801613100000008
13.326192333333369,-1.6707608333333284,1.836719800000008
13.600663000000038,-1.3835239999999949,1.871826500000008
13.60066300000004,-1.3835239999999949,1.871826500000008
13.60066300000004,-1.3835239999999949,1.871826500000008
14.666631000000043,-1.999487333333328,2.1431057333333414
15.732599000000045,-2.615450666666661,2.414384966666675
16.798567000000048,-3.2314139999999942,2.6856642000000086
13.974071333333379,-2.532471133333328,2.7909843333333417
11.149575666666712,-1.8335282666666612,2.8963044666666753
8.325080000000044,-1.1345853999999944,3.0016246000000084
8.325080000000042,-1.1345853999999944,3.0016246000000084
8.325080000000042,-1.1345853999999944,3.0016246000000084
8.29635666666671,-1.1154362999999945,3.1388600000000086
8.267633333333379,-1.0962871999999946,3.2760954000000093
8.238910000000047,-1.0771380999999947,3.4133308000000095
8.238910000000049,-1.0771380999999947,3.4133308000000095
7.278262166666715,-0.9941585666666614,3.2760954000000093
6.317614333333382,-0.9111790333333282,3.1388600000000086
5.356966500000049,-0.8281994999999949,3.0016246000000084
5.519734000000049,-0.8186249333333282,2.9186450666666754
5.6825015000000505,-0.8090503666666615,2.8356655333333425
5.845269000000052,-0.7994757999999949,2.7526860000000095
5.845269000000052,-0.7994757999999949,2.7526860000000095
5.845269000000052,-0.7994757999999949,2.7526860000000095
6.177187133333386,-0.7930927533333282,2.8037503333333427
6.50910526666672,-0.7867097066666614,2.8548146666666763
6.841023400000054,-0.7803266599999947,2.9058790000000094
6.841023400000054,-0.7803266599999947,2.9058790000000094
7.300602266666721,-0.8952213733333281,2.688855666666676
7.760181133333387,-1.0101160866666614,2.4718323333333423
8.219760000000054,-1.1250107999999948,2.2548090000000087
8.219760000000052,-1.1250107999999948,2.2548090000000087
10.208077000000053,-1.2175648999999946,2.1207651666666756
12.196394000000053,-1.3101189999999943,1.9867213333333424
14.184711000000052,-1.4026730999999941,1.8526775000000093
14.184711000000052,-1.4026730999999941,1.8526775000000093
15.595363333333387,-1.6611861999999942,1.6228880333333429
17.00601566666672,-1.9196992999999942,1.3930985666666764
18.41666800000005,-2.1782123999999943,1.1633091000000098
17.548574166666715,-2.2739580333333276,1.4537374000000096
16.68048033333338,-2.369703666666661,1.7441657000000097
15.81238650000005,-2.465449299999994,2.0345940000000096
15.81238650000005,-2.465449299999994,2.034594000000009
15.81238650000005,-2.465449299999994,2.034594000000009
13.303851666666716,-1.9133163333333278,2.481406900000009
10.795316833333382,-1.3611833666666613,2.9282198000000093
8.28678200000005,-0.8090503999999948,3.375032700000009
8.28678200000005,-0.8090503999999948,3.375032700000009
6.9686841666667165,-0.6558574166666614,3.1101364666666758
5.650586333333384,-0.5026644333333281,2.8452402333333424
4.332488500000051,-0.34947144999999474,2.580344000000009
4.33248850000005,-0.34947144999999474,2.580344000000009
4.948452000000049,-0.9047959666666614,2.3154478333333426
5.564415500000049,-1.460120483333328,2.050551666666676
6.180379000000048,-2.015444999999995,1.7856555000000094
6.180379000000047,-2.015444999999995,1.7856555000000094
7.779330666666714,-1.9037417999999946,1.8686350000000091
9.37828233333338,-1.7920385999999944,1.951614500000009
10.977234000000044,-1.6803353999999942,2.0345940000000087
11.430430000000044,-1.5813982666666606,1.938848400000009
11.883626000000044,-1.4824611333333275,1.8431028000000087
12.336822000000046,-1.3835239999999944,1.7473572000000086
12.336822000000046,-1.3835239999999949,1.7473572000000086
12.336822000000046,-1.3835239999999949,1.7473572000000086
12.32724733333338,-1.3930985666666615,1.6994844333333419
12.317672666666715,-1.4026731333333284,1.6516116666666754
12.308098000000049,-1.4122476999999953,1.6037389000000086
12.308098000000049,-1.4122476999999953,1.6037389000000086
11.644261666666715,-1.010116146666662,1.6484201666666756
10.98042533333338,-0.6079845933333287,1.6931014333333423
10.316589000000048,-0.2058530399999953,1.7377827000000092
10.316589000000048,-0.2058530399999953,1.7377827000000092
10.415526000000048,0.007978806666671353,1.7154420666666759
10.514463000000047,0.22181065333333802,1.6931014333333423
10.613400000000047,0.43564250000000465,1.670760800000009
9.633603433333379,0.2984071340000047,1.638845600000009
8.653806866666713,0.16117176800000468,1.606930400000009
7.674010300000046,0.02393640200000467,1.575015200000009
7.674010300000046,0.02393640200000467,1.575015200000009
7.131451766666713,-0.17712936533332868,1.6452286333333423
6.58889323333338,-0.378195132666662,1.7154420666666754
6.046334700000046,-0.5792608999999954,1.7856555000000087
6.046334700000046,-0.5792608999999954,1.7856555000000087
6.732511466666714,-0.9111789999999954,2.069700800000009
7.418688233333381,-1.2430970999999953,2.353746100000009
8.104865000000048,-1.575015199999995,2.637791400000009
8.104865000000048,-1.575015199999995,2.6377914000000096
8.267632666666715,-1.6803353666666618,2.9537519000000096
8.430400333333383,-1.7856555333333286,3.26971240000001
8.59316800000005,-1.8909756999999952,3.5856729000000107
8.59316800000005,-1.8909756999999952,3.5856729000000107
8.59316800000005,-1.8909756999999952,3.5856729000000107
9.09742800000005,-1.8431028666666618,3.6239711666666774
9.60168800000005,-1.7952300333333282,3.662269433333344
10.10594800000005,-1.7473571999999946,3.700567700000011
11.08574500000005,-1.8909755999999949,3.483544333333344
12.06554200000005,-2.034593999999995,3.2665209666666772
13.04533900000005,-2.1782123999999947,3.0494976000000107
13.04533900000005,-2.1782123999999947,3.0494976000000107
12.729378333333385,-2.152680266666662,3.014390866666677
12.413417666666717,-2.1271481333333284,2.9792841333333437
12.09745700000005,-2.101615999999995,2.94417740000001
12.09745700000005,-2.101615999999995,2.9441774000000094
12.09745700000005,-2.101615999999995,2.9441774000000094
11.510217333333385,-1.9611891333333284,2.8771554666666765
10.922977666666718,-1.8207622666666616,2.8101335333333437
10.33573800000005,-1.680335399999995,2.743111600000011
10.354887333333386,-1.3899070666666618,2.6122593000000105
10.374036666666719,-1.0994787333333287,2.48140700000001
10.393186000000052,-0.8090503999999955,2.35055470000001
10.393186000000052,-0.8090503999999955,2.35055470000001
10.393186000000052,-0.8090503999999955,2.35055470000001
9.576156566666718,-0.9367111999999956,2.082466966666677
8.759127133333385,-1.0643719999999959,1.8143792333333437
7.94209770000005,-1.192032799999996,1.5462915000000106
7.94209770000005,-1.192032799999996,1.5462915000000106
8.203802466666717,-1.1952242999999958,1.504801733333344
8.465507233333385,-1.1984157999999956,1.4633119666666776
8.727212000000053,-1.2016072999999954,1.4218222000000111
8.727212000000053,-1.2016072999999954,1.4218222000000111
8.656998333333386,-1.1665005666666621,1.463311966666678
8.586784666666718,-1.1313938333333289,1.5048017333333445
8.51657100000005,-1.0962870999999959,1.546291500000011
8.471889666666717,-1.294161366666662,1.7090590000000105
8.427208333333382,-1.4920356333333284,1.8718265000000105
8.382527000000048,-1.6899098999999953,2.0345940000000104
8.382527000000048,-1.6899098999999953,2.0345940000000104
8.96019233333338,-1.4218221999999952,2.1048075000000104
9.537857666666714,-1.1537344999999954,2.1750210000000103
10.115523000000048,-0.8856467999999956,2.2452345000000107
10.115523000000048,-0.8856467999999956,2.2452345000000107
10.59105933333338,-0.9845839333333289,2.025019566666677
11.066595666666714,-1.0835210666666624,1.8048046333333438
11.542132000000047,-1.1824581999999957,1.5845897000000104
11.542132000000047,-1.1824581999999957,1.5845897000000104
11.724049000000045,-1.4282052333333288,1.4313967333333437
11.905966000000044,-1.6739522666666622,1.278203766666677
12.087883000000042,-1.9196992999999958,1.1250108000000103
12.087883000000042,-1.919699299999996,1.12501080000001
12.087883000000042,-1.919699299999996,1.12501080000001
11.688943000000044,-1.9388484333333296,1.3962900333333434
11.290003000000047,-1.9579975666666634,1.6675692666666766
10.891063000000047,-1.977146699999997,1.9388485000000097
10.396377000000045,-1.7250165999999965,1.9803382666666767
9.901691000000044,-1.472886499999996,2.0218280333333434
9.407005000000042,-1.2207563999999957,2.0633178000000103
9.407005000000042,-1.2207563999999957,2.0633178000000107
8.251675000000043,-1.217564899999996,2.044168633333344
7.096345000000045,-1.2143733999999962,2.025019466666677
5.9410150000000455,-1.2111818999999964,2.0058703000000104
5.9410150000000455,-1.2111818999999964,2.0058703000000104
5.826120200000045,-1.2590546999999965,2.0728922333333437
5.711225400000046,-1.3069274999999967,2.1399141666666774
5.596330600000047,-1.3548002999999966,2.2069361000000107
5.596330600000047,-1.3548002999999966,2.2069361000000107
5.229305733333381,-1.4824610999999968,2.187787066666677
4.862280866666714,-1.6101218999999967,2.1686380333333433
4.4952560000000465,-1.7377826999999966,2.1494890000000098
4.4952560000000465,-1.7377826999999961,2.1494890000000093
4.4952560000000465,-1.7377826999999961,2.1494890000000093
4.910153666666712,-1.830336799999996,2.190978733333343
5.325051333333378,-1.9228908999999959,2.2324684666666763
5.739949000000045,-2.0154449999999957,2.2739582000000094
6.920811500000045,-1.9005502666666623,2.3760868000000097
8.101674000000047,-1.785655533333329,2.47821540000001
9.282536500000047,-1.6707607999999958,2.5803440000000104
9.282536500000049,-1.6707607999999958,2.580344000000011
10.96765900000005,-1.6611862666666626,2.4143849333333445
12.652781500000051,-1.6516117333333291,2.2484258666666777
14.337904000000051,-1.6420371999999956,2.0824668000000113
14.337904000000051,-1.6420371999999956,2.0824668000000113
15.078336666666717,-1.9931043999999956,1.7473572333333447
15.818769333333384,-2.3441715999999952,1.4122476666666781
16.55920200000005,-2.695238799999995,1.0771381000000113
16.559202000000045,-2.695238799999995,1.0771381000000115
16.20494333333338,-2.3888528666666615,1.3579918333333447
15.850684666666714,-2.0824669333333277,1.6388455666666781
15.496426000000048,-1.7760809999999942,1.9196993000000118
15.496426000000048,-1.7760809999999942,1.919699300000012
15.496426000000048,-1.7760809999999942,1.919699300000012
13.102786000000046,-1.4441628866666611,2.1111905333333456
10.709146000000047,-1.1122447733333278,2.302681766666679
8.315506000000047,-0.7803266599999943,2.4941730000000124
6.815491466666714,-1.2079903733333275,2.060126266666679
5.315476933333382,-1.635654086666661,1.6260795333333455
3.8154624000000488,-2.0633177999999943,1.1920328000000122
3.8154624000000488,-2.0633177999999943,1.192032800000012
4.061209400000049,-1.9452315333333274,1.243097100000012
4.3069564000000495,-1.8271452666666608,1.294161400000012
4.55270340000005,-1.7090589999999939,1.3452257000000116
4.55270340000005,-1.7090589999999939,1.3452257000000116
4.55270340000005,-1.7090589999999939,1.3452257000000116
5.286753033333384,-1.5430999666666605,1.351608766666678
6.020802666666718,-1.377140933333327,1.3579918333333445
6.75485230000005,-1.2111818999999937,1.364374900000011
7.91337420000005,-1.4888441666666605,1.4282053000000108
9.07189610000005,-1.7665064333333274,1.4920357000000106
10.230418000000048,-2.0441686999999944,1.5558661000000107
10.230418000000048,-2.0441686999999944,1.5558661000000107
10.230418000000048,-2.0441686999999944,1.5558661000000107
12.075116666666716,-2.235659899999994,1.7856555666666774
13.919815333333384,-2.427151099999994,2.015445033333344
15.764514000000053,-2.6186422999999937,2.2452345000000102
15.764514000000053,-2.6186422999999937,2.24523450000001
16.106006666666715,-2.937794333333327,2.522896666666677
16.44749933333338,-3.2569463666666603,2.8005588333333438
16.78899200000004,-3.5760983999999936,3.0782210000000103
13.367682333333372,-3.0846042666666604,3.0207736666666776
9.946372666666704,-2.5931101333333273,2.963326333333344
6.525063000000036,-2.101615999999994,2.9058790000000108
6.525063000000036,-2.101615999999994,2.9058790000000108
6.525063000000036,-2.101615999999994,2.9058790000000108
6.5059138666667025,-1.8399113666666607,3.0431144000000105
6.486764733333369,-1.5782067333333274,3.1803498000000103
6.467615600000035,-1.3165020999999941,3.31758520000001
6.467615600000035,-1.3165020999999941,3.31758520000001
5.573989933333369,-1.3835240333333274,3.030348366666677
4.680364266666703,-1.4505459666666605,2.743111533333344
3.7867386000000365,-1.5175678999999935,2.455874700000011
3.7867386000000365,-1.5175678999999935,2.455874700000011
4.20801923333337,-1.6675693333333272,2.2548089666666775
4.6292998666667025,-1.8175707666666607,2.053743233333344
5.050580500000035,-1.9675721999999942,1.8526775000000104
5.050580500000035,-1.9675721999999942,1.8526775000000104
6.017611200000036,-1.6899099333333274,1.7888470666666774
6.984641900000035,-1.4122476666666606,1.7250166333333443
7.951672600000035,-1.1345853999999937,1.6611862000000113
7.951672600000035,-1.1345853999999937,1.6611862000000113
9.917649066666701,-1.0037330666666604,1.1313938666666778
11.883625533333367,-0.8728807333333272,0.6016015333333444
13.849602000000038,-0.7420283999999938,0.07180920000001101
13.849602000000038,-0.7420283999999938,0.07180920000001101
15.480469000000037,-1.2877783333333273,0.17074632333334436
17.111336000000037,-1.8335282666666608,0.26968344666667765
18.742203000000035,-2.379278199999994,0.36862057000001097
18.742203000000035,-2.3792781999999946,0.36862057000001097
16.836865333333368,-2.5548117999999946,0.7739436133333443
14.931527666666701,-2.730345399999995,1.1792666566666776
13.026190000000033,-2.905878999999995,1.5845897000000109
13.026190000000033,-2.905878999999995,1.5845897000000104
11.440004166666698,-2.353746033333328,1.6803353000000107
9.853818333333365,-1.8016130666666612,1.7760809000000108
8.267632500000031,-1.2494800999999947,1.871826500000011
8.267632500000031,-1.2494800999999944,1.871826500000011
6.7420860000000316,-1.3324596333333278,1.8814010666666776
5.216539500000031,-1.415439166666661,1.8909756333333443
3.6909930000000313,-1.4984186999999942,1.9005502000000112
3.6909930000000313,-1.4984186999999942,1.9005502000000114
3.8218453333333646,-1.6133134333333274,1.868635033333345
3.952697666666698,-1.7282081666666607,1.8367198666666784
4.083550000000032,-1.8431028999999939,1.8048047000000118
4.083550000000032,-1.8431028999999939,1.8048047000000118
5.1750500000000335,-1.8877841666666608,2.009062000000012
6.266550000000034,-1.9324654333333278,2.213319300000012
7.358050000000035,-1.9771466999999945,2.4175766000000123
7.358050000000037,-1.9771466999999945,2.4175766000000123
8.886788000000037,-1.9803382333333281,2.717579466666679
10.415526000000035,-1.9835297666666616,3.0175823333333454
11.944264000000034,-1.986721299999995,3.317585200000012
11.944264000000032,-1.986721299999995,3.317585200000012
14.098540333333366,-1.6803353666666618,3.2058819666666785
16.2528166666667,-1.3739494333333286,3.094178733333345
18.40709300000003,-1.0675634999999952,2.9824755000000116
18.40709300000003,-1.0675634999999952,2.9824755000000116
16.594309333333367,-1.2590547333333284,2.9058790000000116
14.7815256666667,-1.4505459666666616,2.829282500000012
12.968742000000034,-1.6420371999999948,2.7526860000000126
12.968742000000034,-1.6420371999999948,2.7526860000000126
11.5134086666667,-1.6388456333333281,2.746303000000012
10.058075333333369,-1.6356540666666615,2.739920000000012
8.602742000000035,-1.6324624999999948,2.733537000000012
8.602742000000035,-1.6324624999999948,2.733537000000012
7.441028766666702,-1.3835239333333282,2.6505574666666782
6.27931553333337,-1.1345853666666617,2.567577933333345
5.117602300000037,-0.885646799999995,2.4845984000000114
5.117602300000038,-0.885646799999995,2.4845984000000114
4.951643200000038,-1.2079903666666614,2.1973616000000114
4.785684100000038,-1.5303339333333283,1.9101248000000115
4.619725000000039,-1.852677499999995,1.6228880000000114
4.619725000000039,-1.852677499999995,1.6228880000000114
4.945260200000039,-1.942040066666662,1.600547366666678
5.270795400000039,-2.031402633333329,1.5782067333333447
5.596330600000038,-2.1207651999999957,1.5558661000000111
5.596330600000037,-2.1207651999999952,1.5558661000000111
6.397402066666703,-1.9196994333333286,1.8814011333333445
7.198473533333368,-1.7186336666666617,2.206936166666678
7.999545000000033,-1.5175678999999949,2.5324712000000114
7.999545000000033,-1.5175678999999949,2.532471200000012
9.595305000000034,-1.4984187333333283,2.6409828666666786
11.191065000000036,-1.4792695666666618,2.7494945333333454
12.786825000000036,-1.4601203999999954,2.858006200000012
12.786825000000036,-1.4601203999999954,2.858006200000012
13.642152666666702,-1.6835267999999954,2.5165135666666782
14.49748033333337,-1.9069331999999954,2.175020933333345
15.352808000000037,-2.1303395999999952,1.833528300000011
15.352808000000039,-2.1303395999999952,1.833528300000011
15.994303333333372,-2.353746066666662,1.7345911666666778
16.635798666666705,-2.577152533333329,1.6356540333333445
17.27729400000004,-2.8005589999999962,1.536716900000011
17.27729400000004,-2.8005589999999962,1.536716900000011
15.033655333333376,-2.1367227999999963,2.0090618666666775
12.79001666666671,-1.4728865999999965,2.4814068333333448
10.546378000000045,-0.8090503999999967,2.9537518000000116
10.546378000000045,-0.8090503999999967,2.953751800000012
8.270824266666711,-1.0452228999999966,2.583535500000012
5.995270533333378,-1.2813953999999963,2.2133192000000124
3.7197168000000445,-1.517567899999996,1.8431029000000125
3.7197168000000445,-1.517567899999996,1.8431029000000125
3.387798700000044,-1.7696979999999962,1.7633149000000126
3.055880600000043,-2.0218280999999965,1.6835269000000126
2.723962500000043,-2.273958199999997,1.6037389000000124
2.723962500000043,-2.2739581999999965,1.6037389000000124
3.1963074666667097,-1.9260824999999964,1.670760833333346
3.6686524333333765,-1.5782067999999965,1.7377827666666794
4.140997400000043,-1.2303310999999963,1.8048047000000127
4.140997400000043,-1.2303310999999963,1.8048047000000127
6.260166933333377,-1.3069275333333297,1.8845927000000129
8.379336466666711,-1.3835239666666632,1.9643807000000129
10.498506000000045,-1.4601203999999965,2.044168700000013
10.498506000000047,-1.4601203999999965,2.044168700000013
12.040010000000047,-1.6771437999999967,1.91331636666668
13.581514000000048,-1.8941671999999967,1.7824640333333466
15.12301800000005,-2.111190599999997,1.6516117000000132
15.12301800000005,-2.111190599999997,1.6516117000000132
15.796429000000048,-2.0250195666666637,2.01225346666668
16.469840000000048,-1.9388485333333303,2.3728952333333466
17.14325100000005,-1.8526774999999969,2.733537000000013
17.143251000000046,-1.8526774999999969,2.733537000000013
17.143251000000046,-1.8526774999999969,2.733537000000013
14.982591666666714,-1.9388485333333303,2.96651796666668
12.82193233333338,-2.0250195666666637,3.199498933333347
10.66127300000005,-2.111190599999997,3.4324799000000135
9.927223666666714,-2.09204143333333,3.295244600000013
9.193174333333381,-2.0728922666666634,3.1580093000000127
8.459125000000048,-2.0537430999999966,3.0207740000000123
8.459125000000048,-2.0537430999999966,3.0207740000000123
7.35166723333338,-2.0282109666666632,2.6665152000000125
6.244209466666713,-2.0026788333333303,2.3122564000000123
5.136751700000045,-1.977146699999997,1.957997600000012
5.136751700000045,-1.977146699999997,1.957997600000012
5.136751700000045,-1.977146699999997,1.957997600000012
5.194199133333378,-1.8654435333333304,1.9292739000000119
5.251646566666712,-1.7537403666666638,1.9005502000000118
5.309094000000045,-1.6420371999999972,1.8718265000000116
5.455903866666712,-1.6165050333333306,1.9292739000000116
5.6027137333333785,-1.5909728666666638,1.9867213000000117
5.749523600000046,-1.5654406999999972,2.0441687000000117
5.749523600000046,-1.5654406999999972,2.044168700000012
5.749523600000046,-1.5654406999999972,2.044168700000012
6.895279066666713,-1.6548032333333307,2.1303397000000124
8.041034533333379,-1.7441657666666641,2.2165107000000126
9.186790000000046,-1.8335282999999976,2.302681700000013
9.186790000000045,-1.8335282999999976,2.302681700000013
11.618728333333378,-1.7122505333333307,2.095232933333346
14.050666666666709,-1.590972766666664,1.8877841666666793
16.482605000000042,-1.469694999999997,1.6803354000000124
17.232612666666707,-1.6101218999999973,1.5973558666666792
17.982620333333376,-1.7505487999999974,1.514376333333346
18.73262800000004,-1.8909756999999976,1.4313968000000126
18.73262800000004,-1.8909756999999976,1.4313968000000126
18.73262800000004,-1.8909756999999976,1.4313968000000126
16.019835666666705,-1.6260794999999977,1.6324625333333458
13.307043333333374,-1.3611832999999975,1.8335282666666792
10.59425100000004,-1.0962870999999972,2.0345940000000127
10.59425100000004,-1.0962870999999972,2.0345940000000127
8.84848950000004,-1.3292680666666639,2.139914233333346
7.102728000000039,-1.562249033333331,2.245234466666679
5.356966500000039,-1.7952299999999977,2.3505547000000124
5.356966500000039,-1.7952299999999977,2.3505547000000124
4.849514800000039,-1.9292738999999977,2.2005532000000123
4.342063100000039,-2.063317799999998,2.050551700000012
3.8346114000000395,-2.197361699999998,1.900550200000012
4.144188933333372,-2.0665093666666645,1.9420400000000122
4.453766466666706,-1.935657033333331,1.9835298000000126
4.763344000000039,-1.8048046999999976,2.0250196000000127
4.763344000000039,-1.8048046999999976,2.0250196000000127
5.739949000000039,-1.8494859666666643,1.9292739666666794
6.7165540000000385,-1.8941672333333308,1.833528333333346
7.693159000000038,-1.9388484999999973,1.7377827000000128
7.693159000000037,-1.9388484999999973,1.7377827000000128
9.758072666666704,-2.146297333333331,1.980338233333346
11.82298633333337,-2.3537461666666646,2.222893766666679
13.887900000000037,-2.5611949999999983,2.465449300000012
13.887900000000037,-2.5611949999999983,2.465449300000012
14.50386333333337,-2.6665150999999985,2.328213900000012
15.119826666666704,-2.7718351999999986,2.1909785000000124
15.735790000000037,-2.8771552999999987,2.0537431000000126
15.735790000000037,-2.8771552999999987,2.0537431000000126
14.618758000000035,-2.768643599999999,2.366512133333346
13.501726000000035,-2.660131899999999,2.6792811666666787
12.384694000000037,-2.551620199999999,2.992050200000012
12.384694000000039,-2.551620199999999,2.992050200000012
11.079362166666707,-2.133531099999999,3.0590721333333453
9.774030333333375,-1.7154419999999988,3.126094066666679
8.468698500000041,-1.2973528999999988,3.1931160000000123
7.051663566666707,-1.5494829666666654,2.956943466666679
5.6346286333333735,-1.8016130333333322,2.720770933333345
4.21759370000004,-2.053743099999999,2.484598400000012
4.21759370000004,-2.053743099999999,2.484598400000012
4.21759370000004,-2.053743099999999,2.484598400000012
4.026102566666707,-2.1335311666666654,2.4558747666666787
3.834611433333374,-2.2133192333333316,2.427151133333346
3.6431203000000405,-2.2931072999999977,2.398427500000013
4.571852700000041,-1.8303368466666647,2.775026800000013
5.500585100000042,-1.3675663933333315,3.1516261000000125
6.429317500000043,-0.9047959399999983,3.5282254000000126
6.429317500000043,-0.9047959399999983,3.5282254000000126
8.819766000000042,-1.402673126666665,3.295244433333346
11.210214500000042,-1.9005503133333317,3.062263466666679
13.600663000000042,-2.3984274999999986,2.829282500000012
13.600663000000045,-2.3984274999999986,2.829282500000012
14.136838333333378,-2.6058763333333324,2.1431057100000124
14.67301366666671,-2.813325166666665,1.4569289200000124
15.209189000000043,-3.020773999999998,0.7707521300000123
15.209189000000043,-3.020773999999998,0.7707521300000123
15.97834566666671,-3.1963075666666647,0.7196877966666789
16.747502333333376,-3.3718411333333314,0.6686234633333457
17.51665900000004,-3.5473746999999975,0.6175591300000124
17.516659000000036,-3.5473746999999975,0.6175591300000124
14.88684600000004,-2.9090706333333305,1.2462885866666789
12.25703300000004,-2.270766566666664,1.8750180433333454
9.62722000000004,-1.6324624999999973,2.503747500000012
8.044226233333374,-1.7090589999999972,2.4431086666666784
6.461232466666708,-1.7856554999999972,2.3824698333333454
4.878238700000042,-1.8622519999999971,2.321831000000012
4.878238700000041,-1.8622519999999971,2.321831000000012
4.878238700000041,-1.8622519999999971,2.321831000000012
4.792067466666707,-2.152680333333331,2.2292769000000123
4.705896233333373,-2.443108666666664,2.1367228000000122
4.619725000000039,-2.733536999999998,2.0441687000000126
4.619725000000039,-2.462257766666664,2.0473601666666794
4.619725000000039,-2.1909785333333307,2.050551633333346
4.619725000000039,-1.919699299999997,2.0537431000000126
4.619725000000039,-1.919699299999997,2.0537431000000126
4.964409333333372,-2.0218279333333307,1.8079961000000127
5.309093666666706,-2.123956566666664,1.5622491000000125
5.653778000000039,-2.2260851999999978,1.3165021000000126
5.653778000000039,-2.2260851999999978,1.3165021000000126
8.353804000000041,-2.200553133333331,1.463312033333346
11.05383000000004,-2.175021066666664,1.6101219666666795
13.75385600000004,-2.149488999999997,1.756931900000013
13.75385600000004,-2.1494889999999964,1.7569319000000132
14.720886333333373,-1.9835298999999962,1.8814011333333465
15.687916666666707,-1.8175707999999962,2.0058703666666795
16.65494700000004,-1.6516116999999964,2.130339600000013
16.65494700000004,-1.6516116999999964,2.130339600000013
15.66876733333337,-2.095232966666663,2.567577900000013
14.682587666666704,-2.5388542333333297,3.0048162000000134
13.696408000000035,-2.982475499999996,3.442054500000013
13.696408000000035,-2.982475499999996,3.442054500000013
11.953838166666705,-2.8005588666666625,3.4995018666666797
10.211268333333372,-2.618642233333329,3.556949233333347
8.46869850000004,-2.4367255999999955,3.614396600000014
7.428263000000039,-2.123956633333329,3.540991633333347
6.387827500000038,-1.8111876666666624,3.4675866666666812
5.3473920000000374,-1.4984186999999958,3.394181700000015
5.3473920000000374,-1.4984186999999958,3.394181700000015
4.910153800000038,-1.6548031999999957,3.1867329000000146
4.4729156000000385,-1.8111876999999958,2.979284100000014
4.035677400000039,-1.9675721999999958,2.7718353000000135
4.035677400000039,-1.9675721999999958,2.7718353000000135
4.750577933333371,-1.938848533333329,2.6984302666666804
5.465478466666704,-1.9101248666666624,2.6250252333333477
6.180379000000037,-1.8814011999999956,2.5516202000000145
6.180379000000035,-1.8814011999999956,2.5516202000000145
7.932523333333369,-2.181404033333329,2.5707693666666813
9.684667666666703,-2.4814068666666627,2.589918533333348
11.436812000000037,-2.781409699999996,2.609067700000015
11.436812000000037,-2.781409699999996,2.609067700000015
14.066624666666703,-2.51332203333333,2.672898133333348
16.696437333333368,-2.2452343666666628,2.736728566666681
19.326250000000034,-1.977146699999996,2.800559000000014
19.326250000000034,-1.9771466999999958,2.800559000000014
19.326250000000034,-1.9771466999999958,2.800559000000014
16.859205000000035,-1.6675692333333292,2.532471266666681
14.392160000000034,-1.3579917666666628,2.2643835333333477
11.925115000000034,-1.0484142999999961,1.9962958000000146
12.553844333333368,-1.2750122666666626,1.9771467000000147
13.182573666666704,-1.5016102333333292,1.9579976000000148
13.811303000000038,-1.7282081999999959,1.9388485000000149
13.811303000000038,-1.7282081999999959,1.9388485000000149
11.621920333333371,-1.3005444899999958,1.9611891000000148
9.432537666666704,-0.8728807799999959,1.9835297000000152
7.243155000000037,-0.44521706999999583,2.0058703000000153
7.243155000000037,-0.44521706999999583,2.0058703000000158
7.243155000000037,-0.44521706999999583,2.0058703000000158
6.850598000000036,-0.7101132466666625,1.9643806000000155
6.458041000000034,-0.9750094233333293,1.9228909000000154
6.065484000000033,-1.239905599999996,1.881401200000015
6.687830433333367,-1.3133105333333293,1.8111877333333484
7.310176866666701,-1.3867154666666626,1.7409742666666819
7.932523300000035,-1.4601203999999959,1.6707608000000151
7.932523300000035,-1.4601203999999959,1.6707608000000151
8.688913700000036,-1.7218250999999958,1.6165049333333483
9.445304100000037,-1.9835297999999957,1.5622490666666815
10.201694500000038,-2.2452344999999956,1.5079932000000147
10.201694500000038,-2.245234499999995,1.5079932000000147
10.201694500000038,-2.245234499999995,1.5079932000000147
10.750635666666703,-2.0633178333333286,1.536716933333348
11.299576833333369,-1.881401166666662,1.5654406666666816
11.848518000000034,-1.6994844999999952,1.5941644000000152
12.103840000000034,-1.683526899999995,1.5016103000000154
12.359162000000033,-1.667569299999995,1.4090562000000155
12.614484000000033,-1.6516116999999948,1.3165021000000157
12.614484000000033,-1.6516116999999948,1.3165021000000154
11.6251126666667,-1.7377827333333282,1.2654377666666823
10.635741333333366,-1.8239537666666614,1.214373433333349
9.646370000000033,-1.9101247999999948,1.1633091000000155
9.646370000000033,-1.9101247999999948,1.1633091000000155
9.646370000000033,-1.9101247999999948,1.1633091000000155
9.869776333333368,-1.4441628666666615,1.3962900666666822
10.093182666666701,-0.9782009333333281,1.6292710333333487
10.316589000000036,-0.5122389999999949,1.8622520000000151
10.316589000000036,-0.5122389999999948,1.8622520000000151
10.316589000000036,-0.5122389999999948,1.8622520000000151
10.316589000000036,-0.5122389999999948,1.8622520000000151
10.316589000000036,-0.5122389999999948,1.8622520000000151
9.011257266666702,-0.9239450666666613,1.8335283333333485
7.7059255333333665,-1.3356511333333279,1.8048046666666817
6.400593800000032,-1.7473571999999944,1.776081000000015
6.400593800000032,-1.7473571999999944,1.776081000000015
6.831448866666698,-1.8016130666666612,2.0282110666666817
7.2623039333333645,-1.855868933333328,2.2803411333333483
7.693159000000031,-1.9101247999999948,2.5324712000000154
7.69315900000003,-1.9101247999999948,2.5324712000000154
7.69315900000003,-2.0345940666666618,2.6665150333333485
7.69315900000003,-2.1590633333333282,2.8005588666666816
7.69315900000003,-2.2835325999999943,2.9346027000000148
7.69315900000003,-2.2835325999999943,2.9346027000000148
8.81019100000003,-2.325022399999994,3.020773800000015
9.927223000000028,-2.3665121999999945,3.106944900000015
11.044255000000028,-2.408001999999995,3.1931160000000154
11.044255000000028,-2.408001999999995,3.1931160000000154
12.544269666666695,-2.2420429333333285,3.3303513333333488
14.044284333333364,-2.076083866666662,3.467586666666682
15.54429900000003,-1.9101247999999955,3.604822000000016
15.54429900000003,-1.9101247999999955,3.604822000000016
13.421938333333364,-1.903741766666662,3.0335399000000156
11.299577666666694,-1.8973587333333288,2.4622578000000157
9.177217000000027,-1.8909756999999956,1.8909757000000156
9.177217000000027,-1.8909756999999956,1.8909757000000156
9.87935133333336,-2.1782124666666625,1.8271453000000157
10.581485666666694,-2.465449233333329,1.763314900000016
11.283620000000028,-2.7526859999999957,1.6994845000000158
10.444250333333363,-2.277149533333329,1.7154420666666823
9.604880666666697,-1.8016130666666623,1.7313996333333488
8.765511000000032,-1.3260765999999957,1.747357200000015
8.765511000000034,-1.3260765999999957,1.747357200000015
8.574019333333366,-1.4250137333333288,1.747357200000015
8.3825276666667,-1.523950866666662,1.747357200000015
8.191036000000034,-1.622887999999995,1.747357200000015
8.191036000000034,-1.622887999999995,1.747357200000015
8.462315333333368,-1.5303338999999951,1.6962929333333487
8.733594666666702,-1.4377797999999953,1.6452286666666822
9.004874000000038,-1.3452256999999956,1.5941644000000157
9.004874000000038,-1.3452256999999956,1.5941644000000157
9.110194000000037,-1.5335253999999956,1.6356541666666822
9.215514000000036,-1.7218250999999956,1.6771439333333487
9.320834000000035,-1.9101247999999955,1.7186337000000151
9.320834000000035,-1.9101247999999955,1.7186337000000151
9.26657833333337,-1.827145266666662,1.8399114000000154
9.212322666666706,-1.744165733333329,1.9611891000000157
9.15806700000004,-1.6611861999999957,2.082466800000016
9.15806700000004,-1.6611861999999957,2.082466800000016
9.888925000000038,-1.6356540333333287,2.0282109666666823
10.619783000000035,-1.6101218666666617,1.9739551333333487
11.350641000000033,-1.5845896999999949,1.9196993000000149
10.865530166666701,-1.5622490999999947,1.7441657333333485
10.380419333333368,-1.5399084999999946,1.568632166666682
9.895308500000036,-1.5175678999999942,1.3930986000000154
9.895308500000036,-1.5175678999999942,1.3930986000000154
9.895308500000036,-1.5175678999999942,1.3930986000000154
10.412334666666704,-1.8686350999999943,1.4409713666666821
10.929360833333371,-2.2197022999999945,1.4888441333333489
11.446387000000039,-2.570769499999995,1.5367169000000154
10.705954333333372,-2.411193499999995,1.839911366666682
9.965521666666703,-2.251617499999995,2.143105833333349
9.225089000000034,-2.092041499999995,2.4463003000000154
9.225089000000034,-2.092041499999995,2.4463003000000154
7.9963536666667006,-2.1207651333333275,2.526088266666682
6.767618333333368,-2.1494887666666607,2.605876233333349
5.538883000000035,-2.178212399999994,2.6856642000000157
5.538883000000037,-2.178212399999994,2.6856642000000157
5.538883000000037,-2.178212399999994,2.6856642000000157
5.353774900000036,-2.2165106999999935,2.5899186333333493
5.168666800000035,-2.254808999999993,2.494173066666683
4.983558700000036,-2.2931072999999933,2.3984275000000164
4.871855466666702,-2.1558719333333265,2.4654494333333496
4.760152233333368,-2.0186365666666597,2.5324713666666825
4.648449000000035,-1.8814011999999931,2.5994933000000153
4.648449000000035,-1.8814011999999931,2.5994933000000153
5.120794000000035,-2.1526803999999933,2.513322200000015
5.593139000000034,-2.423959599999993,2.4271511000000148
6.065484000000033,-2.6952387999999927,2.3409800000000147
6.065484000000033,-2.6952387999999927,2.3409800000000143
6.065484000000033,-2.6952387999999927,2.3409800000000143
7.077195666666701,-2.6186422999999923,2.513322066666681
8.088907333333369,-2.542045799999992,2.6856641333333475
9.100619000000037,-2.465449299999992,2.8580062000000144
11.050638000000037,-2.283532633333325,2.845240133333348
13.000657000000038,-2.1016159666666585,2.832474066666681
14.950676000000037,-1.9196992999999918,2.8197080000000145
14.950676000000037,-1.9196992999999918,2.8197080000000145
16.300689000000038,-2.0186364666666585,2.5452372666666814
17.650702000000038,-2.1175736333333255,2.2707665333333478
19.00071500000004,-2.2165107999999925,1.9962958000000146
19.00071500000004,-2.2165107999999925,1.9962958000000146
19.00071500000004,-2.2165107999999925,1.9962958000000146
16.65813933333337,-1.7250166666666589,1.9165078333333476
14.315563666666705,-1.2335225333333255,1.8367198666666809
11.972988000000038,-0.742028399999992,1.7569319000000139
11.972988000000038,-0.742028399999992,1.7569319000000139
10.836807000000038,-0.8792637999999919,1.8718266000000139
9.700626000000037,-1.016499199999992,1.9867213000000141
8.564445000000037,-1.1537345999999922,2.101616000000014
6.550595600000037,-0.9845840166666587,1.8558689666666808
4.536746200000036,-0.8154334333333253,1.6101219333333472
2.522896800000036,-0.6462828499999919,1.3643749000000138
2.522896800000036,-0.646282849999992,1.3643749000000138
3.1260940333333695,-0.840965599999992,1.2399056133333473
3.729291266666703,-1.035648349999992,1.1154363266666805
4.332488500000037,-1.2303310999999921,0.9909670400000136
4.332488500000036,-1.2303310999999921,0.9909670400000136
5.500584900000035,-1.6771438999999921,1.0228822266666802
6.668681300000035,-2.1239566999999924,1.0547974133333469
7.8367777000000345,-2.5707694999999924,1.0867126000000136
7.8367777000000345,-2.5707694999999924,1.0867126000000136
9.474027800000036,-2.848431699999992,1.47288656666668
11.111277900000035,-3.1260938999999923,1.8590605333333468
12.748528000000036,-3.403756099999993,2.2452345000000133
12.748528000000036,-3.403756099999993,2.2452345000000133
13.693217666666703,-2.6569404333333257,2.7399200666666803
14.637907333333368,-1.9101247666666588,3.234605633333347
15.582597000000035,-1.163309099999992,3.7292912000000134
15.582597000000035,-1.163309099999992,3.7292912000000134
14.599609000000036,-1.5367169333333253,3.6782269333333466
13.616621000000036,-1.9101247666666585,3.6271626666666794
12.633633000000033,-2.2835325999999916,3.5760984000000122
12.633633000000032,-2.2835325999999916,3.5760984000000122
11.679368333333366,-1.811187633333325,3.767589600000013
10.725103666666703,-1.3388426666666584,3.959080800000013
9.770839000000036,-0.8664976999999917,4.150572000000014
9.770839000000036,-0.8664976999999917,4.150572000000014
8.095290833333367,-0.984583933333325,3.7197167333333465
6.4197426666667,-1.102670166666658,3.28886146666668
4.744194500000033,-1.2207563999999913,2.858006200000013
4.3388714666667,-1.6292710333333247,2.4782153666666797
3.9335484333333675,-2.037785666666658,2.0984245333333464
3.5282254000000344,-2.4463002999999914,1.718633700000013
3.5282254000000344,-2.4463002999999914,1.718633700000013
4.169720933333367,-2.3090648666666582,1.833528400000013
4.811216466666701,-2.1718294333333246,1.948423100000013
5.452712000000035,-2.034593999999991,2.063317800000013
5.452712000000036,-2.034593999999991,2.063317800000013
6.560169500000036,-1.9803381666666577,2.1590634333333463
7.667627000000036,-1.9260823333333246,2.2548090666666796
8.775084500000036,-1.8718264999999914,2.350554700000013
8.775084500000036,-1.8718264999999914,2.350554700000013
11.52936633333337,-2.1814039999999912,2.1494888666666796
14.283648166666701,-2.490981499999991,1.948423033333346
17.037930000000035,-2.8005589999999905,1.7473572000000128
17.03793000000003,-2.8005589999999905,1.7473572000000128
17.6826166666667,-2.8931129999999903,1.6069303333333462
18.327303333333365,-2.98566699999999,1.4665034666666799
18.971990000000034,-3.07822099999999,1.3260766000000135
18.971990000000034,-3.07822099999999,1.3260766000000135
16.37409300000003,-2.64098279999999,1.63565406666668
13.776196000000033,-2.20374459999999,1.9452315333333463
11.178299000000033,-1.76650639999999,2.2548090000000127
11.178299000000033,-1.76650639999999,2.2548090000000127
9.314451333333366,-1.8462943666666567,2.0792754000000127
7.450603666666699,-1.9260823333333237,1.9037418000000128
5.586756000000032,-2.0058702999999904,1.7282082000000127
5.586756000000032,-2.005870299999991,1.7282082000000127
4.7218540666667,-2.1239565333333243,1.5845897666666795
3.8569521333333676,-2.2420427666666582,1.440971333333346
2.9920502000000346,-2.3601289999999917,1.2973529000000126
2.9920502000000346,-2.3601289999999917,1.2973529000000126
3.365458033333368,-2.455874666666658,1.1888412333333462
3.7388658666667016,-2.5516203333333247,1.0803295666666795
4.112273700000036,-2.647365999999991,0.9718179000000126
4.112273700000036,-2.647365999999991,0.9718179000000126
5.334625900000035,-2.8611978333333243,1.2111819000000126
6.556978100000037,-3.0750296666666572,1.4505459000000123
7.779330300000037,-3.2888614999999906,1.6899099000000124
7.779330300000038,-3.2888614999999906,1.6899099000000124
9.276153200000039,-3.0622635666666578,2.190978600000012
10.772976100000038,-2.8356656333333246,2.6920473000000125
12.26979900000004,-2.6090676999999918,3.1931160000000123
12.26979900000004,-2.6090676999999918,3.1931160000000123
13.93896400000004,-2.810133466666658,2.9409858666666793
15.60812900000004,-3.011199233333325,2.688855733333346
17.277294000000044,-3.2122649999999915,2.436725600000012
17.277294000000044,-3.2122649999999915,2.436725600000012
16.141113000000047,-3.3207766666666583,2.749494633333345
15.004932000000048,-3.4292883333333246,3.0622636666666785
13.868751000000051,-3.5377999999999905,3.3750327000000113
13.868751000000051,-3.53779999999999,3.3750327000000113
12.020860666666715,-3.1324769999999895,3.4260969333333446
10.172970333333383,-2.7271539999999894,3.477161166666678
8.325080000000048,-2.3218309999999893,3.5282254000000113
8.325080000000048,-2.3218309999999893,3.5282254000000113
6.831448666666714,-1.855869023333323,3.406947666666678
5.337817333333381,-1.3899070466666565,3.285669933333345
3.844186000000048,-0.92394506999999,3.164392200000011
3.844186000000048,-0.9239450699999899,3.164392200000011
3.7484403666667148,-1.370757913333323,2.790984366666678
3.6526947333333815,-1.8175707566666564,2.4175765333333445
3.556949100000048,-2.2643835999999897,2.0441687000000113
3.556949100000048,-2.2643835999999897,2.0441687000000113
4.182487066666714,-2.1431057999999896,2.1239566666666776
4.80802503333338,-2.021827999999989,2.203744633333345
5.4335630000000466,-1.900550199999989,2.2835326000000116
6.033568866666713,-1.7313996666666558,2.079275333333345
6.63357473333338,-1.5622491333333226,1.8750180666666783
7.233580600000047,-1.3930985999999894,1.6707608000000116
7.233580600000047,-1.3930985999999894,1.6707608000000116
7.233580600000047,-1.3930985999999894,1.6707608000000116
10.476165066666713,-1.2941614333333227,1.5845897666666782
13.71874953333338,-1.1952242666666557,1.498418733333345
16.961334000000047,-1.096287099999989,1.4122477000000115
16.961334000000047,-1.0962870999999887,1.4122477000000115
17.440062000000047,-1.514376299999989,1.2590547333333448
17.918790000000048,-1.9324654999999893,1.105861766666678
18.397518000000044,-2.3505546999999893,0.9526688000000112
16.664522333333377,-2.155871933333323,1.2016073666666778
14.931526666666707,-1.9611891666666565,1.4505459333333446
13.19853100000004,-1.7665063999999895,1.6994845000000112
13.19853100000004,-1.7665063999999895,1.6994845000000112
13.19853100000004,-1.7665063999999895,1.6994845000000112
10.763401233333374,-1.543099966666656,1.8686350333333444
8.328271466666708,-1.319693533333323,2.0377855666666775
5.893141700000041,-1.0962870999999899,2.2069361000000107
5.171858200000042,-1.4601203999999897,1.9739551333333438
4.450574700000042,-1.82395369999999,1.7409741666666771
3.7292912000000427,-2.18778699999999,1.5079932000000102
3.7292912000000427,-2.18778699999999,1.5079932000000102
3.6431202000000424,-2.162254866666657,1.5016102000000104
3.556949200000042,-2.1367227333333236,1.4952272000000104
3.470778200000042,-2.1111905999999903,1.4888442000000106
3.470778200000042,-2.1111905999999903,1.4888442000000106
4.208019466666708,-2.143105766666657,1.3994816000000105
4.945260733333376,-2.1750209333333235,1.3101190000000107
5.682502000000042,-2.20693609999999,1.2207564000000106
5.682502000000042,-2.20693609999999,1.2207564000000108
8.417634666666709,-2.2484258666666563,1.3835239333333444
11.152767333333378,-2.289915633333323,1.546291466666678
13.887900000000045,-2.3314053999999893,1.7090590000000117
13.887900000000045,-2.3314053999999893,1.7090590000000117
15.177273666666713,-2.344171533333323,1.951614533333345
16.46664733333338,-2.3569376666666564,2.1941700666666786
17.756021000000047,-2.3697037999999897,2.436725600000012
17.756021000000047,-2.3697037999999897,2.436725600000012
16.744309333333376,-2.2931072999999897,2.749494633333345
15.732597666666706,-2.21651079999999,3.0622636666666785
14.720886000000041,-2.1399142999999903,3.3750327000000113
14.720886000000041,-2.1399142999999907,3.3750327000000113
12.959167000000038,-1.4856526566666572,3.582481466666678
11.197448000000039,-0.8313910133333241,3.789930233333345
9.43572900000004,-0.17712936999999065,3.9973790000000116
9.435729000000041,-0.17712936999999065,3.9973790000000116
7.747414900000042,-0.547345713333324,3.489927333333345
6.059100800000042,-0.9175620566666575,2.9824756666666783
4.370786700000043,-1.287778399999991,2.4750240000000114
4.370786700000043,-1.287778399999991,2.475024000000011
4.364403800000043,-1.3133105666666576,2.3026818666666773
4.358020900000043,-1.3388427333333244,2.130339733333344
4.351638000000044,-1.3643748999999907,1.9579976000000103
4.351638000000044,-1.3643748999999907,1.9579976000000103
4.766535533333378,-1.3420342333333242,1.9101248000000102
5.1814330666667106,-1.3196935666666574,1.8622520000000102
5.596330600000044,-1.2973528999999908,1.81437920000001
5.596330600000044,-1.297352899999991,1.81437920000001
6.167612733333378,-1.4409713333333245,1.8207622333333433
6.738894866666712,-1.5845897666666577,1.8271452666666768
7.310177000000046,-1.7282081999999912,1.83352830000001
7.310177000000046,-1.7282081999999912,1.83352830000001
9.624029000000045,-1.731399699999991,1.7313996666666764
11.937881000000042,-1.7345911999999908,1.629271033333343
14.251733000000042,-1.7377826999999906,1.5271424000000096
14.251733000000039,-1.7377826999999904,1.5271424000000096
15.866642000000041,-2.1718294666666567,1.5143763333333429
17.481551000000042,-2.605876233333323,1.5016102666666764
19.096460000000047,-3.0399229999999897,1.4888442000000097
17.647510000000047,-2.6505574999999904,1.5813982666666764
16.198560000000047,-2.26119199999999,1.673952333333343
14.749610000000045,-1.8718264999999896,1.7665064000000097
14.749610000000041,-1.8718264999999896,1.7665064000000097
12.250649800000042,-1.6867183666666563,1.8782096000000097
9.751689600000043,-1.501610233333323,1.9899128000000097
7.252729400000043,-1.3165020999999897,2.1016160000000097
7.252729400000045,-1.3165020999999897,2.1016160000000093
7.252729400000045,-1.3165020999999897,2.1016160000000093
5.717608266666711,-1.4090561999999898,1.8431028666666762
4.182487133333376,-1.5016102999999896,1.584589733333343
2.6473660000000425,-1.5941643999999895,1.32607660000001
2.6473660000000425,-1.594164399999989,1.32607660000001
2.9856671333333757,-1.673952366666656,1.3452257333333428
3.323968266666709,-1.753740333333323,1.364374866666676
3.662269400000042,-1.8335282999999898,1.383524000000009
4.9101537333333765,-1.9005501999999899,1.322885100000009
6.15803806666671,-1.9675720999999895,1.2622462000000092
7.405922400000044,-2.034593999999989,1.2016073000000091
7.405922400000044,-2.034593999999989,1.201607300000009
7.405922400000044,-2.034593999999989,1.201607300000009
8.542103600000045,-1.9707636333333223,1.2462886000000089
9.678284800000045,-1.9069332666666554,1.290969900000009
10.814466000000046,-1.8431028999999886,1.335651200000009
10.814466000000047,-1.8431028999999886,1.335651200000009
12.643207333333384,-1.964380633333322,1.4633120333333423
14.47194866666672,-2.0856583666666553,1.5909728666666754
16.300690000000056,-2.206936099999989,1.7186337000000087
16.19536966666672,-2.3792782333333222,2.1494888666666756
16.090049333333386,-2.5516203666666555,2.580344033333342
15.984729000000053,-2.7239624999999883,3.011199200000009
15.984729000000053,-2.7239624999999883,3.011199200000009
15.984729000000053,-2.7239624999999883,3.011199200000009
14.331521333333386,-2.3537461333333214,3.1420515000000093
12.67831366666672,-1.9835297666666547,3.2729038000000092
11.025106000000052,-1.6133133999999882,3.4037561000000096
11.025106000000052,-1.6133133999999882,3.4037561000000096
9.375090166666718,-1.418630699999988,3.3080105666666757
7.725074333333384,-1.2239479999999878,3.2122650333333422
6.075058500000051,-1.0292652999999878,3.116519500000009
6.075058500000051,-1.0292652999999876,3.1165195000000097
5.056963666666718,-1.2558631999999876,2.8133250333333435
4.038868833333384,-1.4824610999999877,2.510130566666677
3.0207740000000505,-1.7090589999999874,2.2069361000000103
3.0207740000000505,-1.7090589999999874,2.2069361000000107
3.3941818000000503,-1.6292709999999875,2.2739580666666774
3.7675896000000506,-1.5494829999999873,2.3409800333333437
4.1409974000000505,-1.4696949999999873,2.4080020000000104
4.1409974000000505,-1.4696949999999873,2.4080020000000104
5.682501933333384,-1.3771409333333207,2.401618933333344
7.224006466666718,-1.284586866666654,2.3952358666666775
8.765511000000052,-1.1920327999999873,2.388852800000011
8.765511000000052,-1.1920327999999871,2.388852800000011
9.700626000000053,-1.3165020999999872,2.213319200000011
10.635741000000055,-1.4409713999999874,2.0377856000000105
11.570856000000054,-1.5654406999999875,1.8622520000000105
11.570856000000054,-1.5654406999999875,1.8622520000000105
13.715557666666719,-1.881401133333321,1.6005473666666772
15.860259333333383,-2.1973615666666544,1.338842733333344
18.004961000000048,-2.513321999999988,1.0771381000000106
18.00496100000005,-2.513321999999988,1.0771381000000106
17.392189000000055,-2.4718322666666546,1.2207564666666773
16.779417000000056,-2.4303425333333215,1.3643748333333436
16.16664500000006,-2.388852799999988,1.5079932000000102
13.900666000000058,-2.0633177666666547,1.7633148666666771
11.634687000000056,-1.7377827333333211,2.018636533333344
9.368708000000053,-1.4122476999999876,2.2739582000000103
9.368708000000055,-1.4122476999999876,2.2739582000000107
9.368708000000055,-1.4122476999999876,2.2739582000000107
7.492093966666722,-1.3611833666666542,2.264383633333344
5.61547993333339,-1.310119033333321,2.254809066666677
3.738865900000057,-1.2590546999999876,2.2452345000000102
3.738865900000057,-1.2590546999999876,2.24523450000001
3.480352766666723,-1.5271423999999876,1.9548061333333433
3.22183963333339,-1.7952300999999877,1.6643777666666768
2.9633265000000564,-2.0633177999999877,1.3739494000000103
4.099507666666724,-2.0984245333333207,1.3771409333333435
5.23568883333339,-2.133531266666654,1.380332466666677
6.371870000000057,-2.168637999999987,1.3835240000000104
6.371870000000057,-2.168637999999987,1.3835240000000109
6.371870000000057,-2.168637999999987,1.3835240000000109
7.935715000000056,-1.9196993999999872,1.632462533333344
9.499560000000054,-1.670760799999987,1.8814010666666772
11.063405000000055,-1.421822199999987,2.1303396000000103
11.063405000000055,-1.421822199999987,2.1303396000000108
12.84427333333339,-1.501610199999987,1.8845926000000108
14.625141666666726,-1.581398199999987,1.6388456000000107
16.406010000000062,-1.661186199999987,1.3930986000000107
15.920898666666728,-2.149488799999987,1.6611863000000107
15.435787333333394,-2.6377913999999865,1.9292740000000108
14.95067600000006,-3.1260939999999864,2.1973617000000107
14.95067600000006,-3.1260939999999864,2.1973617000000107
14.95067600000006,-3.1260939999999864,2.1973617000000107
13.632578333333393,-2.49417303333332,2.6633236333333445
12.314480666666727,-1.862252066666653,3.129285566666678
10.99638300000006,-1.2303310999999864,3.5952475000000117
10.99638300000006,-1.2303310999999864,3.595247500000012
9.525092166666726,-1.2526716999999863,3.5601407666666787
8.053801333333391,-1.2750122999999862,3.5250340333333448
6.582510500000057,-1.2973528999999864,3.489927300000011
6.582510500000057,-1.2973528999999864,3.489927300000011
5.717608466666725,-1.418630666666653,3.3558834333333447
4.852706433333393,-1.53990843333332,3.2218395666666777
3.987804400000059,-1.6611861999999868,3.087795700000011
3.987804400000059,-1.6611861999999868,3.0877957000000102
4.358020766666727,-1.7601233333333202,3.071838133333344
4.728237133333395,-1.8590604666666535,3.0558805666666777
5.098453500000063,-1.957997599999987,3.039923000000011
5.098453500000063,-1.957997599999987,3.039923000000011
6.081441666666728,-2.1335311999999864,3.1037533333333447
7.064429833333393,-2.309064799999986,3.167583666666678
8.047418000000059,-2.4845983999999857,3.231414000000011
8.047418000000057,-2.4845983999999857,3.2314140000000102
10.482548000000058,-2.2611919999999857,3.390990033333344
12.917678000000059,-2.0377855999999857,3.550566066666678
15.35280800000006,-1.8143791999999859,3.7101421000000117
15.352808000000062,-1.8143791999999859,3.7101421000000117
15.703875333333395,-1.313310533333319,3.2569463000000116
16.05494266666673,-0.8122418666666521,2.8037505000000116
16.406010000000062,-0.3111731999999854,2.350554700000011
16.40601000000006,-0.3111731999999854,2.350554700000011
15.812387000000058,-0.8856467999999854,1.7345912833333443
15.218764000000057,-1.4601203999999852,1.1186278666666776
14.625141000000056,-2.034593999999985,0.5026644500000108
14.625141000000056,-2.0345939999999847,0.5026644500000108
13.460236000000057,-1.9037417333333184,0.6398998133333441
12.295331000000056,-1.772889466666652,0.7771351766666775
11.130426000000057,-1.6420371999999854,0.9143705400000108
9.43892053333339,-1.080329625666652,1.1856497600000109
7.747415066666723,-0.5186220513333187,1.4569289800000107
6.0559096000000565,0.04308552300001467,1.7282082000000107
6.0559096000000565,0.04308552300001467,1.7282082000000107
6.0559096000000565,0.04308552300001467,1.7282082000000107
6.598467966666724,-0.3207477513333186,1.5207594000000109
7.14102633333339,-0.6845810256666519,1.313310600000011
7.683584700000058,-1.0484142999999853,1.105861800000011
7.683584700000058,-1.048414299999985,1.1058618000000113
7.935714800000057,-1.121819299999985,1.0867126333333446
8.187844900000057,-1.1952242999999847,1.0675634666666778
8.439975000000057,-1.2686292999999846,1.048414300000011
8.439975000000057,-1.2686292999999846,1.0484143000000108
8.864447000000057,-1.6228879999999846,1.0228821666666776
9.288919000000055,-1.9771466999999847,0.9973500333333444
9.713391000000055,-2.331405399999985,0.9718179000000111
9.713391000000053,-2.3314053999999853,0.9718179000000111
10.597442333333385,-2.334596933333319,1.1856497333333444
11.481493666666717,-2.337788466666652,1.3994815666666778
12.365545000000049,-2.340979999999986,1.6133134000000109
12.365545000000049,-2.340979999999986,1.6133134000000109
12.44533300000005,-2.162254899999986,1.6356540666666775
12.52512100000005,-1.983529799999986,1.657994733333344
12.60490900000005,-1.8048046999999858,1.6803354000000106
12.60490900000005,-1.8048046999999858,1.6803354000000106
12.017669000000053,-1.5016102666666524,1.5558660666666775
11.430429000000053,-1.1984158333333188,1.4313967333333444
10.843189000000054,-0.8952213999999854,1.306927400000011
10.843189000000054,-0.8952213999999854,1.306927400000011
10.476164333333386,-0.6654319466666521,1.2430970333333444
10.109139666666719,-0.4356424933333187,1.1792666666666776
9.74211500000005,-0.20585303999998542,1.1154363000000107
9.74211500000005,-0.2058530399999854,1.1154363000000107
8.720828666666717,-0.5250050599999854,1.0643719666666775
7.699542333333383,-0.8441570799999853,1.0133076333333442
6.67825600000005,-1.1633090999999853,0.9622433000000109
6.67825600000005,-1.1633090999999853,0.9622433000000109
6.83144900000005,-1.5654406666666516,1.2526716333333443
6.98464200000005,-1.9675722333333179,1.5430999666666778
7.137835000000049,-2.3697037999999844,1.833528300000011
7.137835000000048,-2.369703799999984,1.833528300000011
7.702734000000047,-2.2292768666666505,2.270766600000011
8.267633000000046,-2.0888499333333175,2.7080049000000113
8.832532000000045,-1.948422999999984,3.1452432000000115
8.832532000000045,-1.948422999999984,3.1452432000000115
8.921894333333379,-1.9548060666666507,3.3239682666666783
9.011256666666712,-1.9611891333333176,3.502693333333345
9.100619000000046,-1.9675721999999842,3.681418400000012
9.100619000000046,-1.9675721999999842,3.681418400000012
9.668710000000047,-2.021827999999984,3.726099733333345
10.236801000000048,-2.076083799999984,3.7707810666666783
10.804892000000047,-2.130339599999984,3.8154624000000115
10.804892000000047,-2.130339599999984,3.8154624000000115
10.804892000000047,-2.130339599999984,3.8154624000000115
10.750636000000048,-1.8558688666666507,3.655886366666678
10.696380000000048,-1.5813981333333176,3.4963103333333447
10.642124000000047,-1.3069273999999842,3.336734300000012
10.81127433333338,-1.3228850333333175,3.055880533333345
10.980424666666712,-1.3388426666666506,2.7750267666666786
11.149575000000043,-1.354800299999984,2.494173000000012
11.149575000000043,-1.354800299999984,2.494173000000012
11.408088333333376,-1.4409713333333174,1.9867213000000117
11.66660166666671,-1.5271423666666506,1.4792696000000116
11.925115000000043,-1.613313399999984,0.9718179000000114
11.925115000000043,-1.613313399999984,0.9718179000000114
11.925115000000043,-1.613313399999984,0.9718179000000114
11.83256066666671,-1.5973558333333173,0.9558602900000115
11.740006333333378,-1.5813982666666506,0.9399026800000114
11.647452000000046,-1.565440699999984,0.9239450700000114
10.603825000000045,-1.0611804933333173,1.013307646666678
9.560198000000044,-0.5569202866666506,1.1026702233333445
