accx,accy,accz
-1.0867126,4.437809,8.32508
-1.0867126,4.437809,8.32508
-1.05160588,4.444192,8.286782
-1.0164991599999997,4.450575,8.248484
-0.9813924399999999,4.456958000000001,8.210186
-0.9813924399999999,4.456958,8.210186
-0.8664977133333331,4.393127566666667,8.076141999999999
-0.7516029866666666,4.329297133333334,7.942097999999999
-0.6367082599999999,4.265466700000001,7.8080539999999985
-0.63670826,4.265466700000001,7.8080539999999985
-0.53777114,4.0420603,7.565498533333332
-0.43883402000000005,3.8186538999999997,7.322943066666665
-0.33989690000000006,3.5952474999999993,7.080387599999998
-0.22181065300000005,3.1452431666666656,6.758044066666666
-0.10372440600000005,2.6952388333333324,6.435700533333333
0.01436184099999995,2.245234499999999,6.113357000000001
0.01436184099999995,2.2452344999999987,6.113357000000001
-0.18032088933333343,2.021828066666665,5.775055833333334
-0.3750036196666667,1.7984216333333318,5.436754666666668
-0.56968635,1.5750151999999986,5.0984535000000015
-0.56968635,1.5750151999999986,5.0984535000000015
-1.3611833666666666,0.6207506666666653,4.766535433333334
-2.1526803833333332,-0.333513866666668,4.434617366666665
-2.9441774000000005,-1.2877784000000014,4.102699299999998
-2.9441773999999996,-1.2877784000000012,4.102699299999998
-4.1058907666666675,-2.5516202666666676,4.147380533333332
-5.267604133333333,-3.8154621333333343,4.192061766666666
-6.429317500000001,-5.0793040000000005,4.236743000000001
-6.429317500000001,-5.0793040000000005,4.236743000000001
-7.3452839999999995,-5.015473666666668,4.042060233333334
-8.261250499999997,-4.951643333333334,3.847377466666668
-9.177216999999997,-4.887813000000001,3.6526947000000014
-9.177216999999997,-4.887813000000001,3.6526947000000014
-10.683613999999997,-5.889950333333334,2.682472600000002
-12.190010999999997,-6.892087666666666,1.7122505000000021
-13.696407999999996,-7.894224999999999,0.7420284000000019
-13.09640233333333,-7.910182566666665,0.046277033333335216
-12.496396666666664,-7.926140133333331,-0.6494743333333316
-11.896391,-7.942097699999998,-1.3452256999999983
-11.896391,-7.942097699999998,-1.3452256999999983
-11.896391,-7.942097699999998,-1.3452256999999983
-11.484684999999999,-7.696350799999998,-1.5175677999999981
-11.072978999999998,-7.450603899999997,-1.689909899999998
-10.661273,-7.204856999999997,-1.8622519999999978
-10.661273,-7.204856999999997,-1.8622519999999978
-10.029352333333334,-6.5250631333333295,-1.4856526333333313
-9.397431666666664,-5.845269266666663,-1.1090532666666648
-8.765510999999996,-5.165475399999997,-0.7324538999999982
-8.765510999999995,-5.165475399999997,-0.7324538999999982
-8.692105666666661,-4.986750266666664,-0.9207535666666647
-8.618700333333328,-4.80802513333333,-1.1090532333333314
-8.545294999999994,-4.629299999999996,-1.297352899999998
-8.545294999999994,-4.629299999999996,-1.297352899999998
-8.672955999999996,-4.9133453333333295,-1.4154391666666646
-8.800616999999997,-5.197390666666664,-1.5335254333333312
-8.928277999999997,-5.481435999999998,-1.6516116999999981
-8.928277999999999,-5.481435999999998,-1.6516116999999981
-8.835723999999999,-5.248454999999997,-1.5750151999999982
-8.74317,-5.015473999999997,-1.4984186999999982
-8.650616,-4.782492999999997,-1.4218221999999983
-8.650616,-4.782492999999998,-1.4218221999999983
-8.631466666666666,-4.549511999999997,-1.6037388666666648
-8.612317333333332,-4.316530999999998,-1.7856555333333315
-8.593167999999999,-4.083549999999998,-1.9675721999999982
-8.593167999999999,-4.083549999999998,-1.9675721999999982
-8.615508666666665,-3.831419866666664,-1.9675721999999982
-8.637849333333333,-3.5792897333333307,-1.9675721999999982
-8.66019,-3.3271595999999968,-1.9675721999999982
-8.66019,-3.3271595999999968,-1.9675721999999982
-8.765510166666667,-3.1069447333333304,-1.9675721999999982
-8.870830333333336,-2.886729866666664,-1.9675721999999982
-8.976150500000003,-2.6665149999999973,-1.9675721999999982
-8.870830333333336,-2.714387833333331,-1.9579976333333313
-8.765510166666667,-2.762260666666664,-1.9484230666666644
-8.66019,-2.810133499999997,-1.9388484999999978
-8.66019,-2.810133499999997,-1.9388484999999978
-8.717637333333334,-2.8228995999999973,-1.9165078333333312
-8.775084666666666,-2.8356656999999976,-1.8941671666666646
-8.832532,-2.848431799999998,-1.871826499999998
-8.832532,-2.848431799999998,-1.871826499999998
-8.953809666666666,-2.8101335333333313,-1.7122505333333313
-9.075087333333334,-2.7718352666666646,-1.5526745666666646
-9.196365,-2.733536999999998,-1.393098599999998
-9.196365,-2.733536999999998,-1.393098599999998
-9.148492333333332,-2.490981433333331,-1.1696921666666646
-9.100619666666665,-2.2484258666666643,-0.9462857333333311
-9.052746999999997,-2.0058702999999976,-0.7228792999999977
-9.052746999999995,-2.0058702999999976,-0.7228792999999977
-9.02721483333333,-2.385661266666664,-1.0196906666666645
-9.001682666666666,-2.7654522333333307,-1.3165020333333313
-8.976150500000001,-3.1452431999999972,-1.613313399999998
-8.976150500000003,-3.1452431999999972,-1.613313399999998
-8.889979333333335,-3.1643922666666637,-1.689909899999998
-8.803808166666665,-3.1835413333333307,-1.766506399999998
-8.717636999999996,-3.2026903999999976,-1.8431028999999979
-8.717636999999995,-3.2026903999999976,-1.8431028999999979
-8.759126999999996,-3.129285433333331,-1.6643777333333312
-8.800616999999997,-3.055880466666664,-1.4856525666666647
-8.842106999999997,-2.9824754999999974,-1.3069273999999982
-8.848489999999998,-2.9346027333333304,-1.2654376666666647
-8.854872999999998,-2.886729966666664,-1.2239479333333314
-8.861255999999997,-2.8388571999999974,-1.1824581999999981
-8.861255999999997,-2.8388571999999974,-1.1824581999999981
-8.889979666666667,-2.8931129999999974,-1.2909698666666645
-8.918703333333335,-2.9473687999999973,-1.399481533333331
-8.947427000000005,-3.0016245999999973,-1.5079931999999976
-8.947427000000005,-3.0016245999999973,-1.5079931999999976
-8.880405000000003,-3.0207737333333307,-1.4505458666666644
-8.813383000000002,-3.0399228666666644,-1.3930985333333312
-8.746361,-3.0590719999999982,-1.335651199999998
-8.746361,-3.0590719999999982,-1.335651199999998
-8.762318333333333,-3.049497433333331,-1.3292681666666646
-8.778275666666666,-3.0399228666666644,-1.3228851333333314
-8.794232999999998,-3.0303482999999978,-1.3165020999999981
-8.794232999999998,-3.0303482999999978,-1.3165020999999981
-8.835723,-3.0526889999999973,-1.3899070333333314
-8.877213,-3.075029699999997,-1.4633119666666647
-8.918703,-3.097370399999997,-1.536716899999998
-8.918703,-3.097370399999997,-1.536716899999998
-8.899554,-3.0909872666666636,-1.5111847333333313
-8.880404999999998,-3.0846041333333303,-1.4856525666666647
-8.861255999999997,-3.078220999999997,-1.460120399999998
-8.861255999999997,-3.078220999999997,-1.460120399999998
-8.848489666666666,-3.10694473333333,-1.4505458666666646
-8.835723333333334,-3.135668466666663,-1.4409713333333312
-8.822957000000002,-3.164392199999996,-1.431396799999998
-8.822957000000002,-3.164392199999996,-1.431396799999998
-8.851680666666667,-3.1771582666666625,-1.4824610999999976
-8.880404333333331,-3.189924333333329,-1.5335253999999978
-8.909127999999995,-3.202690399999996,-1.584589699999998
-8.86444683333333,-3.183541333333329,-1.514376266666665
-8.819765666666664,-3.164392266666662,-1.4441628333333316
-8.775084499999998,-3.1452431999999955,-1.3739493999999983
-8.775084499999998,-3.1452431999999955,-1.3739493999999983
-8.771893333333331,-3.142051633333329,-1.383523966666665
-8.768702166666664,-3.138860066666662,-1.3930985333333317
-8.765510999999996,-3.1356684999999955,-1.4026730999999986
-8.765510999999995,-3.1356684999999955,-1.4026730999999988
-8.819766666666663,-3.1612006666666623,-1.434588299999999
-8.87402233333333,-3.186732833333329,-1.4665034999999993
-8.928277999999997,-3.2122649999999964,-1.4984186999999995
-8.928277999999999,-3.2122649999999964,-1.4984186999999995
-8.896362666666667,-3.1612006666666628,-1.4441628666666662
-8.864447333333333,-3.1101363333333296,-1.3899070333333328
-8.832532,-3.0590719999999965,-1.3356511999999994
-8.832532,-3.0590719999999965,-1.3356511999999994
-8.829340333333334,-3.0399228666666627,-1.3356511999999994
-8.826148666666668,-3.020773733333329,-1.3356511999999994
-8.822957000000002,-3.0016245999999955,-1.3356511999999994
-8.822957000000002,-3.0016245999999955,-1.3356511999999994
-8.832531666666668,-3.030348299999995,-1.3452257666666663
-8.842106333333334,-3.0590719999999956,-1.3548003333333332
-8.851681,-3.087795699999996,-1.3643748999999998
-8.851681,-3.087795699999996,-1.3643749000000003
-8.851681,-3.0590719999999956,-1.338842733333334
-8.851681,-3.030348299999995,-1.3133105666666673
-8.851681,-3.0016245999999946,-1.2877784000000008
-8.838915,-2.992050066666662,-1.2782038333333339
-8.826149000000001,-2.9824755333333286,-1.268629266666667
-8.813383000000002,-2.9729009999999954,-1.2590547000000003
-8.813383000000002,-2.9729009999999954,-1.2590547
-8.813383000000002,-2.9729009999999954,-1.2590547
-8.851681333333334,-2.988858666666662,-1.3069274999999998
-8.889979666666667,-3.0048163333333284,-1.3548002999999997
-8.928277999999999,-3.0207739999999945,-1.4026730999999995
-8.886787999999997,-3.0207739999999945,-1.3484172666666663
-8.845297999999998,-3.0207739999999945,-1.2941614333333331
-8.803807999999997,-3.0207739999999945,-1.2399055999999997
-8.803807999999995,-3.0207739999999945,-1.2399055999999995
-8.810190999999994,-3.0143908666666612,-1.2782038333333328
-8.816573999999994,-3.008007733333328,-1.316502066666666
-8.822956999999993,-3.0016245999999946,-1.3548002999999993
-8.822956999999993,-3.0016245999999946,-1.3548002999999993
-8.848489333333326,-3.027156733333328,-1.3739494333333326
-8.874021666666659,-3.0526888666666614,-1.393098566666666
-8.899553999999993,-3.0782209999999943,-1.4122476999999993
-8.899553999999993,-3.0782209999999943,-1.4122476999999993
-8.896362333333323,-3.0718379999999947,-1.405864666666666
-8.893170666666656,-3.065454999999995,-1.3994816333333329
-8.889978999999988,-3.0590719999999956,-1.3930985999999994
-8.889978999999988,-3.0590719999999956,-1.3930985999999994
-8.893170666666656,-3.0877957333333286,-1.4377798666666661
-8.896362333333323,-3.1165194666666616,-1.4824611333333326
-8.899553999999993,-3.1452431999999946,-1.5271423999999991
-8.899553999999993,-3.1452431999999946,-1.5271423999999991
-8.883596333333324,-3.151626199999995,-1.5016102333333325
-8.867638666666657,-3.158009199999995,-1.476078066666666
-8.85168099999999,-3.164392199999995,-1.4505458999999992
-8.85168099999999,-3.164392199999995,-1.4505458999999992
-8.838914999999991,-3.129285466666662,-1.4282052666666658
-8.826148999999992,-3.094178733333329,-1.4058646333333324
-8.813382999999993,-3.0590719999999956,-1.3835239999999989
-8.806999666666657,-3.0335398333333288,-1.3835239999999989
-8.800616333333323,-3.008007666666662,-1.3835239999999989
-8.79423299999999,-2.9824754999999947,-1.3835239999999989
-8.79423299999999,-2.9824754999999947,-1.3835239999999989
-8.826148333333322,-2.976092499999995,-1.3962900666666656
-8.858063666666654,-2.9697094999999956,-1.4090561333333322
-8.889978999999988,-2.963326499999996,-1.4218221999999987
-8.889978999999988,-2.963326499999996,-1.4218221999999987
-8.88359633333332,-2.99843323333333,-1.4026730999999986
-8.877213666666654,-3.033539966666664,-1.3835239999999986
-8.870830999999987,-3.0686466999999973,-1.3643748999999987
-8.870830999999987,-3.0686466999999973,-1.364374899999999
-8.851681666666655,-3.0526891333333306,-1.3707579333333324
-8.832532333333324,-3.036731566666664,-1.3771409666666656
-8.813382999999993,-3.0207739999999976,-1.3835239999999989
-8.813382999999993,-3.020773999999998,-1.3835239999999989
-8.848489666666659,-3.0175823999999984,-1.3930985666666658
-8.883596333333324,-3.014390799999999,-1.4026731333333327
-8.918702999999992,-3.0111991999999987,-1.4122476999999993
-8.918702999999992,-3.0111991999999987,-1.4122476999999993
-8.883596333333324,-3.0303483666666655,-1.3994815999999994
-8.848489666666659,-3.0494975333333323,-1.3867154999999993
-8.813382999999993,-3.068646699999999,-1.3739493999999992
-8.826148999999992,-3.078221266666666,-1.3899069999999993
-8.838914999999991,-3.087795833333333,-1.4058645999999995
-8.85168099999999,-3.0973703999999995,-1.4218221999999996
-8.85168099999999,-3.0973704000000004,-1.4218221999999996
-8.858064333333322,-3.119711,-1.4090561333333331
-8.864447666666655,-3.1420516,-1.3962900666666664
-8.870830999999987,-3.1643921999999995,-1.3835239999999998
-8.870830999999987,-3.1643921999999995,-1.3835240000000002
-8.854872999999989,-3.129285466666666,-1.3803324666666665
-8.838914999999991,-3.094178733333333,-1.377140933333333
-8.822956999999993,-3.059072,-1.3739493999999997
-8.822956999999993,-3.059072,-1.3739493999999997
-8.83253166666666,-3.0431144,-1.3803324666666663
-8.842106333333325,-3.0271567999999998,-1.386715533333333
-8.85168099999999,-3.0111991999999996,-1.3930985999999999
-8.85168099999999,-3.0111991999999996,-1.3930985999999999
-8.880404666666658,-3.036731366666666,-1.4090561999999995
-8.909128333333328,-3.062263533333333,-1.4250137999999997
-8.937851999999998,-3.0877956999999996,-1.4409713999999998
-8.937851999999998,-3.0877956999999996,-1.4409713999999998
-8.90274533333333,-3.043114399999999,-1.4058646666666668
-8.867638666666661,-2.9984330999999984,-1.3707579333333335
-8.832531999999992,-2.953751799999998,-1.3356512000000003
-8.832531999999992,-2.953751799999998,-1.3356512000000003
-8.835723666666658,-2.947368766666665,-1.361183366666667
-8.838915333333324,-2.9409857333333314,-1.3867155333333336
-8.84210699999999,-2.934602699999998,-1.4122477000000002
-8.86763899999999,-2.9537518666666642,-1.405864666666667
-8.89317099999999,-2.9729010333333306,-1.3994816333333338
-8.918702999999992,-2.9920501999999964,-1.3930986000000003
-8.918702999999992,-2.9920501999999964,-1.3930986000000003
-8.918702999999992,-2.9920501999999964,-1.3930986000000003
-8.912319999999992,-2.9729010333333297,-1.389907066666667
-8.905936999999993,-2.953751866666664,-1.3867155333333336
-8.899553999999993,-2.9346026999999975,-1.3835240000000002
-8.88678799999999,-2.9122621333333307,-1.3867155333333336
-8.87402199999999,-2.8899215666666636,-1.389907066666667
-8.861255999999988,-2.8675809999999964,-1.3930986000000007
-8.861255999999988,-2.8675809999999964,-1.3930986000000007
-8.883596666666655,-2.90907073333333,-1.399481633333334
-8.905937333333322,-2.9505604666666634,-1.4058646666666672
-8.92827799999999,-2.9920501999999964,-1.4122477000000007
-8.92827799999999,-2.9920501999999964,-1.4122477000000007
-8.918703333333324,-3.00481623333333,-1.4058646666666672
-8.909128666666659,-3.0175822666666634,-1.399481633333334
-8.899553999999993,-3.030348299999997,-1.3930986000000007
-8.899553999999993,-3.030348299999997,-1.3930986000000007
-8.893170666666657,-2.9952416333333303,-1.3930986000000007
-8.886787333333324,-2.9601349666666636,-1.3930986000000007
-8.88040399999999,-2.9250282999999975,-1.3930986000000007
-8.88040399999999,-2.9250282999999975,-1.3930986000000007
-8.899553333333325,-2.9282197666666634,-1.402673133333334
-8.918702666666661,-2.9314112333333298,-1.4122476666666675
-8.937851999999998,-2.9346026999999957,-1.421822200000001
-8.937851999999998,-2.9346026999999957,-1.421822200000001
-8.912319999999998,-2.9377942666666628,-1.3835239333333342
-8.886787999999997,-2.9409858333333303,-1.3452256666666675
-8.861255999999996,-2.9441773999999974,-1.3069274000000008
-8.861255999999997,-2.9441773999999974,-1.3069274000000008
-8.858064333333331,-2.9409858333333303,-1.3260765666666676
-8.854872666666665,-2.9377942666666628,-1.3452257333333344
-8.851681,-2.9346026999999957,-1.3643749000000012
-8.889979333333335,-2.947368799999996,-1.3803325000000009
-8.928277666666668,-2.9601348999999963,-1.396290100000001
-8.966576000000003,-2.9729009999999967,-1.412247700000001
-8.966576000000005,-2.9729009999999967,-1.412247700000001
-8.95061833333334,-2.9473688666666633,-1.3771409333333346
-8.934660666666675,-2.9218367333333304,-1.342034166666668
-8.91870300000001,-2.896304599999997,-1.3069274000000013
-8.91870300000001,-2.896304599999997,-1.3069274000000013
-8.915511333333342,-2.899496066666664,-1.3292680666666679
-8.912319666666674,-2.90268753333333,-1.3516087333333344
-8.909128000000004,-2.905878999999997,-1.373949400000001
-8.909128000000004,-2.905878999999997,-1.373949400000001
-8.925086000000007,-2.9282196666666636,-1.3707579000000012
-8.94104400000001,-2.95056033333333,-1.3675664000000014
-8.957002000000012,-2.9729009999999967,-1.3643749000000016
-8.957002000000012,-2.9729009999999967,-1.364374900000002
-8.93466100000001,-2.9601348999999963,-1.3324597000000018
-8.912320000000008,-2.947368799999996,-1.300544500000002
-8.889979000000006,-2.9346026999999957,-1.268629300000002
-8.889979000000006,-2.9346026999999957,-1.2686293000000022
-8.896362000000005,-2.9218366666666626,-1.2877784000000023
-8.902745000000005,-2.90907063333333,-1.3069275000000025
-8.909128000000004,-2.896304599999997,-1.3260766000000028
-8.912319666666674,-2.899496066666664,-1.3101190000000027
-8.915511333333342,-2.90268753333333,-1.2941614000000026
-8.91870300000001,-2.905878999999997,-1.2782038000000024
-8.91870300000001,-2.905878999999997,-1.2782038000000024
-8.91870300000001,-2.905878999999997,-1.2782038000000024
-8.950618333333344,-2.90268753333333,-1.2909699000000023
-8.982533666666676,-2.899496066666664,-1.3037360000000024
-9.014449000000008,-2.896304599999997,-1.3165021000000026
-8.96019300000001,-2.8580062999999973,-1.2622462666666692
-8.905937000000009,-2.819707999999997,-1.2079904333333358
-8.851681000000008,-2.7814096999999975,-1.1537346000000024
-8.851681000000008,-2.7814096999999975,-1.1537346000000024
-8.88678800000001,-2.816516466666664,-1.1952243333333357
-8.921895000000012,-2.85162323333333,-1.236714066666669
-8.957002000000012,-2.8867299999999965,-1.2782038000000024
-8.957002000000012,-2.8867299999999965,-1.2782038000000024
-8.944235666666678,-2.9218367333333295,-1.2558631666666689
-8.931469333333345,-2.956943466666663,-1.2335225333333355
-8.91870300000001,-2.992050199999996,-1.2111819000000021
-8.91870300000001,-2.992050199999996,-1.2111819000000021
-8.915511333333342,-2.9505604666666625,-1.2047988666666687
-8.912319666666674,-2.9090707333333294,-1.1984158333333355
-8.909128000000004,-2.867580999999996,-1.1920328000000022
-8.909128000000004,-2.867580999999996,-1.192032800000002
-8.921894333333341,-2.8643893999999963,-1.211181900000002
-8.934660666666678,-2.8611977999999962,-1.2303310000000018
-8.947427000000014,-2.8580061999999966,-1.2494801000000018
-8.947427000000014,-2.8580061999999966,-1.2494801000000015
-8.937852333333346,-2.8835383666666634,-1.2271394666666682
-8.928277666666679,-2.9090705333333307,-1.2047988333333348
-8.91870300000001,-2.9346026999999975,-1.1824582000000012
-8.91870300000001,-2.934602699999998,-1.1824582000000012
-8.91870300000001,-2.9282196999999983,-1.192032766666668
-8.91870300000001,-2.9218366999999987,-1.2016073333333344
-8.91870300000001,-2.915453699999999,-1.2111819000000008
-8.915511333333342,-2.918645233333333,-1.2111819000000008
-8.912319666666674,-2.9218367666666665,-1.2111819000000008
-8.909128000000004,-2.9250282999999997,-1.2111819000000008
-8.909128000000004,-2.9250282999999997,-1.2111819000000008
-8.93146883333334,-2.9250282999999997,-1.227139500000001
-8.953809666666677,-2.9250282999999997,-1.243097100000001
-8.976150500000012,-2.9250282999999997,-1.2590547000000012
-8.976150500000012,-2.9250282999999997,-1.2590547000000012
-8.960193000000011,-2.9218367666666665,-1.2303310000000014
-8.94423550000001,-2.918645233333333,-1.2016073000000016
-8.928278000000008,-2.915453699999999,-1.1728836000000016
-8.928278000000008,-2.915453699999999,-1.1728836000000018
-8.928278000000008,-2.902687566666666,-1.1792666666666685
-8.928278000000008,-2.8899214333333325,-1.1856497333333353
-8.928278000000008,-2.8771552999999987,-1.192032800000002
-8.928278000000008,-2.8771552999999987,-1.192032800000002
-8.931469333333341,-2.915453599999999,-1.201607333333335
-8.934660666666675,-2.9537518999999985,-1.2111818666666683
-8.937852000000008,-2.992050199999998,-1.2207564000000013
-8.937852000000008,-2.992050199999998,-1.2207564000000013
-8.94423533333334,-2.9824756333333315,-1.1952242666666681
-8.950618666666672,-2.972901066666665,-1.1696921333333348
-8.957002000000005,-2.9633264999999978,-1.1441600000000016
-8.957002000000003,-2.9633264999999973,-1.1441600000000014
-8.93785266666667,-2.9250282666666636,-1.1473515333333346
-8.918703333333335,-2.8867300333333303,-1.1505430666666678
-8.899554000000002,-2.8484317999999966,-1.153734600000001
-8.918703333333335,-2.8580062999999964,-1.153734600000001
-8.93785266666667,-2.8675807999999967,-1.153734600000001
-8.957002000000003,-2.8771552999999965,-1.153734600000001
-8.957002000000003,-2.8771552999999965,-1.153734600000001
-8.947427333333335,-2.9090705333333298,-1.137777000000001
-8.937852666666666,-2.9409857666666634,-1.1218194000000008
-8.928277999999999,-2.9729009999999967,-1.1058618000000007
-8.928277999999999,-2.9729009999999967,-1.1058618000000007
-8.918703333333333,-2.9377943333333296,-1.1090533000000007
-8.909128666666668,-2.902687666666663,-1.1122448000000007
-8.899554000000002,-2.867580999999996,-1.115436300000001
-8.899554000000002,-2.867580999999996,-1.115436300000001
-8.912320000000001,-2.889921566666663,-1.1058617333333345
-8.925086,-2.9122621333333303,-1.096287166666668
-8.937852,-2.9346026999999975,-1.0867126000000014
-8.937851999999998,-2.934602699999998,-1.0867126000000014
-8.953809666666663,-2.9282196999999983,-1.109053266666668
-8.969767333333328,-2.9218366999999987,-1.1313939333333345
-8.985724999999993,-2.915453699999999,-1.153734600000001
-8.985724999999993,-2.915453699999999,-1.153734600000001
-8.950617999999992,-2.8867299666666657,-1.1122448333333346
-8.91551099999999,-2.8580062333333323,-1.070755066666668
-8.88040399999999,-2.8292824999999984,-1.0292653000000016
-8.88040399999999,-2.8292824999999984,-1.0292653000000018
-8.893170333333323,-2.842048666666665,-1.0579889666666686
-8.905936666666657,-2.854814833333332,-1.0867126333333352
-8.918702999999992,-2.867580999999998,-1.115436300000002
-8.918702999999992,-2.867580999999998,-1.1154363000000023
-8.934660666666657,-2.921836766666665,-1.1282024000000022
-8.950618333333322,-2.976092533333332,-1.1409685000000023
-8.966575999999987,-3.0303482999999987,-1.1537346000000024
-8.93146933333332,-2.9984330999999984,-1.1282024333333356
-8.896362666666652,-2.966517899999998,-1.102670266666669
-8.861255999999987,-2.934602699999998,-1.0771381000000024
-8.861255999999988,-2.934602699999998,-1.0771381000000024
-8.893171333333322,-2.9154535666666646,-1.115436333333336
-8.925086666666658,-2.8963044333333308,-1.1537345666666694
-8.957001999999994,-2.877155299999997,-1.1920328000000031
-8.957001999999994,-2.877155299999997,-1.1920328000000031
-8.94104399999999,-2.9090705333333307,-1.1633091333333365
-8.925085999999988,-2.940985766666664,-1.1345854666666697
-8.909127999999987,-2.972900999999997,-1.105861800000003
-8.909127999999987,-2.972900999999997,-1.105861800000003
-8.902744999999987,-2.985667066666664,-1.121819400000003
-8.896361999999987,-2.9984331333333305,-1.1377770000000031
-8.889978999999988,-3.011199199999997,-1.1537346000000033
-8.889978999999988,-3.011199199999997,-1.1537346000000035
-8.886787333333322,-2.992050066666664,-1.1377770000000034
-8.883595666666656,-2.9729009333333303,-1.1218194000000032
-8.88040399999999,-2.953751799999997,-1.1058618000000031
-8.88040399999999,-2.953751799999997,-1.105861800000003
-8.886787333333324,-2.9346027333333304,-1.1186278666666696
-8.893170666666657,-2.9154536666666644,-1.1313939333333363
-8.899553999999993,-2.8963045999999983,-1.1441600000000027
-8.899553999999993,-2.8963045999999983,-1.1441600000000027
-8.902745333333323,-2.8835384666666646,-1.1345854333333358
-8.905936666666655,-2.8707723333333313,-1.125010866666669
-8.909127999999987,-2.858006199999998,-1.1154363000000023
-8.893170666666654,-2.8420486333333312,-1.0867126333333355
-8.877213333333321,-2.826091066666665,-1.0579889666666686
-8.861255999999988,-2.8101334999999987,-1.029265300000002
-8.861255999999988,-2.810133499999999,-1.0292653000000018
-8.861255999999988,-2.810133499999999,-1.0292653000000018
-8.842106666666657,-2.8707723999999986,-1.0739465666666683
-8.822957333333326,-2.9314112999999984,-1.118627833333335
-8.803807999999995,-2.9920501999999978,-1.1633091000000015
-8.784658999999994,-3.001624799999998,-1.1665006000000016
-8.765509999999994,-3.0111993999999984,-1.1696921000000016
-8.746360999999995,-3.020773999999999,-1.1728836000000014
-8.746360999999995,-3.0207739999999994,-1.1728836000000011
-8.733594999999996,-3.062263733333333,-1.1473514333333346
-8.720828999999997,-3.103753466666666,-1.121819266666668
-8.708062999999997,-3.1452431999999995,-1.0962871000000012
-8.708062999999997,-3.1452431999999995,-1.0962871000000012
-8.62827483333333,-3.1516261999999995,-1.0292652000000013
-8.548486666666664,-3.1580092,-0.9622433000000012
-8.468698499999997,-3.1643922,-0.8952214000000013
-8.468698499999997,-3.1643922,-0.8952214000000013
-8.519762999999998,-3.3782240333333333,-0.9207535666666679
-8.570827499999998,-3.592055866666666,-0.9462857333333345
-8.621891999999997,-3.8058876999999995,-0.9718179000000012
-8.621891999999999,-3.8058876999999995,-0.9718179000000012
-9.078279333333333,-4.080358466666667,-1.125010866666668
-9.534666666666668,-4.354829233333334,-1.2782038333333348
-9.991054000000002,-4.629300000000001,-1.4313968000000017
-9.991054000000004,-4.629300000000001,-1.4313968000000017
-9.675093333333336,-4.721854133333334,-1.373949433333335
-9.35913266666667,-4.814408266666668,-1.3165020666666685
-9.043172000000004,-4.906962400000001,-1.2590547000000019
-9.043172000000004,-4.906962400000001,-1.2590547000000019
-8.596359333333337,-4.989941933333334,-1.1345854000000017
-8.149546666666671,-5.072921466666667,-1.0101161000000018
-7.702734000000004,-5.155901,-0.8856468000000017
-7.750606666666671,-4.973984333333334,-0.8441570466666685
-7.798479333333337,-4.792067666666668,-0.8026672933333353
-7.846352000000004,-4.610151000000002,-0.761177540000002
-7.846352000000004,-4.610151000000003,-0.761177540000002
-8.165504000000004,-4.514405333333335,-0.840965560000002
-8.484656000000005,-4.418659666666668,-0.9207535800000018
-8.803808000000005,-4.322914000000002,-1.0005416000000018
-8.803808000000005,-4.322914000000001,-1.0005416000000018
-8.676147333333338,-4.252700566666667,-1.0803296000000018
-8.548486666666673,-4.182487133333333,-1.160117600000002
-8.420826000000007,-4.112273699999999,-1.239905600000002
-8.420826000000007,-4.112273699999999,-1.239905600000002
-8.22614323333334,-4.029294166666666,-1.2111819333333351
-8.031460466666674,-3.9463146333333334,-1.1824582666666685
-7.836777700000009,-3.8633351000000005,-1.1537346000000017
-7.836777700000009,-3.8633351000000005,-1.1537346000000017
-7.999545133333342,-3.8186538000000003,-1.1856497666666685
-8.162312566666676,-3.7739725000000006,-1.2175649333333354
-8.325080000000009,-3.7292912000000005,-1.2494801000000022
-8.325080000000009,-3.7292912000000005,-1.2494801000000022
-8.819765666666676,-3.7356743,-1.2399055333333353
-9.314451333333343,-3.7420573999999998,-1.2303309666666686
-9.809137000000009,-3.748440499999999,-1.2207564000000017
-10.750635666666675,-3.362266533333333,-1.2654377000000019
-11.69213433333334,-2.9760925666666664,-1.3101190000000018
-12.633633000000005,-2.5899186,-1.354800300000002
-12.633633000000003,-2.5899185999999994,-1.354800300000002
-11.299577333333337,-2.219702266666666,-0.9047959600000022
-9.965521666666671,-1.8494859333333327,-0.4547916200000022
-8.631466000000005,-1.4792695999999992,-0.00478728000000217
-8.631466000000005,-1.4792695999999992,-0.004787280000002169
-9.103811000000004,-1.4218221999999991,-0.3015986533333355
-9.576156000000003,-1.364374799999999,-0.5984100266666689
-10.048501000000003,-1.306927399999999,-0.8952214000000022
-10.048501000000002,-1.306927399999999,-0.8952214000000022
-10.083607666666667,-1.6133133333333325,-0.7420284333333355
-10.118714333333335,-1.9196992666666661,-0.5888354666666689
-10.153821,-2.2260851999999995,-0.4356425000000022
-10.153821,-2.2260852,-0.4356425000000022
-8.510188333333334,-2.0633177000000003,-0.13563961000000221
-6.866555666666668,-1.9005502000000003,0.16436327999999778
-5.2229230000000015,-1.7377827000000003,0.46436616999999775
-5.2229230000000015,-1.7377827000000003,0.46436616999999786
-4.932494666666668,-2.1431057333333334,0.32713080666666444
-4.642066333333335,-2.548428766666666,0.1898954433333311
-4.351638000000001,-2.953751799999999,0.05266007999999778
-4.351638000000001,-2.953751799999999,0.05266007999999778
-5.561224100000001,-3.298435999999999,-0.24734281333333552
-6.770810200000002,-3.6431201999999985,-0.5473457066666688
-7.980396300000002,-3.987804399999998,-0.8473486000000022
-8.816574533333336,-4.128231366666664,-0.6973471533333356
-9.652752766666667,-4.26865833333333,-0.547345706666669
-10.488931000000001,-4.4090852999999965,-0.3973442600000024
-10.488931000000001,-4.4090852999999965,-0.39734426000000234
-10.488931000000001,-4.4090852999999965,-0.39734426000000234
-11.248512666666668,-4.5016393999999975,-0.5888354733333356
-12.008094333333334,-4.5941934999999985,-0.7803266866666689
-12.767676000000002,-4.6867475999999995,-0.9718179000000022
-13.323000666666667,-4.635683266666667,-1.2079904000000021
-13.878325333333335,-4.584618933333332,-1.444162900000002
-14.43365,-4.533554599999999,-1.6803354000000017
-14.43365,-4.533554599999998,-1.6803354000000017
-12.320863666666668,-4.591001866666664,-1.2207564900000019
-10.208077333333335,-4.64844913333333,-0.7611775800000018
-8.095291000000003,-4.705896399999996,-0.3015986700000019
-8.095291000000005,-4.705896399999996,-0.3015986700000019
-10.217652000000005,-4.437808766666662,-1.3675664466666688
-12.340013000000004,-4.169721133333328,-2.4335342233333352
-14.462374000000002,-3.901633499999994,-3.499502000000002
-14.462374000000002,-3.901633499999994,-3.499502000000002
-13.942156000000002,-3.429288466666661,-2.9952417666666684
-13.421938000000003,-2.9569434333333278,-2.490981533333335
-12.901720000000003,-2.4845983999999945,-1.9867213000000017
-12.901720000000003,-2.4845983999999945,-1.9867213000000017
-10.460207100000003,-2.577152499999995,-1.3899070266666682
-8.018694200000004,-2.6697065999999956,-0.793092753333335
-5.577181300000004,-2.7622606999999957,-0.1962784800000017
-5.577181300000004,-2.7622606999999957,-0.1962784800000017
-5.545266200000005,-2.593110133333329,-0.5728778533333351
-5.513351100000006,-2.423959566666662,-0.9494772266666685
-5.481436000000007,-2.254808999999995,-1.326076600000002
-5.481436000000007,-2.254808999999995,-1.326076600000002
-6.387827666666674,-2.1686379333333288,-1.326076600000002
-7.2942193333333405,-2.082466866666662,-1.326076600000002
-8.200611000000007,-1.9962957999999957,-1.326076600000002
-8.200611000000007,-1.9962957999999957,-1.326076600000002
-9.04955533333334,-2.152680299999995,-1.313310533333335
-9.898499666666673,-2.309064799999995,-1.3005444666666683
-10.747444000000007,-2.4654492999999946,-1.2877784000000017
-10.747444000000007,-2.4654492999999946,-1.2877784000000019
-10.600634000000007,-2.321830866666662,-1.1377769466666685
-10.453824000000006,-2.1782124333333286,-0.987775493333335
-10.307014000000008,-2.0345939999999954,-0.8377740400000016
-10.307014000000008,-2.0345939999999954,-0.8377740400000014
-9.713391333333341,-2.1494887333333286,-0.5792609080000014
-9.119768666666674,-2.264383466666662,-0.3207477760000015
-8.52614600000001,-2.379278199999995,-0.062234644000001525
-8.52614600000001,-2.379278199999995,-0.062234644000001525
-9.47083600000001,-2.494172966666662,-0.004787281333334853
-10.415526000000009,-2.609067733333329,0.05266008133333181
-11.360216000000008,-2.723962499999996,0.11010744399999849
-11.360216000000008,-2.7239624999999967,0.11010744399999849
-13.249596333333342,-2.63140843333333,-0.6654319706666681
-15.138976666666673,-2.5388543666666634,-1.4409713853333346
-17.028357000000007,-2.4463002999999968,-2.2165108000000013
-17.02835700000001,-2.4463002999999968,-2.2165108000000013
-13.396406666666676,-2.953751966666663,-1.2813953666666678
-9.764456333333342,-3.46120363333333,-0.34627993333333446
-6.132506000000009,-3.968655299999997,0.5888354999999988
-6.132506000000009,-3.968655299999997,0.5888354999999988
-5.5835645000000085,-4.25908353333333,0.6175591666666654
-5.034623000000008,-4.549511766666663,0.646282833333332
-4.485681500000008,-4.839939999999997,0.6750064999999986
-4.485681500000007,-4.839939999999997,0.6750064999999986
-5.248454866666674,-4.332488399999997,0.630325213333332
-6.011228233333341,-3.8250367999999964,0.5856439266666654
-6.774001600000008,-3.3175851999999963,0.5409626399999988
-6.774001600000008,-3.3175851999999963,0.5409626399999988
-8.570827400000008,-3.7612064666666627,0.2856410366666655
-10.367653200000008,-4.204827733333329,0.030319433333332164
-12.164479000000009,-4.648448999999996,-0.2250021700000012
-12.164479000000009,-4.648448999999996,-0.2250021700000012
-13.345341666666677,-4.705896399999996,-0.9111789800000013
-14.526204333333345,-4.763343799999997,-1.5973557900000015
-15.707067000000011,-4.820791199999998,-2.2835326000000014
-15.707067000000011,-4.820791199999998,-2.2835326000000014
-14.973017000000011,-4.900579266666665,-2.0856583666666677
-14.23896700000001,-4.980367333333332,-1.8877841333333338
-13.504917000000008,-5.060155399999998,-1.6899099000000002
-13.504917000000008,-5.060155399999999,-1.6899099
-12.537886666666674,-5.111219733333333,-1.8654435333333332
-11.57085633333334,-5.162284066666667,-2.0409771666666665
-10.603826000000007,-5.213348400000001,-2.2165108
-10.603826000000007,-5.213348400000001,-2.2165108
-12.400652000000008,-4.425042866666668,-2.6888557333333334
-14.19747800000001,-3.636737333333334,-3.1612006666666663
-15.994304000000009,-2.8484318,-3.6335455999999997
-15.994304000000009,-2.8484318,-3.6335455999999997
-13.396406333333344,-2.5707695333333334,-2.4303425339999998
-10.798508666666677,-2.2931072666666665,-1.227139468
-8.200611000000011,-2.0154449999999997,-0.023936401999999912
-8.200611000000011,-2.0154449999999997,-0.023936401999999912
-7.725074533333344,-2.028211033333333,-0.46755770133333324
-7.249538066666676,-2.0409770666666667,-0.9111790006666666
-6.774001600000008,-2.0537431,-1.3548002999999997
-7.348475066666675,-2.063317666666667,-1.6165049666666664
-7.922948533333343,-2.072892233333334,-1.8782096333333331
-8.49742200000001,-2.0824668000000006,-2.1399142999999996
-8.49742200000001,-2.0824668000000006,-2.1399143
-8.49742200000001,-2.0824668000000006,-2.1399143
-9.154875333333344,-2.264383433333334,-1.8399114
-9.812328666666678,-2.4463000666666677,-1.5399085000000001
-10.469782000000011,-2.628216700000001,-1.2399056000000002
-10.469782000000011,-2.6282167000000016,-1.2399056000000002
-11.171916333333344,-2.3186393000000014,-1.2909699333333335
-11.874050666666678,-2.009061900000001,-1.3420342666666667
-12.576185000000011,-1.6994845000000007,-1.3930986
-11.184682333333344,-1.5111848000000005,-0.9558603216666667
-9.793179666666676,-1.3228851000000004,-0.5186220433333334
-8.401677000000008,-1.1345854000000004,-0.081383765
-8.401677000000008,-1.1345854000000006,-0.081383765
-8.401677000000008,-1.1345854000000006,-0.081383765
-8.905937000000009,-1.4601204666666676,-0.0015957600000000016
-9.410197000000009,-1.7856555333333344,0.078192245
-9.914457000000008,-2.1111906000000014,0.15798025
-9.914457000000008,-2.111190600000002,0.15798025
-11.762347333333343,-2.251617466666668,-0.34627993333333335
-13.610237666666677,-2.3920443333333345,-0.8505401166666666
-15.458128000000011,-2.532471200000001,-1.3548003
-15.458128000000011,-2.532471200000001,-1.3548003
-12.994274333333344,-2.7271539666666675,-0.96862636
-10.530420666666677,-2.921836733333334,-0.5824524200000001
-8.066567000000008,-3.1165195000000003,-0.19627848000000006
-8.066567000000008,-3.1165195000000003,-0.19627848000000006
-6.9240028333333425,-3.633545733333334,0.052660079999999915
-5.781438666666676,-4.150571966666668,0.3015986399999999
-4.63887450000001,-4.667598200000001,0.5505371999999998
-4.63887450000001,-4.667598200000001,0.5505372
-5.5197340000000095,-4.638874466666668,0.4484085666666666
-6.400593500000009,-4.6101507333333345,0.3462799333333333
-7.281453000000009,-4.581427000000001,0.24415129999999996
-7.281453000000009,-4.581427,0.24415129999999996
-10.319780333333341,-4.654832,-0.4228764333333334
-13.358107666666674,-4.728236999999999,-1.0899041666666667
-16.396435000000007,-4.801641999999999,-1.7569319000000003
-15.860259666666673,-4.891004666666665,-1.4888442000000002
-15.32408433333334,-4.980367333333331,-1.2207565
-14.787909000000008,-5.069729999999997,-0.9526688000000001
-14.787909000000008,-5.069729999999997,-0.9526688000000001
-14.787909000000008,-5.069729999999997,-0.9526688000000001
-13.859176666666675,-4.9739843333333305,-1.0803296
-12.930444333333341,-4.878238666666664,-1.2079903999999997
-12.001712000000007,-4.782492999999996,-1.3356511999999998
-11.807029333333341,-5.06653833333333,-1.948423133333333
-11.612346666666676,-5.350583666666664,-2.561195066666667
-11.417664000000011,-5.634628999999998,-3.1739670000000006
-11.417664000000011,-5.634628999999998,-3.1739669999999998
-13.275128333333344,-4.591001833333331,-3.426097
-15.132592666666676,-3.547374666666664,-3.6782269999999997
-16.99005700000001,-2.503747499999997,-3.9303569999999994
-16.99005700000001,-2.503747499999997,-3.9303569999999994
-13.485768000000009,-2.3633205999999976,-2.277149566666666
-9.981479000000009,-2.222893699999998,-0.6239421333333329
-6.47719000000001,-2.0824667999999984,1.0292653000000003
-6.47719000000001,-2.0824667999999984,1.0292653000000003
-6.186761666666676,-2.088849866666665,0.17712940000000033
-5.8963333333333425,-2.0952329333333313,-0.6750064999999997
-5.60590500000001,-2.1016159999999977,-1.5271423999999996
-5.60590500000001,-2.1016159999999977,-1.5271423999999996
-6.729320166666677,-2.1399142666666644,-1.7313996999999997
-7.852735333333345,-2.178212533333331,-1.9356569999999997
-8.976150500000012,-2.216510799999998,-2.1399142999999996
-8.976150500000012,-2.216510799999998,-2.1399143
-9.505943000000011,-2.3473630999999977,-1.8207622666666667
-10.03573550000001,-2.478215399999998,-1.5016102333333334
-10.56552800000001,-2.6090676999999984,-1.1824582000000001
-10.56552800000001,-2.6090676999999984,-1.1824582000000001
-10.990000000000009,-2.3026817666666646,-1.1409684333333334
-11.414472000000009,-1.9962958333333312,-1.0994786666666665
-11.838944000000007,-1.6899098999999975,-1.0579888999999998
-11.838944000000007,-1.6899098999999975,-1.0579888999999998
-10.409143000000007,-1.6228879999999979,-0.5984100133333331
-8.979342000000008,-1.5558660999999983,-0.13883112666666642
-7.549541000000008,-1.4888441999999984,0.3207477600000002
-7.549541000000008,-1.4888441999999984,0.3207477600000002
-9.03998100000001,-1.8111876999999987,0.1771293586666669
-10.530421000000011,-2.133531199999999,0.03351095733333357
-12.020861000000012,-2.4558746999999985,-0.11010744399999976
-12.020861000000016,-2.4558746999999985,-0.11010744399999976
-13.827261333333349,-2.398427333333331,-0.8154333626666666
-15.633661666666683,-2.340979966666664,-1.5207592813333335
-17.440062000000015,-2.283532599999997,-2.2260852000000004
-13.524066666666684,-2.61864223333333,-1.361183276666667
-9.608071333333351,-2.953751866666663,-0.49628135333333345
-5.692076000000018,-3.288861499999996,0.36862057000000004
-5.692076000000018,-3.288861499999996,0.36862057000000004
-5.692076000000018,-3.288861499999996,0.36862057000000004
-4.511213666666684,-4.058017866666662,0.7324538466666667
-3.3303513333333505,-4.82717423333333,1.0962871233333333
-2.149489000000017,-5.5963305999999955,1.4601204
-3.71014233333335,-5.07292123333333,1.01649912
-5.270795666666683,-4.549511866666664,0.57287784
-6.831449000000017,-4.026102499999996,0.12925655999999996
-6.831449000000017,-4.026102499999996,0.12925655999999996
-9.83466933333335,-4.096315999999995,-0.3367053933333333
-12.837889666666683,-4.166529499999996,-0.8026673466666666
-15.841110000000016,-4.236742999999996,-1.2686293
-15.841110000000016,-4.236742999999996,-1.2686293
-15.74536433333335,-4.34206313333333,-1.1633091333333334
-15.649618666666683,-4.447383266666663,-1.0579889666666666
-15.553873000000015,-4.552703399999998,-0.9526688
-15.553873000000015,-4.552703399999998,-0.9526688
-14.30279733333335,-4.747386166666664,-1.038839833333333
-13.051721666666685,-4.9420689333333305,-1.1250108666666665
-11.80064600000002,-5.136751699999997,-1.2111819
-11.80064600000002,-5.136751699999997,-1.2111819
-12.381502666666686,-5.385690233333331,-2.376086733333333
-12.962359333333353,-5.634628766666663,-3.540991566666667
-13.54321600000002,-5.883567299999996,-4.7058964
-13.54321600000002,-5.883567299999996,-4.7058964
-13.903857666666687,-4.616533799999996,-4.262275166666668
-14.264499333333353,-3.3495002999999968,-3.818653933333335
-14.625141000000019,-2.0824667999999975,-3.3750327000000016
-14.625141000000019,-2.082466799999997,-3.3750327000000016
-11.33468380000002,-2.060126199999997,-1.6707609000000012
-8.044226600000021,-2.0377855999999963,0.033510899999998976
-4.753769400000021,-2.015444999999996,1.7377826999999992
-4.686747400000022,-2.187787066666663,0.7292623333333325
-4.619725400000022,-2.3601291333333294,-0.27925803333333415
-4.5527034000000235,-2.5324711999999963,-1.2877784000000008
-4.552703400000024,-2.5324711999999963,-1.2877784000000008
-4.552703400000024,-2.5324711999999963,-1.2877784000000008
-5.8388859333333585,-2.5420457999999964,-1.5813982666666675
-7.125068466666693,-2.551620399999996,-1.8750181333333338
-8.411251000000027,-2.561194999999996,-2.168638
-8.411251000000027,-2.561194999999996,-2.168638
-9.761264000000025,-2.7111963999999964,-1.830336866666667
-11.111277000000024,-2.8611977999999962,-1.4920357333333338
-12.461290000000025,-3.0111991999999965,-1.1537346000000004
-12.308097333333357,-2.5548118666666633,-0.8345825600000003
-12.15490466666669,-2.0984245333333305,-0.5154305200000003
-12.001712000000024,-1.642037199999997,-0.19627848000000023
-12.001712000000024,-1.642037199999997,-0.19627848000000023
-11.251704666666692,-1.568632199999997,0.033510963333333116
-10.50169733333336,-1.495227199999997,0.2633004066666665
-9.751690000000025,-1.4218221999999974,0.4930898499999998
-9.751690000000023,-1.4218221999999974,0.4930898499999998
-10.198503000000025,-1.6165048999999974,0.3111732066666664
-10.645316000000026,-1.8111875999999976,0.1292565633333331
-11.092129000000028,-2.0058702999999976,-0.05266008000000022
-11.092129000000028,-2.005870299999998,-0.05266008000000022
-12.116607000000029,-2.3505545333333315,-0.639899786666667
-13.141085000000027,-2.6952387666666646,-1.2271394933333337
-14.165563000000027,-3.039922999999998,-1.8143792000000005
-14.165563000000027,-3.039922999999998,-1.8143792000000005
-10.99638333333336,-3.521842499999998,-0.9813924333333338
-7.827203666666693,-4.003761999999998,-0.14840566666666719
-4.658024000000027,-4.485681499999999,0.6845810999999995
-4.658024000000026,-4.485681499999999,0.6845810999999995
-4.456958100000026,-4.495256099999998,0.7675606199999995
-4.255892200000026,-4.5048306999999985,0.8505401399999996
-4.054826300000024,-4.514405299999999,0.9335196599999995
-4.054826300000024,-4.5144053,0.9335196599999995
-5.542074533333358,-4.233551533333333,0.4452170733333329
-7.029322766666691,-3.9526977666666667,-0.04308551333333377
-8.516571000000022,-3.671844,-0.5313881000000004
-10.329354666666688,-4.156955066666666,-0.6016015333333337
-12.142138333333355,-4.642066133333333,-0.6718149666666671
-13.95492200000002,-5.127177199999998,-0.7420284000000005
-13.95492200000002,-5.1271771999999975,-0.7420284000000005
-13.94215600000002,-4.970792799999997,-1.1250108333333337
-13.929390000000021,-4.814408399999997,-1.507993266666667
-13.916624000000022,-4.658023999999997,-1.8909757000000005
-13.916624000000022,-4.658023999999997,-1.8909757000000005
-13.27193666666669,-4.926111666666663,-1.6707608333333337
-12.627249333333358,-5.194199333333329,-1.450545966666667
-11.982562000000025,-5.4622869999999955,-1.2303311000000001
-11.982562000000025,-5.4622869999999955,-1.2303311000000001
-13.297468333333358,-5.341009166666662,-2.3122564000000003
-14.61237466666669,-5.219731333333329,-3.3941817000000007
-15.927281000000024,-5.098453499999997,-4.476107
-15.927281000000024,-5.098453499999997,-4.476107
-15.691108666666691,-3.9846129666666634,-3.8505691
-15.454936333333357,-2.8707724333333293,-3.2250312
-15.218764000000023,-1.7569318999999954,-2.5994933
-15.218764000000023,-1.7569318999999954,-2.5994933
-12.107031766666688,-1.8686350999999959,-1.3388427999999999
-8.995299533333354,-1.980338299999996,-0.07819229999999984
-5.88356730000002,-2.0920414999999966,1.1824582000000001
-5.810162366666687,-1.8877841999999962,0.42287643333333347
-5.736757433333353,-1.6835268999999962,-0.3367053333333332
-5.66335250000002,-1.479269599999996,-1.0962870999999998
-5.663352500000019,-1.479269599999996,-1.0962871
-5.663352500000019,-1.479269599999996,-1.0962871
-6.129314433333351,-1.677143866666663,-1.1633090333333336
-6.595276366666684,-1.8750181333333298,-1.2303309666666669
-7.061238300000016,-2.0728923999999966,-1.2973529000000004
-8.085716200000016,-2.152680366666663,-1.1218193100000005
-9.110194100000017,-2.2324683333333293,-0.9462857200000006
-10.134672000000018,-2.3122562999999956,-0.7707521300000005
-10.134672000000018,-2.3122562999999956,-0.7707521300000005
-10.575101666666685,-2.1048074999999957,-0.5888354766666671
-11.015531333333351,-1.8973586999999956,-0.40691882333333385
-11.455961000000018,-1.6899098999999957,-0.22500217000000053
-11.455961000000018,-1.6899098999999957,-0.22500217000000053
-10.827231666666684,-1.5782066999999962,-0.07500072333333385
-10.19850233333335,-1.4665034999999964,0.07500072333333281
-9.569773000000014,-1.3548002999999966,0.22500216999999947
-9.569773000000014,-1.3548002999999966,0.22500216999999947
-10.954892666666682,-1.7313996666666631,0.12925656533333282
-12.34001233333335,-2.10799903333333,0.033510960666666145
-13.725132000000018,-2.4845983999999968,-0.062234644000000526
-13.725132000000018,-2.484598399999997,-0.062234644000000526
-14.835781333333351,-2.481406933333331,-0.6845810960000005
-15.946430666666684,-2.478215466666665,-1.3069275480000004
-17.057080000000013,-2.475023999999999,-1.9292740000000004
-17.057080000000013,-2.475023999999999,-1.9292740000000006
-12.97512566666668,-2.8739639999999986,-0.9526688000000006
-8.893171333333347,-3.2729039999999983,0.023936399999999303
-4.811217000000013,-3.671843999999998,1.0005415999999994
-4.811217000000013,-3.671843999999998,1.0005415999999994
-4.249509333333347,-3.879292799999998,0.8760722999999994
-3.687801666666681,-4.086741599999999,0.7516029999999994
-3.126094000000014,-4.294190399999999,0.6271336999999994
-4.900579333333348,-4.156954999999999,0.14202263333333262
-6.675064666666681,-4.019719599999998,-0.3430884333333341
-8.449550000000015,-3.882484199999998,-0.8281995000000008
-8.449550000000015,-3.882484199999998,-0.8281995000000008
-8.449550000000015,-3.882484199999998,-0.8281995000000008
-10.437867000000013,-4.326105599999998,-0.9207536000000007
-12.426184000000013,-4.769726999999999,-1.0133077000000006
-14.414501000000014,-5.213348399999998,-1.1058618000000007
-14.641099000000013,-5.427180133333331,-1.5686322000000008
-14.867697000000014,-5.6410118666666635,-2.031402600000001
-15.094295000000015,-5.854843599999996,-2.4941730000000013
-15.094295000000015,-5.854843599999996,-2.4941730000000013
-14.098540666666679,-5.6505862666666635,-2.289915733333334
-13.102786333333347,-5.44632893333333,-2.085658466666667
-12.107032000000013,-5.2420715999999965,-1.8814012000000002
-12.107032000000013,-5.2420715999999965,-1.8814012000000002
-12.79959166666668,-5.337817399999998,-2.6697066000000014
-13.492151333333348,-5.433563199999998,-3.4580120000000023
-14.184711000000016,-5.529308999999999,-4.246317400000003
-14.184711000000016,-5.5293090000000005,-4.246317400000003
-14.101731666666682,-4.578235933333334,-3.7452488000000037
-14.018752333333348,-3.6271628666666675,-3.2441802000000037
-13.935773000000014,-2.676089800000001,-2.7431116000000038
-13.935773000000014,-2.676089800000001,-2.7431116000000038
-11.698517233333348,-2.4877900666666677,-1.6069304000000038
-9.461261466666683,-2.2994903333333347,-0.4707492000000036
-7.224005700000016,-2.111190600000002,0.6654319999999965
-7.5878391333333495,-2.0505517333333345,0.02712796666666306
-7.951672566666683,-1.9899128666666677,-0.6111760666666703
-8.315506000000015,-1.9292740000000006,-1.2494801000000038
-8.315506000000015,-1.9292740000000006,-1.2494801000000038
-8.97295933333335,-1.9579976666666674,-1.511184733333337
-9.630412666666684,-1.9867213333333342,-1.7728893666666699
-10.287866000000017,-2.015445000000001,-2.034594000000003
-10.287866000000017,-2.015445000000001,-2.0345940000000025
-10.508080666666684,-2.053743200000001,-1.670760733333336
-10.72829533333335,-2.0920414000000007,-1.3069274666666695
-10.948510000000015,-2.1303396000000006,-0.9430942000000028
-10.948510000000015,-2.1303396,-0.9430942000000028
-10.409143000000014,-2.0218279666666663,-0.6430913076666694
-9.869776000000016,-1.9133163333333332,-0.34308841533333606
-9.330409000000017,-1.8048046999999998,-0.043085523000002755
-9.330409000000019,-1.8048046999999998,-0.043085523000002755
-8.835723333333352,-1.6548032333333331,0.17712936133333057
-8.341037666666685,-1.5048017666666664,0.3973442456666639
-7.846352000000018,-1.3548002999999997,0.6175591299999972
-7.846352000000018,-1.3548002999999997,0.6175591299999971
-9.984670666666684,-1.6771438666666663,0.26010887333333044
-12.122989333333349,-1.999487433333333,-0.09734138333333621
-14.261308000000014,-2.321831,-0.4547916400000029
-14.261308000000014,-2.321831,-0.4547916400000029
-14.325138333333348,-2.4367256666666672,-0.834582560000003
-14.38896866666668,-2.551620333333334,-1.2143734800000032
-14.452799000000013,-2.666515000000001,-1.5941644000000033
-14.452799000000013,-2.666515000000001,-1.5941644000000033
-11.22936366666668,-2.790984333333334,-0.9239451333333366
-8.00592833333335,-2.9154536666666675,-0.25372586666667
-4.782493000000015,-3.0399230000000004,0.4164933999999966
-4.788876000000015,-3.6080135,0.4101103533333299
-4.795259000000016,-4.1761040000000005,0.4037273066666632
-4.801642000000016,-4.744194500000001,0.3973442599999965
-4.801642000000016,-4.744194500000002,0.3973442599999964
-6.486764666666683,-4.597384666666668,0.19627849333332972
-8.17188733333335,-4.450574833333334,-0.004787273333336932
-9.857010000000017,-4.303765000000001,-0.2058530400000036
-9.857010000000017,-4.303765,-0.2058530400000036
-11.775113500000016,-4.871855533333333,-0.4803237933333369
-13.693217000000013,-5.439946066666667,-0.7547945466666702
-15.611320500000012,-6.0080366,-1.0292653000000036
-15.611320500000012,-6.0080366,-1.0292653000000036
-15.687917000000013,-5.401647866666665,-1.3707579000000034
-15.764513500000014,-4.795259133333332,-1.7122505000000032
-15.841110000000015,-4.188870399999998,-2.0537431000000033
-15.841110000000015,-4.188870399999998,-2.0537431000000033
-14.101731333333348,-4.7761099333333314,-1.7218250333333363
-12.36235266666668,-5.363349466666666,-1.3899069666666695
-10.622974000000013,-5.950589,-1.0579889000000027
-10.622974000000013,-5.950589,-1.0579889000000027
-12.314480000000012,-5.634628666666667,-2.4941729333333367
-14.005986000000012,-5.318668333333332,-3.9303569666666704
-15.697492000000011,-5.002707999999998,-5.366541000000004
-15.697492000000011,-5.0027079999999975,-5.366541000000004
-14.082582666666676,-4.128231399999998,-3.946314600000003
-12.467673333333343,-3.2537547999999976,-2.5260882000000024
-10.852764000000008,-2.3792781999999977,-1.105861800000002
-8.832531833333341,-2.350554566666664,-0.4867068666666685
-6.812299666666675,-2.3218309333333305,0.13244806666666484
-4.792067500000009,-2.293107299999997,0.7516029999999981
-4.79206750000001,-2.293107299999997,0.7516029999999981
-4.79206750000001,-2.293107299999997,0.7516029999999981
-5.570798333333343,-2.270766599999997,-0.0941498333333352
-6.349529166666677,-2.2484258999999973,-0.9399026666666686
-7.128260000000012,-2.2260851999999978,-1.7856555000000018
-8.484656333333344,-2.2643834666666645,-1.878209600000002
-9.841052666666679,-2.302681733333331,-1.970763700000002
-11.197449000000011,-2.340979999999998,-2.0633178000000023
-11.197449000000011,-2.340979999999998,-2.0633178000000023
-11.97617966666668,-2.2707665333333313,-1.7122505666666692
-12.754910333333344,-2.200553066666665,-1.3611833333333359
-13.53364100000001,-2.130339599999999,-1.0101161000000027
-13.533641000000008,-2.130339599999999,-1.0101161000000027
-12.071925000000007,-1.728208089999999,-0.7133047366666693
-10.610209000000008,-1.326076579999999,-0.41649337333333586
-9.148493000000007,-0.923945069999999,-0.11968201000000252
-9.148493000000007,-0.923945069999999,-0.11968201000000252
-8.727212233333342,-1.2335225466666657,0.1324480799999975
-8.305931466666674,-1.5431000233333325,0.3845781699999975
-7.884650700000008,-1.8526774999999993,0.6367082599999975
-7.884650700000006,-1.8526774999999993,0.6367082599999975
-10.536803800000007,-2.0856583999999994,0.1388311199999975
-13.188956900000006,-2.318639299999999,-0.3590460200000025
-15.841110000000006,-2.551620199999999,-0.8569231600000026
-15.841110000000006,-2.551620199999999,-0.8569231600000026
-14.053859000000005,-2.5356626333333323,-0.8377740400000026
-12.266608000000005,-2.519705066666665,-0.8186249200000026
-10.479357000000006,-2.503747499999998,-0.7994758000000027
-10.479357000000006,-2.503747499999998,-0.7994758000000027
-7.932523733333338,-3.0590719999999982,-0.2920241000000027
-5.385690466666671,-3.614396499999998,0.21542759999999736
-2.8388572000000045,-4.169720999999998,0.7228792999999974
-3.633545800000005,-4.198444766666665,0.38776968666666406
-4.428234400000005,-4.227168533333331,0.05266007333333075
-5.222923000000006,-4.255892299999998,-0.2824495400000026
-5.222923000000006,-4.255892299999998,-0.2824495400000026
-7.329326000000006,-4.198444866666665,-0.18670393333333593
-9.435729000000007,-4.1409974333333315,-0.0909583266666693
-11.542132000000008,-4.083549999999998,0.004787279999997378
-11.542132000000008,-4.083549999999998,0.004787279999997377
-13.626195000000008,-4.2718496666666645,-0.681389513333336
-15.710258000000008,-4.460149333333331,-1.3675663066666697
-17.794321000000007,-4.6484489999999985,-2.0537431000000033
-17.79432100000001,-4.6484489999999985,-2.0537431000000033
-16.706012333333344,-4.725045566666665,-1.7696978333333364
-15.617703666666676,-4.801642133333332,-1.4856525666666698
-14.529395000000008,-4.8782387,-1.201607300000003
-14.529395000000008,-4.8782387,-1.201607300000003
-13.000657000000006,-5.277178633333333,-1.3356511666666695
-11.471919000000007,-5.676118566666666,-1.469695033333336
-9.943181000000008,-6.0750585,-1.6037389000000026
-9.943181000000008,-6.0750585,-1.6037389000000026
-12.301714666666678,-5.446329133333332,-2.8611979333333366
-14.660248333333348,-4.817599766666665,-4.118656966666671
-17.018782000000016,-4.188870399999998,-5.376116000000004
-14.736845000000017,-3.413330933333331,-3.690993253333337
-12.454908000000017,-2.637791466666664,-2.0058705066666698
-10.172971000000018,-1.8622519999999978,-0.32074776000000266
-10.17297100000002,-1.8622519999999978,-0.32074776000000266
-10.17297100000002,-1.8622519999999978,-0.32074776000000266
-8.459124566666686,-1.8494858999999977,-0.09734135666666933
-6.745278133333354,-1.8367197999999976,0.126065046666664
-5.031431700000021,-1.8239536999999977,0.34947144999999735
-6.215485466666686,-1.9388484666666643,-0.5601117666666694
-7.399539233333351,-2.053743233333331,-1.4696949833333361
-8.583593000000016,-2.1686379999999983,-2.379278200000003
-8.583593000000015,-2.1686379999999983,-2.3792782000000035
-9.572964333333347,-2.226085333333332,-2.33778846666667
-10.562335666666682,-2.2835326666666655,-2.296298733333337
-11.551707000000015,-2.3409799999999987,-2.2548090000000034
-11.551707000000015,-2.3409799999999987,-2.2548090000000034
-11.497451333333347,-2.3441715666666654,-1.7633148866666701
-11.44319566666668,-2.347363133333332,-1.2718207733333369
-11.388940000000012,-2.3505546999999987,-0.7803266600000036
-11.388940000000012,-2.3505546999999987,-0.7803266600000036
-10.23360966666668,-2.0409771999999986,-0.4771322533333369
-9.078279333333349,-1.7313996999999983,-0.1739378466666703
-7.922949000000017,-1.4218221999999983,0.12925655999999633
-7.922949000000017,-1.4218221999999983,0.12925655999999633
-7.705925566666683,-1.5239508666666648,0.32393929333332966
-7.48890213333335,-1.6260795333333313,0.518622026666663
-7.271878700000016,-1.728208199999998,0.7133047599999963
-10.568719133333351,-2.0505517333333314,0.2058530399999964
-13.865559566666684,-2.3728952666666645,-0.30159868000000356
-17.16240000000002,-2.695238799999997,-0.8090504000000035
-17.16240000000002,-2.695238799999997,-0.8090504000000035
-17.16240000000002,-2.695238799999997,-0.8090504000000035
-15.257062333333351,-2.679281199999997,-0.9718179000000036
-13.351724666666684,-2.663323599999997,-1.1345854000000037
-11.446387000000016,-2.6473659999999968,-1.2973529000000037
-8.915511500000015,-3.1739668666666634,-0.5154305000000038
-6.384636000000015,-3.70056773333333,0.2664918999999962
-3.8537605000000146,-4.227168599999997,1.0484142999999961
-3.8537605000000146,-4.227168599999998,1.048414299999996
-4.501639000000015,-4.297382066666664,0.7643690266666626
-5.149517500000015,-4.367595533333332,0.4803237533333294
-5.797396000000014,-4.437808999999999,0.19627847999999606
-5.797396000000014,-4.437809,0.19627847999999606
-7.827203000000015,-4.370786999999999,-0.16117178000000396
-9.857010000000015,-4.303764999999999,-0.518622040000004
-11.886817000000015,-4.236742999999999,-0.876072300000004
-11.886817000000015,-4.236742999999998,-0.876072300000004
-13.868751000000016,-4.645257666666665,-1.4345882666666707
-15.850685000000015,-5.053772333333331,-1.9931042333333375
-17.832619000000015,-5.462286999999997,-2.5516202000000043
-17.832619000000015,-5.462286999999997,-2.551620200000004
-16.361328000000018,-5.487818999999998,-2.286724100000004
-14.890037000000016,-5.513350999999999,-2.0218280000000033
-13.418746000000015,-5.538882999999999,-1.7569319000000032
-13.418746000000015,-5.538883000000001,-1.7569319000000032
-12.378310666666684,-5.679310000000001,-2.0250196000000034
-11.33787533333335,-5.819737000000001,-2.293107300000003
-10.297440000000018,-5.960164000000002,-2.561195000000003
-10.297440000000018,-5.960164000000002,-2.561195000000003
-12.378310666666685,-5.206965233333335,-3.43567156666667
-14.45918133333335,-4.453766466666669,-4.310148133333337
-16.540052000000014,-3.700567700000003,-5.184624700000005
-14.005985333333347,-3.1867329000000026,-3.4739698266666714
-11.471918666666681,-2.6728981000000025,-1.763314953333338
-8.937852000000017,-2.159063300000002,-0.052660080000004626
-8.937852000000017,-2.159063300000002,-0.052660080000004626
-7.833586133333349,-2.130339666666669,-0.269683443333338
-6.729320266666682,-2.101616033333336,-0.4867068066666714
-5.625054400000014,-2.072892400000003,-0.7037301700000048
-5.625054400000014,-2.072892400000003,-0.7037301700000048
-6.23782626666668,-1.9962959000000027,-1.153734480000005
-6.850598133333346,-1.9196994000000025,-1.6037387900000049
-7.463370000000012,-1.8431029000000023,-2.053743100000005
-7.463370000000012,-1.8431029000000023,-2.053743100000005
-7.974013000000014,-1.9292739333333355,-1.8462943333333381
-8.484656000000015,-2.015444966666669,-1.6388455666666715
-8.995299000000017,-2.101616000000002,-1.4313968000000046
-8.995299000000017,-2.101616000000002,-1.4313968000000046
-10.15701233333335,-2.0026789000000025,-1.3643749000000047
-11.318725666666685,-1.9037418000000024,-1.2973530000000046
-12.480439000000018,-1.8048047000000025,-1.2303311000000046
-12.480439000000018,-1.8048047000000025,-1.2303311000000046
-11.602771000000018,-1.5271424333333357,-0.9175621000000046
-10.725103000000018,-1.2494801666666688,-0.6047931000000046
-9.84743500000002,-0.9718179000000019,-0.2920241000000046
-9.93998900000002,-1.3707579333333353,-0.08776681333333798
-10.03254300000002,-1.7696979666666686,0.11649047333332868
-10.12509700000002,-2.168638000000002,0.32074775999999533
-10.12509700000002,-2.168638000000002,0.32074775999999533
-10.12509700000002,-2.168638000000002,0.32074775999999533
-12.738952333333353,-2.2356599333333356,-0.23138522666667125
-15.352807666666687,-2.302681866666669,-0.7835182133333379
-17.966663000000022,-2.369703800000002,-1.3356512000000045
-15.352807666666687,-2.2803412000000023,-1.188841266666671
-12.738952333333353,-2.1909786000000024,-1.0420313333333375
-10.12509700000002,-2.101616000000002,-0.895221400000004
-10.12509700000002,-2.101616000000002,-0.895221400000004
-7.95167200000002,-2.650557500000003,-0.419684900000004
-5.778247000000019,-3.199499000000003,0.05585159999999593
-3.6048220000000186,-3.748440500000003,0.5313880999999959
-3.6048220000000186,-3.748440500000003,0.5313880999999959
-4.3229140000000195,-3.93993166666667,0.17393785333332923
-5.041006000000019,-4.131422833333336,-0.18351239333333744
-5.75909800000002,-4.3229140000000035,-0.540962640000004
-5.75909800000002,-4.3229140000000035,-0.540962640000004
-7.50166800000002,-4.373978333333336,-0.540962640000004
-9.244238000000019,-4.425042666666669,-0.540962640000004
-10.986808000000018,-4.476107000000002,-0.540962640000004
-12.12937233333335,-4.894196100000001,-0.8377740266666707
-13.271936666666685,-5.312285200000001,-1.1345854133333373
-14.41450100000002,-5.7303743,-1.4313968000000041
-14.41450100000002,-5.7303743,-1.4313968000000041
-14.558119333333353,-5.280370066666667,-1.7952301333333374
-14.701737666666688,-4.830365833333335,-2.159063466666671
-14.845356000000022,-4.380361600000003,-2.522896800000004
-14.845356000000022,-4.380361600000003,-2.522896800000004
-13.654919000000021,-4.753769400000003,-2.1271482666666706
-12.46448200000002,-5.127177200000003,-1.731399733333337
-11.27404500000002,-5.500585000000004,-1.3356512000000038
-11.27404500000002,-5.500585000000004,-1.3356512000000038
-12.834698333333352,-4.836748800000003,-2.2611920333333377
-14.395351666666684,-4.172912600000004,-3.1867328666666714
-15.956005000000017,-3.5090764000000036,-4.112273700000005
-15.956005000000017,-3.5090764000000036,-4.112273700000006
-13.91024033333335,-3.0782212000000038,-2.9505603666666715
-11.864475666666685,-2.647366000000004,-1.7888470333333382
-9.81871100000002,-2.216510800000004,-0.6271337000000047
-9.81871100000002,-2.216510800000004,-0.6271337000000047
-8.650614866666686,-2.210127766666671,-0.7547945000000048
-7.482518733333353,-2.2037447333333375,-0.8824553000000049
-6.314422600000019,-2.197361700000004,-1.010116100000005
-6.850598066666687,-2.1877871333333374,-1.310119000000005
-7.386773533333354,-2.1782125666666707,-1.6101219000000049
-7.922949000000021,-2.1686380000000036,-1.9101248000000048
-7.922949000000021,-2.1686380000000036,-1.9101248000000048
-7.922949000000021,-2.1686380000000036,-1.9101248000000048
-8.58678500000002,-2.1845956000000037,-1.801613100000005
-9.250621000000018,-2.200553200000004,-1.693101400000005
-9.914457000000018,-2.216510800000004,-1.584589700000005
-10.460207000000018,-2.072892366666671,-1.5111847666666716
-11.005957000000018,-1.929273933333338,-1.437779833333338
-11.55170700000002,-1.7856555000000045,-1.3643749000000043
-11.55170700000002,-1.7856555000000045,-1.3643749000000043
-11.07297900000002,-1.619696466666671,-1.0324567900000043
-10.594251000000021,-1.4537374333333377,-0.7005386800000043
-10.115523000000023,-1.2877784000000043,-0.3686205700000043
-10.115523000000023,-1.2877784000000043,-0.3686205700000043
-9.796371000000024,-1.5335254666666707,-0.103724396666671
-9.477219000000023,-1.7792725333333372,0.1611717766666623
-9.158067000000022,-2.025019600000004,0.4260679499999956
-9.158067000000022,-2.025019600000004,0.4260679499999956
-11.085745333333355,-2.1718295000000034,0.15478873333332896
-13.013423666666688,-2.3186394000000035,-0.11649048333333771
-14.94110200000002,-2.465449300000003,-0.3877697000000044
-14.94110200000002,-2.465449300000003,-0.3877697000000044
-13.533641333333351,-2.32183086666667,-0.5026644333333378
-12.126180666666684,-2.178212433333337,-0.6175591666666712
-10.718720000000017,-2.034594000000004,-0.7324539000000044
-8.717637000000018,-2.5835354666666706,-0.22181066666667104
-6.716554000000019,-3.132476933333337,0.28883256666666235
-4.7154710000000195,-3.6814184000000036,0.7994757999999957
-4.715471000000019,-3.6814184000000036,0.7994757999999957
-4.715471000000019,-3.6814184000000036,0.7994757999999957
-5.634628766666684,-3.9558892666666696,0.627133713333329
-6.553786533333351,-4.230360133333336,0.4547916266666623
-7.472944300000019,-4.504831000000001,0.2824495399999956
-8.68253053333335,-4.603768000000001,0.3654290599999956
-9.892116766666684,-4.702705000000002,0.44840857999999556
-11.101703000000017,-4.801642000000002,0.5313880999999956
-11.101703000000017,-4.801642000000002,0.5313880999999956
-11.835752666666684,-5.2707955333333345,0.1356395999999956
-12.56980233333335,-5.739949066666668,-0.26010890000000436
-13.303852000000015,-6.209102600000001,-0.6558574000000044
-13.303852000000015,-6.209102600000001,-0.6558574000000044
-13.827261333333349,-5.312285400000001,-1.204798833333338
-14.350670666666682,-4.415468200000001,-1.7537402666666713
-14.874080000000015,-3.5186510000000015,-2.3026817000000044
-14.874080000000015,-3.5186510000000015,-2.3026817000000044
-13.40917233333335,-4.326105666666668,-1.7952300200000042
-11.944264666666683,-5.133560333333334,-1.287778340000004
-10.479357000000016,-5.941015000000003,-0.7803266600000037
-10.479357000000016,-5.941015000000003,-0.7803266600000037
-11.848519000000017,-5.771864333333336,-2.3473631066666703
-13.217681000000018,-5.602713666666669,-3.9143995533333373
-14.586843000000018,-5.433563000000002,-5.481436000000005
-14.586843000000018,-5.433563000000002,-5.481436000000005
-14.353862000000019,-4.211210800000003,-4.737811800000005
-14.120881000000018,-2.9888586000000026,-3.994187600000004
-13.887900000000018,-1.7665064000000028,-3.250563400000004
-13.887900000000018,-1.7665064000000028,-3.250563400000003
-11.542132666666683,-1.8239537666666694,-2.021828100000003
-9.196365333333349,-1.881401133333336,-0.7930928000000032
-6.850598000000015,-1.9388485000000026,0.4356424999999968
-7.192090666666682,-1.989912833333336,-0.4771322333333366
-7.5335833333333495,-2.040977166666669,-1.3899069666666701
-7.875076000000017,-2.0920415000000028,-2.302681700000004
-7.875076000000017,-2.0920415000000023,-2.302681700000004
-8.574019000000016,-2.1016160666666686,-2.2228937333333367
-9.272962000000016,-2.1111906333333352,-2.14310576666667
-9.971905000000016,-2.1207652000000023,-2.063317800000003
-9.971905000000016,-2.1207652000000023,-2.063317800000003
-10.377228000000017,-2.009061966666669,-1.6899099333333363
-10.782551000000018,-1.8973587333333357,-1.3165020666666696
-11.187874000000017,-1.7856555000000023,-0.943094200000003
-11.187874000000017,-1.7856555000000023,-0.943094200000003
-10.855956000000019,-1.4760780533333355,-0.7707521166666697
-10.524038000000017,-1.166500606666669,-0.5984100333333364
-10.192120000000015,-0.8569231600000023,-0.42606795000000314
-10.192120000000013,-0.8569231600000023,-0.42606795000000314
-9.339984000000014,-1.038839806666669,-0.07500073333333653
-8.487848000000016,-1.2207564533333357,0.2760664833333301
-7.635712000000016,-1.4026731000000021,0.6271336999999967
-7.635712000000017,-1.4026731000000023,0.6271336999999967
-9.199557000000018,-1.7313996666666693,0.4133018529999967
-10.763402000000019,-2.0601262333333366,0.19947000599999676
-12.32724700000002,-2.3888528000000036,-0.014361841000003225
-13.326192666666685,-2.382469800000003,-0.5186220273333366
-14.325138333333351,-2.376086800000003,-1.02288221366667
-15.324084000000019,-2.369703800000003,-1.5271424000000033
-15.324084000000019,-2.369703800000003,-1.5271424000000033
-15.324084000000019,-2.369703800000003,-1.5271424000000033
-12.320863533333352,-2.5867272000000034,-0.9686263700000035
-9.317643066666685,-2.803750600000003,-0.41011034000000346
-6.314422600000019,-3.020774000000003,0.1484056899999965
-6.256975166666687,-3.6814186666666693,-0.1420226400000035
-6.199527733333355,-4.3420633333333365,-0.43245097000000343
-6.142080300000022,-5.002708000000005,-0.7228793000000034
-6.142080300000022,-5.002708000000005,-0.7228793000000037
-7.038897533333356,-4.833557333333338,-0.7739436333333369
-7.935714766666689,-4.664406666666671,-0.8250079666666702
-8.832532000000024,-4.495256000000004,-0.8760723000000036
-8.832532000000024,-4.495256000000004,-0.8760723000000036
-10.539995333333357,-4.73781166666667,-1.0069246333333368
-12.247458666666688,-4.980367333333337,-1.1377769666666702
-13.95492200000002,-5.222923000000004,-1.2686293000000035
-13.95492200000002,-5.222923000000004,-1.2686293000000035
-14.092157333333352,-5.060155333333337,-1.6388456000000036
-14.229392666666683,-4.89738766666667,-2.009061900000004
-14.366628000000015,-4.734620000000002,-2.3792782000000043
-14.366628000000015,-4.734620000000002,-2.379278200000005
-13.169808000000016,-4.954834866666668,-2.053743166666671
-11.972988000000015,-5.175049733333334,-1.7282081333333377
-10.776168000000014,-5.3952646,-1.4026731000000041
-10.776168000000014,-5.3952646,-1.4026731000000041
-12.164479333333349,-5.513350933333332,-2.5771524000000046
-13.552790666666683,-5.631437266666666,-3.751631700000005
-14.941102000000017,-5.749523599999999,-4.926111000000005
-14.941102000000017,-5.749523599999999,-4.926111000000006
-14.85173933333335,-4.536745933333332,-4.32929683333334
-14.762376666666684,-3.323968266666666,-3.7324826666666744
-14.673014000000018,-2.111190599999999,-3.135668500000007
-11.982562433333351,-2.095232999999999,-1.696292933333341
-9.292110866666684,-2.079275399999999,-0.25691736666667425
-6.601659300000018,-2.0633177999999988,1.1824581999999924
-6.601659300000018,-2.0633177999999988,1.1824581999999924
-6.601659300000018,-2.0633177999999988,1.1824581999999924
-6.6559152000000195,-2.2484259666666655,0.17074629999999247
-6.710171100000021,-2.433534133333332,-0.8409656000000075
-6.764427000000022,-2.618642299999998,-1.8526775000000075
-8.09529100000002,-2.561194966666665,-2.082466933333341
-9.426155000000021,-2.5037476333333313,-2.312256366666674
-10.757019000000023,-2.4463002999999977,-2.5420458000000075
-10.757019000000023,-2.4463002999999977,-2.5420458000000075
-10.913403333333356,-2.2484260333333306,-2.0441686333333404
-11.06978766666669,-2.050551766666664,-1.546291466666674
-11.226172000000021,-1.852677499999997,-1.0484143000000075
-11.226172000000021,-1.8526774999999969,-1.0484143000000072
-10.441058333333354,-1.3803324999999969,-0.8250079133333404
-9.655944666666686,-0.9079874999999968,-0.6016015266666738
-8.870831000000019,-0.4356424999999969,-0.3781951400000072
-8.870831000000019,-0.4356424999999969,-0.37819514000000726
-8.321889233333353,-0.9335196666666635,-0.020744883333340607
-7.772947466666689,-1.43139683333333,0.33670537333332606
-7.224005700000023,-1.9292739999999966,0.6941556299999928
-7.224005700000023,-1.9292739999999966,0.6941556299999928
-9.122960133333358,-1.9133163999999965,0.1867039199999927
-11.021914566666693,-1.8973587999999963,-0.32074779000000736
-12.920869000000026,-1.8814011999999962,-0.8281995000000073
-14.050667666666692,-2.1239566999999964,-1.1920327666666737
-15.180466333333362,-2.3665121999999963,-1.5558660333333403
-16.31026500000003,-2.609067699999996,-1.9196993000000067
-16.31026500000003,-2.6090676999999958,-1.9196993000000067
-12.959168333333361,-3.0782211333333294,-0.9750093533333399
-9.608071666666694,-3.547374566666663,-0.03031940666667336
-6.2569750000000255,-4.0165279999999965,0.9143705399999934
-6.2569750000000255,-4.0165279999999965,0.9143705399999934
-6.170804000000025,-4.345254666666662,0.6526658799999934
-6.084633000000025,-4.6739813333333275,0.39096121999999345
-5.998462000000025,-5.002707999999994,0.12925655999999344
-5.998462000000025,-5.002707999999993,0.12925655999999344
-7.0005993333333585,-4.712279666666659,0.11649048333332679
-8.002736666666694,-4.4218513333333265,0.10372440666666012
-9.004874000000028,-4.131422999999993,0.09095832999999347
-9.00487400000003,-4.131422999999992,0.09095832999999347
-10.045309666666697,-4.485681666666658,0.1962784933333268
-11.085745333333364,-4.839940333333325,0.30159865666666014
-12.126181000000031,-5.194198999999991,0.4069188199999934
-12.126181000000031,-5.194198999999991,0.4069188199999934
-12.83150700000003,-4.897387666666659,-0.46755772000000656
-13.53683300000003,-4.600576333333326,-1.3420342600000066
-14.24215900000003,-4.303764999999992,-2.2165108000000067
-13.540024666666696,-4.718662533333325,-1.9165079000000065
-12.837890333333362,-5.133560066666658,-1.6165050000000065
-12.135756000000029,-5.548457599999992,-1.3165021000000066
-12.135756000000029,-5.548457599999992,-1.3165021000000066
-12.135756000000029,-5.548457599999992,-1.3165021000000066
-13.441087333333362,-5.529308399999992,-2.570769400000007
-14.746418666666694,-5.510159199999992,-3.825036700000007
-16.051750000000027,-5.491009999999992,-5.0793040000000085
-15.60493733333336,-4.351637466666659,-4.508022000000008
-15.158124666666694,-3.2122649333333264,-3.936740000000009
-14.711312000000028,-2.072892399999993,-3.3654580000000087
-14.711312000000028,-2.072892399999993,-3.3654580000000087
-11.886816766666696,-2.098424599999993,-1.9835297800000085
-9.062321533333362,-2.1239567999999927,-0.6016015600000083
-6.23782630000003,-2.149488999999992,0.7803266599999917
-6.23782630000003,-2.1494889999999915,0.7803266599999917
-6.327188766666697,-2.2580006666666583,-0.10053289333334155
-6.4165512333333625,-2.366512333333325,-0.9813924466666749
-6.505913700000029,-2.475023999999992,-1.8622520000000085
-6.505913700000029,-2.475023999999992,-1.8622520000000085
-7.16336680000003,-2.232468399999992,-1.9835297333333421
-7.820819900000029,-1.9899127999999922,-2.1048074666666756
-8.47827300000003,-1.747357199999992,-2.226085200000009
-8.47827300000003,-1.747357199999992,-2.226085200000009
-9.387856333333362,-1.890975599999992,-1.839911300000009
-10.297439666666696,-2.034593999999992,-1.4537374000000092
-11.207023000000028,-2.178212399999992,-1.067563500000009
-11.207023000000028,-2.178212399999992,-1.067563500000009
-10.61978333333336,-1.7888469666666584,-0.7643690833333423
-10.032543666666696,-1.399481533333325,-0.4611746666666756
-9.445304000000029,-1.0101160999999919,-0.15798025000000893
-9.445304000000029,-1.0101160999999916,-0.15798025000000895
-8.88997943333336,-1.2111818666666583,0.20585305333332438
-8.334654866666694,-1.412247633333325,0.5696863566666578
-7.7793303000000265,-1.6133133999999913,0.9335196599999911
-9.924031866666695,-1.763314866666658,0.35266297333332447
-12.068733433333364,-1.9133163333333247,-0.22819371333334215
-14.213435000000032,-2.0633177999999917,-0.8090504000000088
-14.213435000000032,-2.0633177999999917,-0.8090504000000088
-14.596417333333363,-2.2899157333333253,-0.9718179000000089
-14.979399666666694,-2.516513666666659,-1.134585400000009
-15.362382000000025,-2.743111599999992,-1.297352900000009
-15.362382000000025,-2.743111599999992,-1.2973529000000088
-12.119797666666694,-3.033539933333326,-0.7260708000000088
-8.877213333333362,-3.3239682666666592,-0.15478870000000877
-5.634629000000029,-3.6143965999999925,0.4164933999999912
-5.634629000000029,-3.6143965999999934,0.4164933999999912
-5.612288333333361,-3.955889233333327,0.01755337999999122
-5.589947666666695,-4.297381866666661,-0.38138664000000877
-5.567607000000027,-4.638874499999994,-0.7803266600000086
-5.567607000000027,-4.638874499999994,-0.7803266600000086
-6.432508833333362,-4.431425666666661,-0.6143676200000087
-7.297410666666696,-4.223976833333328,-0.4484085800000086
-8.16231250000003,-4.016527999999995,-0.2824495400000086
-8.162312500000033,-4.016527999999995,-0.2824495400000086
-10.208077000000031,-4.405893566666662,-0.5218135600000086
-12.25384150000003,-4.795259133333328,-0.7611775800000086
-14.299606000000031,-5.184624699999994,-1.0005416000000087
-14.299606000000031,-5.184624699999994,-1.0005416000000087
-14.34747900000003,-5.2420719666666615,-1.4345883000000086
-14.395352000000031,-5.299519233333328,-1.868635000000009
-14.443225000000032,-5.356966499999994,-2.3026817000000093
-14.443225000000032,-5.356966499999994,-2.3026817000000093
-13.594280333333366,-5.286752999999995,-1.8782095666666756
-12.7453356666667,-5.216539499999994,-1.4537374333333422
-11.896391000000035,-5.146325999999994,-1.029265300000009
-12.955976000000033,-5.238880099999994,-2.2292768666666753
-14.015561000000032,-5.331434199999994,-3.429288433333342
-15.07514600000003,-5.423988299999993,-4.629300000000009
-15.07514600000003,-5.423988299999993,-4.629300000000008
-15.164508333333364,-4.278232633333325,-4.10908223333334
-15.253870666666698,-3.1324769666666583,-3.5888644666666742
-15.343233000000032,-1.9867212999999913,-3.068646700000008
-15.343233000000032,-1.9867212999999913,-3.068646700000008
-12.483631000000031,-2.0154449999999913,-1.693101500000008
-9.62402900000003,-2.044168699999991,-0.3175563000000081
-6.764427000000031,-2.072892399999991,1.0579888999999918
-6.764427000000031,-2.0728923999999904,1.0579888999999918
-6.442083333333364,-2.114382166666657,0.039893999999991804
-6.119739666666696,-2.1558719333333234,-0.9782009000000081
-5.797396000000028,-2.19736169999999,-1.9962958000000082
-5.797396000000028,-2.19736169999999,-1.9962958000000082
-6.5697440000000284,-2.162254966666657,-1.9260823666666749
-7.342092000000029,-2.127148233333324,-1.8558689333333416
-8.11444000000003,-2.0920414999999903,-1.7856555000000085
-8.11444000000003,-2.0920414999999903,-1.7856555000000085
-9.333600666666698,-2.0920414999999903,-1.5590576000000083
-10.552761333333365,-2.0920414999999903,-1.3324597000000085
-11.771922000000032,-2.0920414999999903,-1.1058618000000087
-11.771922000000032,-2.0920414999999903,-1.1058618000000089
-11.590005333333366,-1.8590605333333237,-0.9494772866666756
-11.4080886666667,-1.6260795666666568,-0.7930927733333424
-11.226172000000034,-1.39309859999999,-0.6367082600000091
-10.054884133333367,-1.5431000333333234,-0.17393784000000911
-8.8835962666667,-1.6931014666666566,0.2888325799999909
-7.712308400000033,-1.8431028999999899,0.7516029999999909
-7.712308400000033,-1.8431028999999899,0.7516029999999908
-7.712308400000033,-1.8431028999999899,0.7516029999999908
-8.861255600000034,-1.7728894333333232,0.28883257999999074
-10.010202800000034,-1.7026759666666564,-0.17393784000000925
-11.159150000000034,-1.63246249999999,-0.6367082600000092
-12.994274000000038,-2.1143819999999898,-1.0835210733333425
-14.82939800000004,-2.59630149999999,-1.5303338866666758
-16.664522000000044,-3.07822099999999,-1.9771467000000091
-16.664522000000044,-3.07822099999999,-1.9771467000000087
-13.249595533333377,-3.4356713333333233,-0.8920298666666754
-9.83466906666671,-3.793121666666657,0.19308696666665792
-6.419742600000043,-4.150571999999991,1.2782037999999913
-6.419742600000043,-4.150571999999991,1.2782037999999911
-6.135697400000043,-4.23035999999999,0.8345825066666578
-5.851652200000043,-4.31014799999999,0.3909612133333245
-5.567607000000042,-4.389935999999989,-0.05266008000000877
-5.567607000000042,-4.389935999999989,-0.05266008000000877
-6.384636000000043,-4.29738189999999,-0.15159720333334212
-7.201665000000044,-4.20482779999999,-0.25053432666667547
-8.018694000000044,-4.11227369999999,-0.34947145000000884
-8.018694000000043,-4.11227369999999,-0.34947145000000884
-9.547432333333374,-4.3420631333333235,-0.4994729000000089
-11.076170666666707,-4.571852566666657,-0.6494743500000089
-12.60490900000004,-4.801641999999991,-0.799475800000009
-13.56874800000004,-4.591001666666657,-1.1888412666666757
-14.53258700000004,-4.380361333333323,-1.5782067333333423
-15.49642600000004,-4.169720999999989,-1.967572200000009
-15.49642600000004,-4.169720999999989,-1.967572200000009
-15.49642600000004,-4.169720999999989,-1.967572200000009
-13.776196666666706,-4.377169833333323,-1.4760780833333422
-12.055967333333372,-4.584618666666656,-0.9845839666666754
-10.33573800000004,-4.792067499999988,-0.4930898500000087
-10.498505333333371,-5.095261866666656,-1.2462885666666754
-10.661272666666706,-5.398456233333323,-1.9994872833333421
-10.824040000000041,-5.701650599999989,-2.752686000000009
-10.824040000000045,-5.701650599999989,-2.752686000000009
-12.560227333333378,-4.552703399999989,-3.2473716666666754
-14.296414666666712,-3.4037561999999895,-3.7420573333333422
-16.032602000000043,-2.2548089999999896,-4.236743000000009
-16.032602000000043,-2.254808999999989,-4.236743000000009
-13.705983666666711,-2.0665092999999892,-2.723962443333342
-11.379365333333377,-1.8782095999999893,-1.2111818866666753
-9.052747000000043,-1.6899098999999893,0.3015986699999913
-9.052747000000043,-1.6899098999999893,0.3015986699999913
-8.120823000000042,-2.069700766666656,-0.18670392000000868
-7.188899000000043,-2.4494916333333223,-0.6750065100000087
-6.256975000000043,-2.829282499999989,-1.1633091000000086
-6.256975000000043,-2.829282499999989,-1.1633091000000084
-6.841023333333376,-2.6186422333333224,-1.4984187333333419
-7.425071666666709,-2.408001966666656,-1.8335283666666753
-8.009120000000042,-2.1973616999999894,-2.168638000000009
-8.009120000000042,-2.1973616999999894,-2.168638000000009
-8.471890333333375,-2.165446466666656,-1.7665064333333422
-8.93466066666671,-2.1335312333333225,-1.3643748666666753
-9.397431000000044,-2.1016159999999893,-0.9622433000000087
-10.010202666666713,-2.123956666666656,-0.8664977000000086
-10.62297433333338,-2.1462973333333224,-0.7707521000000086
-11.235746000000047,-2.168637999999989,-0.6750065000000086
-11.235746000000047,-2.168637999999989,-0.6750065000000086
-10.56233533333338,-1.9388485333333225,-0.3079816833333419
-9.888924666666712,-1.709059066666656,0.059043133333324706
-9.215514000000047,-1.4792695999999896,0.4260679499999913
-9.215514000000047,-1.4792695999999896,0.4260679499999913
-8.092099000000047,-1.6133134666666562,0.604793066666658
-6.9686840000000485,-1.7473573333333228,0.7835181833333248
-5.845269000000049,-1.8814011999999893,0.9622432999999914
-5.845269000000049,-1.8814011999999893,0.9622432999999914
-9.608071666666715,-2.286724266666656,0.24095976666665797
-13.370874333333381,-2.692047333333323,-0.48032376666667537
-17.133677000000045,-3.0973703999999898,-1.2016073000000087
-17.133677000000045,-3.0973703999999898,-1.2016073000000087
-14.77514333333338,-2.845240266666656,-1.2239479666666753
-12.416609666666714,-2.593110133333323,-1.2462886333333418
-10.058076000000048,-2.34097999999999,-1.2686293000000084
-10.058076000000048,-2.3409799999999894,-1.2686293000000084
-8.242101000000048,-2.985666999999989,-0.48032383333334167
-6.426126000000049,-3.6303539999999894,0.307981633333325
-4.610151000000049,-4.275040999999989,1.0962870999999916
-4.61015100000005,-4.275040999999988,1.0962870999999919
-4.92930300000005,-4.383552799999989,0.4547915666666584
-5.2484550000000505,-4.492064599999988,-0.18670396666667502
-5.5676070000000495,-4.600576399999988,-0.8281995000000085
-6.853789666666717,-4.399510599999988,-0.6175591600000084
-8.139972333333384,-4.1984447999999865,-0.40691882000000845
-9.42615500000005,-3.997378999999986,-0.1962784800000084
-9.42615500000005,-3.997378999999986,-0.1962784800000084
-9.42615500000005,-3.997378999999986,-0.1962784800000084
-11.277236666666715,-4.182487133333319,-0.5377711200000083
-13.12831833333338,-4.367595266666652,-0.879263760000008
-14.979400000000046,-4.552703399999985,-1.2207564000000077
-14.341095666666712,-4.696321833333319,-1.3324596333333412
-13.70279133333338,-4.839940266666651,-1.4441628666666748
-13.064487000000048,-4.983558699999984,-1.5558661000000082
-13.064487000000048,-4.983558699999983,-1.5558661000000082
-12.39107633333338,-5.200582133333317,-1.5750152000000082
-11.717665666666713,-5.4176055666666505,-1.594164300000008
-11.044255000000048,-5.6346289999999835,-1.613313400000008
-11.044255000000048,-5.6346289999999835,-1.613313400000008
-12.665547666666713,-5.0888789999999835,-2.6186422666666744
-14.28684033333338,-4.543128999999983,-3.6239711333333413
-15.908133000000047,-3.9973789999999823,-4.629300000000008
-15.908133000000047,-3.9973789999999823,-4.629300000000008
-14.009178000000047,-3.5314170999999814,-3.189924400000008
-12.110223000000046,-3.0654551999999815,-1.7505488000000087
-10.211268000000045,-2.5994932999999816,-0.3111732000000087
-10.211268000000043,-2.599493299999982,-0.3111732000000087
-8.663381000000042,-2.535662866666649,-0.31755624333334204
-7.115494000000042,-2.471832433333316,-0.3239392866666753
-5.5676070000000415,-2.408001999999983,-0.33032233000000866
-5.5676070000000415,-2.4080019999999833,-0.33032233000000866
-5.822928666666709,-2.3856613333333168,-0.8154333866666753
-6.078250333333376,-2.36332066666665,-1.3005444433333422
-6.333572000000043,-2.3409799999999836,-1.785655500000009
-6.333572000000043,-2.3409799999999836,-1.785655500000009
-6.691022133333377,-2.1718294333333166,-1.5973558000000088
-7.04847226666671,-2.0026788666666495,-1.4090561000000088
-7.405922400000044,-1.8335282999999831,-1.2207564000000088
-8.120822933333377,-1.94203996666665,-1.118627780000009
-8.835723466666709,-2.0505516333333165,-1.016499160000009
-9.550624000000042,-2.1590632999999833,-0.9143705400000092
-9.550624000000042,-2.1590632999999837,-0.9143705400000091
-9.132534666666709,-2.0697007666666507,-0.5601117966666757
-8.714445333333378,-1.9803382333333175,-0.2058530533333424
-8.296356000000046,-1.8909756999999843,0.14840568999999093
-8.296356000000047,-1.8909756999999843,0.14840568999999093
-9.272961333333381,-2.162254866666651,0.043085523333324265
-10.249566666666714,-2.4335340333333177,-0.06223464333334241
-11.226172000000048,-2.7048131999999843,-0.16755481000000907
-11.226172000000048,-2.7048131999999843,-0.16755481000000913
-13.319809333333382,-3.001624633333318,-0.04946856000000912
-15.413446666666715,-3.298436066666651,0.06861768999999089
-17.50708400000005,-3.5952474999999837,0.18670393999999088
-17.507084000000045,-3.5952474999999837,0.18670393999999088
-15.691109000000047,-3.4388629999999836,0.40691882666665746
-13.875134000000047,-3.2824784999999834,0.627133713333324
-12.059159000000049,-3.126093999999983,0.8473485999999907
-12.059159000000049,-3.126093999999983,0.8473485999999907
-9.193173866666713,-3.330351299999983,1.0037330999999907
-6.327188733333382,-3.534608599999983,1.1601175999999906
-3.461203600000049,-3.738865899999983,1.3165020999999906
-3.4612036000000486,-3.738865899999983,1.3165020999999906
-3.7739725333333816,-3.8346114333333166,1.0547974333333239
-4.086741466666715,-3.93035696666665,0.7930927666666573
-4.399510400000048,-4.0261024999999835,0.5313880999999906
-4.399510400000048,-4.0261024999999835,0.5313880999999906
-5.771863933333382,-4.188870099999984,0.5313880999999906
-7.144217466666716,-4.3516376999999835,0.5313880999999906
-8.51657100000005,-4.514405299999983,0.5313880999999906
-10.450632333333383,-4.6803643333333165,-0.1515972333333426
-12.384693666666715,-4.84632336666665,-0.8345825666666759
-14.318755000000047,-5.012282399999983,-1.517567900000009
-14.318755000000047,-5.012282399999983,-1.517567900000009
-13.674068000000048,-4.839940266666651,-1.1154363333333424
-13.029381000000049,-4.667598133333318,-0.7133047666666759
-12.384694000000048,-4.495255999999984,-0.3111732000000093
-12.384694000000048,-4.495255999999984,-0.3111732000000093
-12.729378000000048,-4.910153666666651,-0.7739436333333427
-13.07406200000005,-5.325051333333317,-1.236714066666676
-13.41874600000005,-5.739948999999982,-1.6994845000000096
-13.41874600000005,-5.739948999999982,-1.6994845000000094
-15.292168333333384,-5.270795499999983,-3.3941816666666753
-17.165590666666716,-4.801641999999983,-5.088878833333342
-19.03901300000005,-4.332488499999983,-6.783576000000008
-19.03901300000005,-4.332488499999983,-6.783576000000008
-16.342178666666715,-3.4739696333333168,-4.450574800000008
-13.645344333333384,-2.6154507666666498,-2.117573600000008
-10.94851000000005,-1.756931899999983,0.21542759999999164
-9.017640333333384,-1.8909756999999832,0.04627703333332498
-7.086770666666719,-2.025019499999983,-0.12287353333334168
-5.155901000000052,-2.1590632999999833,-0.29202410000000834
-5.1559010000000525,-2.1590632999999833,-0.2920241000000083
-5.1559010000000525,-2.1590632999999833,-0.2920241000000083
-5.529308833333386,-1.8686349999999834,-0.764369066666675
-5.90271666666672,-1.5782066999999838,-1.2367140333333417
-6.276124500000054,-1.287778399999984,-1.7090590000000085
-6.537829100000053,-1.3962900666666502,-1.3133105333333417
-6.799533700000052,-1.504801733333317,-0.9175620666666751
-7.061238300000052,-1.6133133999999838,-0.5218136000000083
-7.061238300000052,-1.6133133999999838,-0.5218136000000083
-8.238909200000052,-1.6069303999999838,-0.43883406000000824
-9.416580100000052,-1.6005473999999837,-0.3558545200000082
-10.594251000000051,-1.5941643999999835,-0.27287498000000815
-10.594251000000051,-1.5941643999999833,-0.27287498000000815
-9.943181000000052,-1.696292999999983,0.01755334666665853
-9.292111000000054,-1.7984215999999826,0.3079816733333252
-8.641041000000053,-1.9005501999999825,0.5984099999999919
-8.641041000000053,-1.9005501999999825,0.5984099999999919
-9.158067333333387,-1.9899127999999824,0.5313880866666586
-9.67509366666672,-2.0792753999999825,0.46436617333332536
-10.192120000000054,-2.1686379999999823,0.3973442599999921
-10.192120000000056,-2.1686379999999823,0.3973442599999921
-13.204915000000057,-2.315447899999983,-0.1898954600000079
-16.217710000000057,-2.4622577999999833,-0.777135180000008
-19.230505000000054,-2.6090676999999833,-1.3643749000000078
-19.230505000000058,-2.6090676999999833,-1.3643749000000078
-16.42835000000006,-2.6697065999999836,-1.2239480000000078
-13.62619500000006,-2.730345499999983,-1.083521100000008
-10.82404000000006,-2.790984399999983,-0.9430942000000079
-10.824040000000062,-2.790984399999983,-0.9430942000000079
-8.146354800000063,-3.4165223333333166,-0.4867068166666746
-5.468669600000062,-4.04206026666665,-0.030319433333341268
-2.790984400000062,-4.667598199999984,0.42606794999999203
-3.732482766666729,-4.56546956666665,-0.030319433333341268
-4.673981133333395,-4.463340933333316,-0.4867068166666746
-5.615479500000062,-4.361212299999981,-0.943094200000008
-5.615479500000062,-4.361212299999981,-0.943094200000008
-6.624000000000062,-4.306956533333315,-0.6398997866666747
-7.632520500000062,-4.252700766666648,-0.3367053733333414
-8.641041000000063,-4.198444999999983,-0.03351096000000808
-8.641041000000063,-4.198444999999983,-0.03351096000000808
-10.680422333333397,-4.38674466666665,-0.8154333733333415
-12.71980366666673,-4.575044333333317,-1.597355786666675
-14.759185000000064,-4.763343999999983,-2.3792782000000083
-14.759185000000064,-4.763343999999983,-2.379278200000009
-15.34004166666673,-4.7952591333333165,-2.6058761333333424
-15.920898333333398,-4.827174266666649,-2.8324740666666757
-16.501755000000063,-4.859089399999982,-3.0590720000000093
-16.501755000000063,-4.859089399999982,-3.0590720000000093
-14.542161333333397,-5.005899266666648,-2.3633206333333425
-12.582567666666728,-5.152709133333316,-1.6675692666666755
-10.622974000000061,-5.299518999999983,-0.9718179000000086
-10.622974000000061,-5.299518999999983,-0.9718179000000086
-12.930443333333395,-4.673981133333317,-2.2739581666666755
-15.23791266666673,-4.048443266666651,-3.576098433333342
-17.545382000000064,-3.422905399999984,-4.878238700000009
-17.545382000000064,-3.422905399999984,-4.878238700000008
-14.768759333333398,-2.992050133333318,-3.4133309000000076
-11.99213666666673,-2.5611948666666517,-1.948423100000008
-9.215514000000061,-2.1303395999999855,-0.4835153000000079
-9.215514000000063,-2.130339599999986,-0.4835153000000079
-7.782521666666729,-2.040977066666653,-0.37181209666667464
-6.349529333333396,-1.9516145333333192,-0.26010889333334125
-4.916537000000061,-1.8622519999999858,-0.14840569000000794
-5.4559038333333945,-1.7696978999999857,-0.6047930933333412
-5.995270666666727,-1.677143799999986,-1.0611804966666745
-6.534637500000059,-1.5845896999999862,-1.5175679000000075
-6.534637500000059,-1.5845896999999862,-1.5175679000000075
-6.946343666666727,-1.6260794666666527,-1.4250138000000077
-7.358049833333394,-1.6675692333333192,-1.332459700000008
-7.769756000000061,-1.7090589999999857,-1.2399056000000082
-7.769756000000061,-1.7090589999999857,-1.2399056000000082
-8.688913666666728,-1.6388455666666524,-1.2079904000000081
-9.608071333333394,-1.5686321333333193,-1.1760752000000083
-10.52722900000006,-1.498418699999986,-1.1441600000000083
-10.52722900000006,-1.498418699999986,-1.1441600000000083
-10.22722600000006,-1.6899099333333194,-0.7867097333333417
-9.927223000000062,-1.881401166666653,-0.4292594666666751
-9.627220000000063,-2.0728923999999864,-0.07180920000000834
-9.627220000000063,-2.0728923999999864,-0.07180920000000834
-9.780413333333398,-2.114382166666653,0.09734136666665832
-9.933606666666732,-2.1558719333333194,0.266491933333325
-10.086800000000066,-2.197361699999986,0.43564249999999166
-10.086800000000066,-2.197361699999986,0.43564249999999166
-12.777251333333401,-2.3090648666666524,0.004787279999991641
-15.467702666666733,-2.420768033333319,-0.4260679400000083
-18.158154000000067,-2.5324711999999856,-0.8569231600000083
-18.158154000000067,-2.5324711999999856,-0.8569231600000083
-15.777280000000067,-2.4143849333333187,-0.8856468400000083
-13.396406000000065,-2.2962986666666523,-0.9143705200000083
-11.015532000000064,-2.1782123999999854,-0.9430942000000083
-8.433592133333399,-2.8899214999999856,-0.23776826666667494
-5.851652266666732,-3.601630599999986,0.4675576666666584
-3.269712400000065,-4.313339699999986,1.1728835999999918
-3.269712400000065,-4.313339699999986,1.1728835999999918
-3.269712400000065,-4.313339699999986,1.1728835999999918
-4.051634766666731,-4.332488699999986,0.8473485599999918
-4.8335571333333975,-4.351637699999986,0.5218135199999918
-5.615479500000064,-4.370786699999986,0.1962784799999918
-6.805916333333397,-4.294190266666653,0.26330040666665844
-7.996353166666732,-4.217593833333319,0.33032233333332506
-9.186790000000066,-4.140997399999986,0.39734425999999173
-9.186790000000066,-4.140997399999986,0.3973442599999917
-10.884679000000064,-4.469723999999986,-0.20904456000000834
-12.582568000000064,-4.798450599999987,-0.8154333800000084
-14.280457000000062,-5.127177199999988,-1.4218222000000083
-14.280457000000062,-5.127177199999989,-1.4218222000000083
-14.232584333333397,-5.050580633333321,-1.6835268333333415
-14.18471166666673,-4.973984066666654,-1.9452314666666748
-14.136839000000066,-4.897387499999987,-2.206936100000008
-14.136839000000066,-4.8973874999999865,-2.2069361000000085
-13.105977666666732,-5.159092333333319,-2.050551633333342
-12.075116333333398,-5.420797166666652,-1.8941671666666753
-11.044255000000064,-5.682501999999985,-1.7377827000000086
-11.044255000000064,-5.682501999999985,-1.7377827000000086
-13.102785666666732,-4.989941999999985,-3.0303483000000084
-15.161316333333398,-4.297381999999985,-4.322913900000008
-17.219847000000065,-3.6048219999999844,-5.615479500000007
-15.151742000000064,-3.097370266666651,-3.978229723333341
-13.083637000000065,-2.589918533333318,-2.3409799466666743
-11.015532000000064,-2.0824667999999846,-0.7037301700000077
-11.015532000000064,-2.0824667999999846,-0.7037301700000077
-11.015532000000064,-2.0824667999999846,-0.7037301700000077
-9.359132900000064,-2.0920413999999847,-0.5250050500000077
-7.702733800000066,-2.1016159999999844,-0.3462799300000077
-6.046334700000066,-2.1111905999999845,-0.16755481000000763
-6.359103800000066,-1.8431028666666511,-0.6750065066666742
-6.671872900000067,-1.5750151333333176,-1.1824582033333406
-6.9846420000000675,-1.3069273999999842,-1.689909900000007
-6.9846420000000675,-1.3069273999999842,-1.689909900000007
-7.431454666666734,-1.2973528666666507,-1.3771409333333409
-7.8782673333334,-1.2877783333333175,-1.0643719666666744
-8.325080000000066,-1.278203799999984,-0.7516030000000078
-8.325080000000066,-1.278203799999984,-0.7516030000000077
-8.800616666666732,-1.246288599999984,-0.6239421900000076
-9.276153333333397,-1.2143733999999842,-0.4962813800000076
-9.751690000000062,-1.1824581999999841,-0.3686205700000076
-9.751690000000062,-1.1824581999999841,-0.3686205700000076
-9.454878666666728,-1.2399055666666507,-0.12606504666667426
-9.158067333333396,-1.2973529333333174,0.11649047666665906
-8.861256000000063,-1.354800299999984,0.35904599999999237
-8.861256000000063,-1.354800299999984,0.35904599999999237
-9.257004333333398,-1.8335283333333174,0.2952156033333257
-9.652752666666734,-2.312256366666651,0.231385206666659
-10.048501000000067,-2.7909843999999837,0.1675548099999923
-10.048501000000067,-2.7909843999999837,0.1675548099999923
-12.703846000000068,-3.212265033333317,-0.1898954400000077
-15.359191000000067,-3.63354566666665,-0.5473456900000077
-18.014536000000064,-4.054826299999983,-0.9047959400000076
-15.675151666666729,-3.7995046999999826,-1.1058616933333407
-13.335767333333395,-3.5441830999999824,-1.306927446666674
-10.996383000000064,-3.288861499999982,-1.5079932000000076
-10.996383000000064,-3.288861499999982,-1.5079932000000076
-8.39848546666673,-3.6526948666666486,-0.665431933333341
-5.8005879333333965,-4.016528233333315,0.17712933333332548
-3.2026904000000638,-4.380361599999983,1.019690599999992
-3.2026904000000638,-4.380361599999983,1.019690599999992
-3.7963131666667302,-4.287807499999982,0.6781979733333253
-4.389935933333397,-4.195253399999981,0.3367053466666587
-4.983558700000063,-4.10269929999998,-0.004787280000007943
-4.983558700000064,-4.10269929999998,-0.004787280000007942
-6.400593800000063,-4.086741633333314,0.13244808666665872
-7.817628900000063,-4.0707839666666485,0.2696834533333254
-9.234664000000063,-4.054826299999983,0.406918819999992
-9.23466400000006,-4.054826299999983,0.406918819999992
-11.130426666666727,-4.447383199999984,-0.1132989866666747
-13.026189333333392,-4.839940099999984,-0.6335167933333414
-14.921952000000056,-5.2324969999999835,-1.1537346000000082
-14.921952000000056,-5.2324969999999835,-1.1537346000000082
-14.65705600000006,-5.165475233333317,-1.5079933333333415
-14.392160000000061,-5.09845346666665,-1.8622520666666749
-14.127264000000062,-5.031431699999984,-2.2165108000000084
-14.127264000000062,-5.031431699999984,-2.2165108000000084
-12.84427300000006,-5.002707966666649,-1.7409742866666749
-11.56128200000006,-4.973984233333315,-1.2654377733333415
-10.27829100000006,-4.945260499999981,-0.789901260000008
-12.263416333333396,-4.823982666666647,-2.251617506666675
-14.24854166666673,-4.702704833333313,-3.713333753333341
-16.233667000000064,-4.581426999999979,-5.175050000000007
-16.233667000000064,-4.581426999999979,-5.175050000000007
-16.233667000000064,-4.581426999999979,-5.175050000000007
-14.666630666666729,-3.93035689999998,-3.793121766666674
-13.099594333333394,-3.2792867999999804,-2.4111935333333405
-11.53255800000006,-2.628216699999981,-1.0292653000000074
-9.722966000000062,-2.376086633333314,-0.7420284700000073
-7.913374000000061,-2.123956566666647,-0.4547916400000072
-6.103782000000062,-1.8718264999999805,-0.1675548100000072
-6.103782000000062,-1.8718264999999805,-0.1675548100000072
-6.378252866666728,-1.6388455333333136,-0.5920270066666738
-6.652723733333396,-1.405864566666647,-1.0164992033333407
-6.927194600000063,-1.17288359999998,-1.440971400000007
-6.927194600000063,-1.1728835999999798,-1.440971400000007
-7.1410264000000625,-1.4728865333333132,-1.316502100000007
-7.354858200000063,-1.7728894666666466,-1.192032800000007
-7.568690000000063,-2.0728923999999798,-1.067563500000007
-7.568690000000063,-2.0728923999999798,-1.0675635000000068
-8.810191333333396,-2.1590633999999795,-0.9813924666666735
-10.05169266666673,-2.2452343999999793,-0.8952214333333401
-11.293194000000064,-2.3314053999999786,-0.8090504000000068
-11.293194000000064,-2.3314053999999786,-0.8090504000000068
-10.884679333333397,-2.098424433333312,-0.5377711733333402
-10.476164666666731,-1.865443466666645,-0.2664919466666736
-10.067650000000064,-1.6324624999999784,0.004787279999993066
-10.067650000000064,-1.6324624999999784,0.004787279999993065
-9.92403166666673,-1.750548766666645,0.3015986533333264
-9.780413333333398,-1.8686350333333117,0.5984100266666598
-9.636795000000063,-1.9867212999999786,0.8952213999999931
-9.636795000000063,-1.9867212999999786,0.8952213999999931
-12.129372333333395,-2.0601262333333117,0.5664948233333265
-14.62194966666673,-2.133531166666645,0.23776824666665977
-17.114527000000063,-2.2069360999999783,-0.09095833000000686
-15.218763833333398,-2.143105733333312,-0.24415128666667352
-13.323000666666735,-2.079275366666645,-0.3973442433333401
-11.42723750000007,-2.0154449999999784,-0.5505372000000067
-11.42723750000007,-2.0154449999999784,-0.5505372000000067
-8.75912680000007,-2.580344033333312,-0.45798312666667346
-6.091016100000069,-3.1452430666666458,-0.3654290533333402
-3.42290540000007,-3.7101420999999792,-0.27287498000000693
-3.42290540000007,-3.7101420999999792,-0.27287498000000693
-4.147380466666736,-4.089933066666646,-0.5664948533333404
-4.871855533333404,-4.469724033333312,-0.8601147266666738
-5.59633060000007,-4.84951499999998,-1.153734600000007
-6.687830733333402,-4.543128999999979,-0.8824553666666736
-7.779330866666733,-4.236742999999979,-0.6111761333333401
-8.870831000000065,-3.9303569999999795,-0.3398969000000067
-8.870831000000065,-3.9303569999999795,-0.3398969000000067
-10.852764666666731,-4.0771668999999795,-0.7164962666666734
-12.8346983333334,-4.223976799999979,-1.0930956333333401
-14.816632000000068,-4.370786699999979,-1.4696950000000069
-14.816632000000068,-4.370786699999979,-1.4696950000000069
-14.7559933333334,-4.479298466666645,-1.610121900000007
-14.695354666666733,-4.587810233333311,-1.7505488000000071
-14.634716000000067,-4.696321999999977,-1.8909757000000074
-14.634716000000067,-4.696321999999976,-1.8909757000000074
-13.358108000000067,-4.843131899999976,-1.552674566666674
-12.08150000000007,-4.9899417999999764,-1.2143734333333402
-10.804892000000072,-5.136751699999976,-0.8760723000000068
-10.804892000000072,-5.136751699999976,-0.8760723000000068
-12.537887333333403,-4.855897933333309,-2.25161753333334
-14.270882666666736,-4.575044166666642,-3.6271627666666735
-16.003878000000068,-4.294190399999976,-5.002708000000006
-16.003878000000068,-4.294190399999976,-5.002708000000007
-14.5708853333334,-3.585672933333308,-3.5633323666666743
-13.137892666666735,-2.877155466666641,-2.123956733333341
-11.704900000000068,-2.1686379999999734,-0.6845811000000076
-11.704900000000068,-2.1686379999999734,-0.6845811000000076
-9.754881200000069,-2.031402633333307,-0.4739407600000076
-7.804862400000069,-1.8941672666666403,-0.2633004200000076
-5.854843600000069,-1.7569318999999737,-0.052660080000007624
-5.854843600000069,-1.8782096666666401,-0.5888354533333411
-5.854843600000069,-1.9994874333333066,-1.1250108266666745
-5.854843600000069,-2.120765199999973,-1.6611862000000082
-5.854843600000069,-2.120765199999973,-1.6611862000000082
-5.854843600000069,-2.120765199999973,-1.6611862000000082
-6.263358266666735,-2.0154450333333065,-1.5399084333333413
-6.671872933333401,-1.9101248666666397,-1.4186306666666744
-7.080387600000068,-1.8048046999999732,-1.2973529000000077
-7.974013400000069,-1.760123399999973,-1.2877783666666742
-8.867639200000069,-1.715442099999973,-1.2782038333333408
-9.76126500000007,-1.6707607999999732,-1.2686293000000075
-9.761265000000067,-1.6707607999999732,-1.2686293000000075
-10.089991333333401,-1.721825099999973,-1.0579889533333409
-10.418717666666735,-1.7728893999999729,-0.8473486066666741
-10.747444000000067,-1.8239536999999728,-0.6367082600000075
-10.747444000000067,-1.8239536999999728,-0.6367082600000075
-11.079362000000067,-1.942039933333306,-0.4707492133333408
-11.411280000000067,-2.0601261666666395,-0.30479016666667413
-11.743198000000065,-2.1782123999999734,-0.1388311200000075
-11.743198000000065,-2.1782123999999734,-0.1388311200000075
-13.249595333333401,-2.23246826666664,-0.20904456333334084
-14.755992666666735,-2.286724133333307,-0.27925800666667416
-16.26239000000007,-2.340979999999974,-0.3494714500000075
-16.26239000000007,-2.340979999999974,-0.3494714500000075
-15.030463333333406,-2.3760867666666403,-0.19947000666667414
-13.79853666666674,-2.4111935333333068,-0.0494685633333408
-12.566610000000074,-2.446300299999973,0.10053287999999254
-12.566610000000074,-2.446300299999973,0.10053287999999254
-9.18998186666674,-2.7111964333333063,0.5856439533333259
-5.813353733333407,-2.9760925666666402,1.0707550266666592
-2.4367256000000723,-3.240988699999974,1.5558660999999925
-3.0175822333334055,-3.1835413666666406,1.1760751999999925
-3.5984388666667386,-3.1260940333333074,0.7962842999999925
-4.179295500000072,-3.0686466999999737,0.41649339999999263
-4.179295500000071,-3.0686466999999737,0.41649339999999263
-5.4048393333334035,-3.250563333333307,0.5154305199999926
-6.6303831666667365,-3.4324799666666403,0.6143676399999926
-7.85592700000007,-3.614396599999974,0.7133047599999927
-7.85592700000007,-3.6143965999999743,0.7133047599999927
-9.407005666666736,-3.9686552999999747,0.470749226333326
-10.958084333333403,-4.322913999999975,0.22819369266665937
-12.50916300000007,-4.677172699999975,-0.014361841000007295
-12.50916300000007,-4.677172699999975,-0.014361841000007295
-13.460236000000071,-4.527171333333308,-0.620750660666674
-14.411309000000069,-4.377169966666641,-1.2271394803333406
-15.362382000000068,-4.227168599999974,-1.833528300000007
-15.362382000000068,-4.227168599999974,-1.833528300000007
-14.497480000000067,-4.434617399999975,-1.594164300000007
-13.632578000000066,-4.642066199999975,-1.3548003000000068
-12.767676000000066,-4.849514999999975,-1.1154363000000067
-12.767676000000066,-4.849514999999975,-1.1154363000000067
-13.358107333333399,-4.938877433333309,-2.1494887666666735
-13.94853866666673,-5.028239866666642,-3.1835412333333397
-14.538970000000063,-5.117602299999974,-4.217593700000006
-14.538970000000063,-5.117602299999974,-4.217593700000006
-13.907049000000065,-4.354829033333307,-3.6495031333333396
-13.275128000000064,-3.59205576666664,-3.081412566666673
-12.643207000000062,-2.8292824999999735,-2.5133220000000063
-10.581485000000063,-2.730345399999974,-1.7537402433333398
-8.519763000000065,-2.6314082999999737,-0.994158486666673
-6.458041000000066,-2.5324711999999736,-0.23457673000000634
-6.458041000000066,-2.5324711999999736,-0.23457673000000634
-6.458041000000066,-2.5324711999999736,-0.23457673000000634
-6.209102500000065,-2.503747566666641,-0.6111761200000063
-5.960164000000064,-2.4750239333333077,-0.9877755100000063
-5.7112255000000625,-2.4463002999999746,-1.3643749000000065
-6.24740076666673,-2.2803411999999748,-1.5016102666666733
-6.783576033333397,-2.1143820999999745,-1.63884563333334
-7.319751300000065,-1.948422999999975,-1.7760810000000067
-7.319751300000065,-1.948422999999975,-1.7760810000000067
-8.372953200000067,-1.8143791666666413,-1.7122505666666736
-9.426155100000067,-1.6803353333333082,-1.6484201333333406
-10.479357000000066,-1.546291499999975,-1.5845897000000075
-10.479357000000066,-1.546291499999975,-1.5845897000000075
-10.453824666666733,-1.511184799999975,-1.2462885833333408
-10.4282923333334,-1.476078099999975,-0.9079874666666741
-10.402760000000066,-1.440971399999975,-0.5696863500000074
-10.402760000000066,-1.440971399999975,-0.5696863500000074
-10.658081666666734,-1.5143763333333087,-0.4739407466666741
-10.9134033333334,-1.5877812666666422,-0.37819514333334076
-11.168725000000068,-1.6611861999999757,-0.2824495400000074
-11.168725000000068,-1.6611861999999757,-0.2824495400000074
-11.854901666666734,-1.9962957999999758,-0.2633004166666741
-12.5410783333334,-2.3314053999999755,-0.24415129333334074
-13.227255000000065,-2.666514999999975,-0.2250021700000074
-13.227255000000065,-2.666514999999975,-0.2250021700000074
-13.820877666666732,-2.532471199999975,-0.3494714466666741
-14.414500333333399,-2.398427399999975,-0.4739407233333408
-15.008123000000063,-2.264383599999975,-0.5984100000000075
-15.008123000000063,-2.264383599999975,-0.5984100000000075
-11.75915566666673,-2.2420429666666415,-0.2920240800000076
-8.510188333333398,-2.219702333333308,0.01436183999999241
-5.261221000000065,-2.1973616999999748,0.3207477599999924
-4.938877466666732,-2.8228996666666415,0.2952156066666591
-4.6165339333333995,-3.4484376333333078,0.2696834533333257
-4.294190400000066,-4.073975599999974,0.2441512999999924
-4.294190400000066,-4.073975599999973,0.2441512999999924
-5.120794133333399,-4.0771670666666395,0.13883113333332575
-5.947397866666733,-4.080358533333306,0.033510966666659085
-6.774001600000066,-4.083549999999971,-0.07180920000000758
-6.774001600000067,-4.083549999999971,-0.07180920000000758
-8.082525066666733,-4.275041333333306,-0.10053288333334091
-9.391048533333402,-4.46653266666664,-0.12925656666667423
-10.699572000000067,-4.6580239999999735,-0.15798025000000757
-10.699572000000066,-4.6580239999999735,-0.15798025000000754
-11.842136000000067,-4.808025333333307,-0.8154333666666743
-12.98470000000007,-4.95802666666664,-1.472886483333341
-14.127264000000073,-5.108027999999973,-2.1303396000000077
-14.127264000000073,-5.108027999999973,-2.1303396000000077
-14.095348666666737,-4.96440956666664,-2.0377855666666744
-14.063433333333402,-4.820791133333306,-1.9452315333333408
-14.031518000000068,-4.677172699999972,-1.8526775000000073
-14.031518000000068,-4.677172699999972,-1.8526775000000069
-13.319809000000069,-4.91653666666664,-1.9292739333333404
-12.60810000000007,-5.155900633333306,-2.0058703666666737
-11.89639100000007,-5.3952645999999715,-2.0824668000000073
-13.14746700000007,-4.814407966666638,-2.6888557000000066
-14.39854300000007,-4.233551333333305,-3.295244600000007
-15.64961900000007,-3.6526946999999725,-3.9016335000000066
-15.64961900000007,-3.6526946999999725,-3.9016335000000075
-13.370873666666737,-3.2058818999999725,-2.6218338813333406
-11.092128333333404,-2.7590690999999725,-1.3420342626666741
-8.813383000000071,-2.3122562999999725,-0.06223464400000752
-8.813383000000071,-2.3122562999999725,-0.06223464400000752
-8.015502866666736,-2.2516173999999727,-0.2856410626666742
-7.217622733333402,-2.1909784999999733,-0.5090474813333409
-6.419742600000068,-2.130339599999974,-0.7324539000000074
-6.419742600000068,-2.130339599999974,-0.7324539000000074
-6.691021933333402,-1.9324653666666407,-0.933519666666674
-6.962301266666735,-1.7345911333333073,-1.1345854333333405
-7.233580600000068,-1.536716899999974,-1.3356512000000071
-7.233580600000068,-1.536716899999974,-1.3356512000000071
-7.571881733333402,-1.6867183666666408,-1.2143734333333407
-7.910182866666736,-1.8367198333333075,-1.093095666666674
-8.24848400000007,-1.9867212999999742,-0.9718179000000076
-8.24848400000007,-1.9867212999999742,-0.9718179000000076
-8.912320000000072,-1.973955199999974,-0.8728807666666741
-9.576156000000074,-1.961189099999974,-0.7739436333333408
-10.239992000000074,-1.948422999999974,-0.6750065000000074
-10.239992000000074,-1.948422999999974,-0.6750065000000074
-9.754881000000074,-1.8814010666666405,-0.31755624666667404
-9.269770000000072,-1.814379133333307,0.039894006666659286
-8.78465900000007,-1.7473571999999737,0.39734425999999257
-9.151684000000072,-1.7696978666666405,0.3941527399999926
-9.518709000000072,-1.7920385333333073,0.3909612199999926
-9.885734000000072,-1.8143791999999743,0.38776969999999267
-9.885734000000072,-1.8143791999999743,0.38776969999999267
-9.885734000000072,-1.8143791999999743,0.38776969999999267
-12.754910333333406,-2.245234399999974,0.023936409999992653
-15.62408666666674,-2.6760895999999743,-0.33989688000000734
-18.493263000000074,-3.106944799999974,-0.7037301700000075
-15.799620000000075,-3.078221199999975,-0.6143676133333408
-13.105977000000076,-3.0494975999999756,-0.5250050566666742
-10.412334000000078,-3.0207739999999763,-0.43564250000000754
-10.412334000000078,-3.0207739999999768,-0.43564250000000754
-8.159120900000076,-3.5346087666666435,-0.004787280000007554
-5.905907800000077,-4.04844353333331,0.42606793999999243
-3.652694700000078,-4.562278299999977,0.8569231599999925
-3.652694700000078,-4.562278299999977,0.8569231599999925
-4.361212266666745,-4.456957999999978,0.6271337099999924
-5.069729833333411,-4.351637699999979,0.3973442599999924
-5.778247400000077,-4.24631739999998,0.1675548099999924
-5.778247400000077,-4.24631739999998,0.1675548099999924
-7.099536600000078,-4.284615699999979,0.1420226499999924
-8.420825800000078,-4.322913999999979,0.1164904899999924
-9.742115000000078,-4.361212299999977,0.09095832999999241
-9.742115000000078,-4.361212299999976,0.09095832999999243
-11.07297900000008,-4.463340933333311,-0.40053578000000756
-12.40384300000008,-4.5654695666666445,-0.8920298900000074
-13.73470700000008,-4.667598199999978,-1.3835240000000075
-13.73470700000008,-4.667598199999979,-1.3835240000000077
-13.670876666666748,-4.638874466666645,-1.603738900000008
-13.607046333333415,-4.6101507333333105,-1.8239538000000082
-13.543216000000081,-4.581426999999977,-2.0441687000000086
-13.543216000000081,-4.581426999999976,-2.0441687000000086
-12.445333000000081,-4.753769166666642,-1.843102933333342
-11.34745000000008,-4.926111333333309,-1.6420371666666753
-10.249567000000079,-5.098453499999976,-1.4409714000000087
-12.103840166666748,-4.804833566666642,-2.6633236000000085
-13.958113333333415,-4.511213633333309,-3.885675800000008
-15.812386500000082,-4.217593699999974,-5.108028000000007
-15.812386500000082,-4.217593699999974,-5.108028000000007
-14.258116000000081,-3.687801366666641,-3.67184393333334
-12.70384550000008,-3.158009033333308,-2.235659866666673
-11.149575000000079,-2.628216699999975,-0.7994758000000063
-11.149575000000079,-2.6282166999999754,-0.7994758000000063
-9.049555000000078,-2.497364399999975,-0.5329838666666729
-6.949535000000078,-2.366512099999975,-0.2664919333333395
-4.8495150000000775,-2.2356597999999748,0.0
-4.849515000000078,-2.2356597999999743,0.0
-5.452712233333411,-2.238851366666641,-0.5696863333333395
-6.055909466666744,-2.2420429333333076,-1.1393726666666728
-6.659106700000077,-2.2452344999999743,-1.709059000000006
-6.659106700000077,-2.2452344999999743,-1.709059000000006
-7.396348133333411,-2.088849999999974,-1.5718236333333395
-8.133589566666744,-1.9324654999999737,-1.4345882666666727
-8.870831000000077,-1.7760809999999736,-1.2973529000000061
-8.870831000000079,-1.7760809999999736,-1.2973529000000061
-9.116577666666748,-1.8654435666666405,-0.9430941766666727
-9.362324333333417,-1.9548061333333073,-0.5888354533333394
-9.608071000000086,-2.044168699999974,-0.2345767300000062
-9.608071000000086,-2.044168699999974,-0.2345767300000062
-9.094236333333418,-2.1143821333333075,0.0590431299999938
-8.58040166666675,-2.1845955666666406,0.3526629899999938
-8.066567000000083,-2.2548089999999736,0.6462828499999937
-8.066567000000083,-2.2548089999999736,0.6462828499999937
-8.589976333333416,-2.439917166666641,0.6654319566666604
-9.11338566666675,-2.625025333333308,0.6845810633333271
-9.636795000000083,-2.8101334999999747,0.7037301699999938
-9.636795000000083,-2.8101334999999756,0.7037301699999938
-11.759156000000083,-2.992050133333309,0.16117175666666048
-13.881517000000082,-3.1739667666666427,-0.3813866566666729
-16.003878000000082,-3.355883399999976,-0.9239450700000061
-16.003878000000086,-3.355883399999976,-0.9239450700000061
-14.90918666666675,-3.4516290333333095,-0.7388369033333394
-13.814495333333417,-3.547374666666643,-0.5537287366666728
-12.719804000000082,-3.643120299999976,-0.36862057000000603
-12.719804000000082,-3.643120299999976,-0.36862057000000603
-10.134672666666749,-3.6718439333333097,-0.10691591333333937
-7.549541333333415,-3.7005675666666433,0.1547887433333273
-4.964410000000082,-3.729291199999977,0.41649339999999396
-4.964410000000082,-3.729291199999977,0.41649339999999396
-4.81759990000008,-3.885675799999977,0.17393786666666058
-4.67078980000008,-4.042060399999977,-0.06861766666667274
-4.523979700000079,-4.198444999999977,-0.3111732000000061
-4.523979700000078,-4.198444999999978,-0.31117320000000603
-4.855897800000078,-3.9909961333333115,0.03031945333332729
-5.187815900000079,-3.7835472666666448,0.37181210666666065
-5.5197340000000805,-3.576098399999978,0.713304759999994
-5.5197340000000805,-3.576098399999978,0.7133047599999941
-7.437837666666748,-3.869718266666645,0.35904602333332747
-9.355941333333414,-4.163338133333312,0.004787286666660802
-11.274045000000081,-4.456957999999979,-0.34947145000000585
-11.274045000000081,-4.456957999999979,-0.34947145000000585
-12.464482000000082,-4.571852666666646,-0.8122418666666725
-13.654919000000083,-4.6867473333333125,-1.275012283333339
-14.845356000000082,-4.80164199999998,-1.7377827000000055
-14.395351666666748,-4.830365666666647,-1.5654406000000052
-13.945347333333414,-4.859089333333313,-1.393098500000005
-13.495343000000078,-4.88781299999998,-1.2207564000000046
-13.495343000000078,-4.88781299999998,-1.2207564000000046
-13.846410333333411,-4.8527063333333125,-2.0250194666666714
-14.197477666666744,-4.817599666666645,-2.829282533333338
-14.548545000000077,-4.7824929999999775,-3.633545600000005
-14.548545000000075,-4.7824929999999775,-3.633545600000005
-14.060242333333406,-4.281424299999977,-3.1835412666666723
-13.571939666666736,-3.7803555999999774,-2.7335369333333386
-13.083637000000067,-3.2792868999999776,-2.283532600000005
-13.083637000000067,-3.2792868999999776,-2.283532600000005
-10.836806766666735,-2.9505603666666445,-1.6228879566666714
-8.589976533333402,-2.621833833333311,-0.9622433133333379
-6.343146300000068,-2.2931072999999773,-0.3015986700000046
-6.343146300000068,-2.2931072999999778,-0.3015986700000046
-5.950589333333402,-2.111190599999978,-0.6781980466666712
-5.558032366666734,-1.9292738999999781,-1.0547974233333377
-5.165475400000067,-1.7473571999999784,-1.4313968000000044
-5.165475400000067,-1.7473571999999784,-1.4313968000000044
-5.5388832666667325,-1.718633533333312,-1.4409713333333378
-5.9122911333334,-1.6899098666666454,-1.450545866666671
-6.285699000000068,-1.661186199999979,-1.4601204000000045
-6.285699000000068,-1.661186199999979,-1.4601204000000045
-7.345283666666734,-1.8622519999999787,-1.4026730666666714
-8.404868333333399,-2.0633177999999783,-1.345225733333338
-9.464453000000065,-2.264383599999978,-1.2877784000000043
-9.464453000000065,-2.2643835999999777,-1.2877784000000043
-10.058075666666731,-2.149488833333311,-1.236714066666671
-10.651698333333398,-2.034594066666644,-1.1856497333333376
-11.245321000000063,-1.9196992999999771,-1.1345854000000044
-11.245321000000061,-1.9196992999999771,-1.1345854000000044
-11.015531666666726,-2.0601261999999774,-0.7356453853333379
-10.785742333333394,-2.2005530999999774,-0.33670537066667117
-10.555953000000061,-2.3409799999999774,0.06223464399999549
-10.55595300000006,-2.3409799999999774,0.06223464399999549
-10.820849000000058,-2.5101305999999775,0.04627704299999549
-11.085745000000054,-2.6792811999999775,0.030319441999995478
-11.350641000000053,-2.8484317999999775,0.014361840999995474
-12.480439333333385,-2.765452299999977,0.04627704199999547
-13.610237666666714,-2.6824727999999767,0.07819224299999548
-14.740036000000046,-2.5994932999999762,0.11010744399999549
-14.740036000000046,-2.5994932999999762,0.11010744399999549
-14.740036000000046,-2.5994932999999762,0.11010744399999549
-11.775113666666714,-2.3792783666666426,0.2856410493333288
-8.810191333333384,-2.1590634333333094,0.46117465466666213
-5.845269000000052,-1.938848499999976,0.6367082599999955
-5.018665333333385,-2.3856612999999762,0.5984100399999955
-4.192061666666718,-2.832474099999976,0.5601118199999956
-3.3654580000000514,-3.279286899999976,0.5218135999999955
-3.3654580000000514,-3.2792868999999762,0.5218135999999955
-4.073975333333384,-3.2888614666666434,0.3367054133333289
-4.782492666666717,-3.29843603333331,0.1515972266666622
-5.49101000000005,-3.3080105999999767,-0.033510960000004454
-5.49101000000005,-3.3080105999999767,-0.033510960000004454
-6.751660666666717,-3.5026933333333106,0.22819369333332887
-8.012311333333384,-3.6973760666666444,0.4898983466666622
-9.272962000000051,-3.8920587999999783,0.7516029999999955
