accx,accy,accz
8.746361,-3.6143966,7.4633699999999985
9.5027515,-4.433021549999999,7.449007999999999
9.754881666666668,-4.705896533333333,7.444220666666666
10.259141999999999,-5.2516465,7.434646000000001
10.259142,-5.2516465,7.434646000000001
9.959139000000002,-4.760152333333333,7.0165570000000015
9.659136000000002,-4.268658166666666,6.598468000000001
9.359133000000003,-3.777163999999999,6.180379000000002
9.359133000000005,-3.777163999999999,6.180379000000002
9.091045333333339,-3.892058666666666,5.494202000000001
8.822957666666673,-4.006953333333333,4.8080250000000015
8.554870000000006,-4.121848,4.121848000000001
8.554870000000006,-4.121848,4.121848
8.602742666666673,-4.380361166666667,3.860143433333333
8.650615333333342,-4.638874333333334,3.5984388666666667
8.69848800000001,-4.897387500000001,3.3367343
8.69848800000001,-4.897387500000001,3.3367343
8.803808333333345,-4.511213633333334,3.3303512666666664
8.909128666666678,-4.125039766666667,3.3239682333333334
9.014449000000011,-3.7388659000000004,3.3175852
9.014449000000013,-3.7388659000000004,3.3175852
9.049555666666679,-3.7548234666666667,3.1707752333333334
9.084662333333346,-3.7707810333333334,3.0239652666666665
9.119769000000012,-3.7867385999999996,2.8771553
9.119769000000012,-3.7867385999999996,2.8771553
9.31445166666668,-3.729291266666666,2.8835384000000004
9.509134333333348,-3.671843933333333,2.8899215000000003
9.703817000000015,-3.614396599999999,2.8963046000000006
9.703817000000015,-3.614396599999999,2.8963046000000006
9.544241000000014,-3.4388629666666666,2.7590692000000003
9.384665000000012,-3.2633293333333335,2.6218337999999997
9.225089000000011,-3.087795700000001,2.4845983999999994
9.22508900000001,-3.087795700000001,2.4845983999999994
9.22508900000001,-3.087795700000001,2.4845983999999994
9.295302333333343,-2.947368800000001,2.5803440333333327
9.365515666666676,-2.8069419000000004,2.676089666666666
9.435729000000007,-2.666515000000001,2.7718352999999993
9.365515666666676,-2.6728980666666673,2.7016218666666663
9.295302333333343,-2.6792811333333337,2.6314084333333327
9.22508900000001,-2.6856642,2.5611949999999997
9.22508900000001,-2.6856642,2.5611949999999997
9.282536333333343,-2.759069133333334,2.5963016666666667
9.339983666666678,-2.8324740666666677,2.6314083333333333
9.39743100000001,-2.905879000000001,2.6665150000000004
9.397431000000012,-2.905879000000001,2.6665150000000004
9.397431000000012,-2.905879000000001,2.6665150000000004
9.518709000000014,-2.950560333333334,2.679281066666667
9.639987000000014,-2.9952416666666672,2.692047133333334
9.761265000000016,-3.0399230000000004,2.7048132000000003
9.748498666666682,-2.937794333333334,2.7048132000000003
9.735732333333347,-2.8356656666666673,2.7048132000000003
9.722966000000014,-2.7335370000000005,2.7048132000000003
9.722966000000014,-2.7335370000000005,2.7048132000000003
9.722966000000014,-2.7335370000000005,2.7048132000000003
9.655944000000014,-2.6186422666666673,2.6505574000000003
9.588922000000016,-2.503747533333334,2.5963016000000003
9.521900000000016,-2.388852800000001,2.5420458000000004
9.521900000000016,-2.388852800000001,2.5420458000000004
9.477218833333348,-2.401618866666668,2.462257766666667
9.432537666666681,-2.4143849333333343,2.382469733333334
9.387856500000012,-2.4271510000000007,2.302681700000001
9.464453000000013,-2.404810333333334,2.2707665000000006
9.541049500000014,-2.3824696666666676,2.2388513000000003
9.617646000000015,-2.360129000000001,2.2069361
9.617646000000015,-2.360129000000001,2.2069361
9.515517333333348,-2.369703600000001,2.178212466666667
9.413388666666679,-2.3792782000000012,2.149488833333334
9.311260000000011,-2.388852800000001,2.120765200000001
9.31126000000001,-2.388852800000001,2.1207652000000015
9.314451333333343,-2.3920443666666675,2.133531233333335
9.317642666666677,-2.395235933333334,2.1462972666666684
9.32083400000001,-2.398427500000001,2.159063300000002
9.320834000000012,-2.398427500000001,2.159063300000002
9.41657966666668,-2.4207681000000005,2.1909785333333356
9.512325333333349,-2.4431087000000002,2.222893766666669
9.608071000000017,-2.4654493,2.254809000000002
9.608071000000017,-2.4654493,2.254809000000002
9.531474666666682,-2.4877899333333335,2.2516175000000023
9.454878333333347,-2.510130566666667,2.2484260000000025
9.378282000000013,-2.5324712000000003,2.2452345000000027
9.378282000000013,-2.5324712000000003,2.2452345000000027
9.413389000000015,-2.5037475666666666,2.2962988333333363
9.448496000000015,-2.475023933333334,2.3473631666666694
9.483603000000016,-2.4463003000000008,2.3984275000000026
9.483603000000016,-2.446300300000001,2.3984275000000026
9.537858666666681,-2.4590663333333347,2.443108733333336
9.592114333333347,-2.471832366666668,2.487789966666669
9.646370000000012,-2.4845984000000017,2.532471200000002
9.646370000000012,-2.4845984000000017,2.532471200000002
9.563390333333345,-2.4941729333333353,2.490981466666669
9.480410666666678,-2.503747466666669,2.4494917333333355
9.397431000000012,-2.5133220000000027,2.408002000000002
9.397431000000012,-2.5133220000000027,2.408002000000002
9.413388666666679,-2.5069390000000027,2.408002000000002
9.429346333333347,-2.5005560000000027,2.408002000000002
9.445304000000014,-2.494173000000002,2.408002000000002
9.445304000000014,-2.494173000000002,2.408002000000002
9.442112333333348,-2.497364500000002,2.392044333333336
9.438920666666682,-2.5005560000000018,2.3760866666666693
9.435729000000016,-2.5037475000000016,2.360129000000003
9.435729000000018,-2.5037475000000016,2.360129000000003
9.429346000000018,-2.5037475000000016,2.3569375666666694
9.422963000000019,-2.5037475000000016,2.353746133333336
9.41658000000002,-2.5037475000000016,2.350554700000002
9.41658000000002,-2.5037475000000016,2.350554700000002
9.429346333333353,-2.5228966666666683,2.353746133333336
9.442112666666686,-2.542045833333335,2.3569375666666694
9.454879000000021,-2.561195000000002,2.360129000000003
9.454879000000021,-2.561195000000002,2.360129000000003
9.432538166666689,-2.542045833333335,2.379278200000003
9.410197333333356,-2.5228966666666683,2.3984274000000028
9.387856500000021,-2.5037475000000016,2.4175766000000025
9.387856500000021,-2.5037475000000016,2.4175766000000025
9.39743100000002,-2.5037475000000016,2.4654494000000025
9.40700550000002,-2.5037475000000016,2.5133222000000024
9.41658000000002,-2.5037475000000016,2.561195000000002
9.41658000000002,-2.5037475000000016,2.561195000000002
9.438921000000018,-2.4845984333333355,2.5707695333333356
9.461262000000017,-2.4654493666666695,2.5803440666666693
9.483603000000018,-2.446300300000003,2.589918600000003
9.483603000000016,-2.4463003000000034,2.589918600000003
9.483603000000016,-2.4463003000000034,2.589918600000003
9.483603000000016,-2.4463003000000034,2.589918600000003
9.483603000000016,-2.4463003000000034,2.589918600000003
9.445304666666681,-2.439917200000003,2.510130633333336
9.407006333333348,-2.4335341000000033,2.4303426666666694
9.368708000000012,-2.427151000000003,2.350554700000002
9.368708000000012,-2.4271510000000025,2.350554700000002
9.397431666666678,-2.443108666666669,2.3058734000000025
9.426155333333346,-2.4590663333333356,2.2611921000000024
9.454879000000012,-2.4750240000000017,2.2165108000000022
9.454879000000012,-2.4750240000000017,2.2165108000000022
9.46764466666668,-2.4750240000000017,2.2228938000000027
9.480410333333346,-2.4750240000000017,2.2292768000000027
9.493176000000012,-2.4750240000000017,2.2356598000000028
9.493176000000012,-2.4750240000000017,2.2356598000000028
9.47083566666668,-2.462257866666668,2.2356598000000028
9.448495333333348,-2.4494917333333346,2.2356598000000028
9.426155000000016,-2.4367256000000013,2.2356598000000028
9.426155000000016,-2.4367256000000013,2.2356598000000028
9.426155000000016,-2.4367256000000013,2.2356598000000028
9.426155000000016,-2.4367256000000013,2.2356598000000028
9.426155000000016,-2.4367256000000013,2.2356598000000028
9.426155000000016,-2.4367256000000013,2.2356598000000028
9.448495333333348,-2.420768000000001,2.3026817333333356
9.47083566666668,-2.404810400000001,2.3697036666666684
9.493176000000012,-2.388852800000001,2.4367256000000013
9.489985000000013,-2.392044366666667,2.427151066666668
9.486794000000016,-2.3952359333333337,2.4175765333333348
9.483603000000016,-2.3984275000000004,2.408002000000002
9.483603000000016,-2.3984275000000004,2.408002000000002
9.483603000000016,-2.3984275000000004,2.408002000000002
9.464453666666683,-2.4143851000000005,2.392044333333336
9.445304333333349,-2.4303427000000006,2.3760866666666693
9.426155000000016,-2.4463003000000008,2.360129000000003
9.426155000000016,-2.446300300000001,2.360129000000003
9.461261666666681,-2.4654493666666677,2.3473630000000028
9.496368333333349,-2.4845984333333346,2.3345970000000023
9.531475000000015,-2.5037475000000016,2.3218310000000018
9.531475000000015,-2.5037475000000016,2.3218310000000018
9.499559666666679,-2.5197050666666687,2.331405566666669
9.467644333333345,-2.535662633333336,2.3409801333333355
9.43572900000001,-2.5516202000000026,2.350554700000002
9.435729000000007,-2.5516202000000026,2.350554700000002
9.429346000000008,-2.5260881333333356,2.3633207333333357
9.422963000000008,-2.5005560666666686,2.376086766666669
9.416580000000009,-2.4750240000000017,2.3888528000000027
9.416580000000009,-2.4750240000000017,2.3888528000000027
9.432537666666677,-2.506939166666668,2.3697036666666693
9.448495333333344,-2.5388543333333344,2.3505545333333355
9.464453000000011,-2.5707695000000013,2.3314054000000017
9.464453000000013,-2.5707695000000013,2.3314054000000017
9.464453000000013,-2.516513666666668,2.353746100000002
9.464453000000013,-2.462257833333335,2.3760868000000026
9.464453000000013,-2.408002000000002,2.3984275000000026
9.464453000000013,-2.408002000000002,2.3984275000000026
9.438920833333347,-2.3984274000000023,2.3984275000000026
9.413388666666679,-2.388852800000002,2.3984275000000026
9.387856500000012,-2.379278200000002,2.3984275000000026
9.387856500000012,-2.379278200000002,2.3984275000000026
9.410197333333345,-2.398427333333336,2.4367256666666695
9.43253816666668,-2.4175764666666697,2.4750238333333363
9.454879000000012,-2.436725600000003,2.5133220000000027
9.454879000000012,-2.4367256000000035,2.5133220000000027
9.438921000000013,-2.459066233333337,2.497364433333336
9.422963000000012,-2.48140686666667,2.481406866666669
9.407005000000012,-2.503747500000004,2.4654493000000017
9.407005000000012,-2.5037475000000042,2.4654493000000017
9.416579666666678,-2.4814068666666707,2.455874733333335
9.426154333333344,-2.459066233333337,2.4463001666666684
9.43572900000001,-2.436725600000004,2.4367256000000013
9.435729000000007,-2.4367256000000035,2.4367256000000013
9.426154333333342,-2.44630016666667,2.401618866666668
9.416579666666676,-2.4558747333333373,2.3665121333333348
9.40700500000001,-2.465449300000004,2.3314054000000017
9.407005000000012,-2.4654493000000044,2.3314054000000017
9.407005000000012,-2.459066300000005,2.3282139333333354
9.407005000000012,-2.4526833000000052,2.3250224666666686
9.407005000000012,-2.4463003000000056,2.3218310000000018
9.407005000000012,-2.4463003000000056,2.3218310000000018
9.429346000000015,-2.443108733333339,2.3282140000000022
9.451687000000016,-2.4399171666666724,2.3345970000000023
9.474028000000018,-2.4367256000000057,2.3409800000000023
9.47402800000002,-2.4367256000000057,2.3409800000000023
9.470836333333354,-2.4590662333333393,2.360129166666669
9.467644666666688,-2.481406866666673,2.379278333333336
9.464453000000022,-2.503747500000006,2.3984275000000026
9.464453000000022,-2.5037475000000065,2.3984275000000026
9.454878333333356,-2.4877899000000068,2.4367256666666695
9.44530366666669,-2.4718323000000075,2.4750238333333363
9.435729000000025,-2.455874700000008,2.5133220000000027
9.435729000000027,-2.455874700000008,2.5133220000000027
9.458069666666693,-2.4431086666666744,2.484598333333336
9.480410333333362,-2.430342633333341,2.4558746666666695
9.502751000000028,-2.4175766000000074,2.4271510000000025
9.502751000000028,-2.4175766000000074,2.4271510000000025
9.496368333333361,-2.420768066666674,2.3952358000000022
9.489985666666694,-2.4239595333333406,2.363320600000002
9.483603000000027,-2.4271510000000074,2.3314054000000017
9.483603000000025,-2.4271510000000074,2.3314054000000017
9.467645000000024,-2.436725566666674,2.3154478000000016
9.451687000000021,-2.446300133333341,2.2994902000000015
9.435729000000018,-2.455874700000008,2.2835326000000014
9.435729000000018,-2.455874700000008,2.2835326000000014
9.442112333333352,-2.4750238000000078,2.277149600000001
9.448495666666686,-2.4941729000000077,2.270766600000001
9.454879000000021,-2.5133220000000076,2.264383600000001
9.454879000000021,-2.5133220000000076,2.2643836000000004
9.480411000000023,-2.5165136000000072,2.2931073000000004
9.505943000000023,-2.5197052000000073,2.321831
9.531475000000023,-2.522896800000007,2.3505547
9.531475000000023,-2.522896800000007,2.3505547
9.531475000000023,-2.49736463333334,2.3569377333333335
9.531475000000023,-2.471832466666673,2.3633207666666665
9.531475000000023,-2.446300300000006,2.3697038
9.531475000000023,-2.4463003000000056,2.3697038
9.496368333333358,-2.439917200000006,2.3760868
9.461261666666692,-2.4335341000000055,2.3824698000000004
9.426155000000024,-2.427151000000005,2.3888528000000004
9.426155000000024,-2.427151000000005,2.3888528000000004
9.44211266666669,-2.4016189000000048,2.3984274000000005
9.458070333333355,-2.376086800000005,2.408002
9.47402800000002,-2.350554700000005,2.4175766000000003
9.47402800000002,-2.350554700000005,2.4175766000000003
9.464453333333354,-2.3601292000000047,2.3920444
9.454878666666689,-2.3697037000000045,2.3665122000000003
9.445304000000023,-2.379278200000005,2.34098
9.445304000000023,-2.379278200000005,2.34098
9.44849566666669,-2.3888528000000044,2.325022433333333
9.451687333333355,-2.3984274000000045,2.309064866666666
9.454879000000021,-2.4080020000000046,2.293107299999999
9.454879000000021,-2.4080020000000046,2.293107299999999
9.435729666666688,-2.4175765333333374,2.280341199999999
9.416580333333355,-2.4271510666666707,2.2675750999999997
9.39743100000002,-2.436725600000004,2.254809
9.39743100000002,-2.4367256000000035,2.254809
9.40381400000002,-2.4303426000000035,2.2739580999999998
9.41019700000002,-2.423959600000003,2.2931071999999997
9.41658000000002,-2.417576600000003,2.3122562999999996
9.41658000000002,-2.4175766000000025,2.3122562999999996
9.44211200000002,-2.423959600000002,2.3282138666666667
9.46764400000002,-2.4303426000000017,2.3441714333333334
9.493176000000021,-2.4367256000000013,2.3601290000000006
9.493176000000021,-2.4367256000000013,2.3601290000000006
9.470835666666689,-2.439917166666668,2.3601290000000006
9.448495333333357,-2.4431087333333346,2.3601290000000006
9.426155000000024,-2.446300300000001,2.3601290000000006
9.426155000000024,-2.446300300000001,2.3601290000000006
9.426155000000024,-2.446300300000001,2.3601290000000006
9.426155000000024,-2.446300300000001,2.3601290000000006
9.426155000000024,-2.446300300000001,2.3601290000000006
9.44530433333336,-2.446300300000001,2.3856612
9.464453666666692,-2.446300300000001,2.4111933999999997
9.483603000000025,-2.446300300000001,2.436725599999999
9.483603000000025,-2.446300300000001,2.4367255999999986
9.493177333333358,-2.423959600000001,2.423959566666665
9.502751666666692,-2.4016189000000017,2.4111935333333316
9.512326000000025,-2.379278200000002,2.398427499999998
9.512326000000025,-2.379278200000002,2.398427499999998
9.502751666666692,-2.3728951333333357,2.3792783333333314
9.493177333333358,-2.3665120666666692,2.3601291666666646
9.483603000000025,-2.360129000000003,2.340979999999998
9.483603000000025,-2.360129000000003,2.340979999999998
9.464453666666692,-2.340979900000003,2.347362999999998
9.44530433333336,-2.321830800000003,2.353745999999998
9.426155000000024,-2.302681700000003,2.3601289999999984
9.426155000000024,-2.302681700000003,2.3601289999999984
9.458070000000026,-2.315447800000003,2.363320599999998
9.489985000000026,-2.328213900000003,2.3665121999999976
9.521900000000025,-2.3409800000000023,2.3697037999999977
9.521900000000025,-2.3409800000000023,2.3697037999999977
9.509134333333359,-2.3473630000000028,2.3792783666666644
9.496368666666692,-2.353746000000003,2.388852933333331
9.483603000000025,-2.360129000000003,2.398427499999998
9.474028333333358,-2.363320600000003,2.401618999999998
9.46445366666669,-2.3665122000000025,2.4048104999999977
9.454879000000021,-2.369703800000002,2.4080019999999975
9.454879000000021,-2.369703800000002,2.4080019999999975
9.454879000000021,-2.369703800000002,2.4080019999999975
9.438921000000022,-2.3760868000000026,2.4143849999999976
9.422963000000022,-2.3824698000000026,2.4207679999999976
9.407005000000021,-2.3888528000000027,2.427150999999998
9.43253766666669,-2.395235866666669,2.398427333333331
9.458070333333358,-2.4016189333333355,2.3697036666666644
9.483603000000025,-2.408002000000002,2.340979999999998
9.483603000000025,-2.408002000000002,2.340979999999998
9.486794000000025,-2.408002000000002,2.3345969999999974
9.489985000000024,-2.408002000000002,2.3282139999999973
9.493176000000021,-2.408002000000002,2.3218309999999973
9.493176000000021,-2.408002000000002,2.3218309999999973
9.467644000000023,-2.392044333333336,2.3345969999999974
9.442112000000025,-2.3760866666666693,2.347362999999998
9.416580000000026,-2.360129000000003,2.3601289999999984
9.416580000000028,-2.360129000000003,2.3601289999999984
9.438921000000027,-2.3569375666666694,2.382469666666665
9.461262000000028,-2.353746133333336,2.4048103333333315
9.483603000000027,-2.350554700000002,2.427150999999998
9.483603000000025,-2.350554700000002,2.427150999999998
9.512326333333357,-2.353746133333336,2.4367255666666647
9.541049666666689,-2.3569375666666694,2.4463001333333314
9.569773000000021,-2.360129000000003,2.4558746999999985
9.509134166666689,-2.3377884333333356,2.449491666666665
9.448495333333355,-2.3154478666666685,2.4431086333333316
9.387856500000021,-2.2931073000000013,2.4367255999999986
9.387856500000021,-2.2931073000000013,2.4367255999999986
9.387856500000021,-2.2931073000000013,2.4367255999999986
9.410197333333356,-2.2962987666666685,2.4207679999999985
9.432538166666689,-2.299490233333336,2.4048103999999983
9.454879000000021,-2.302681700000003,2.3888527999999982
9.48360266666669,-2.3345969666666697,2.4111934333333314
9.512326333333355,-2.3665122333333364,2.433534066666665
9.541050000000022,-2.3984275000000026,2.4558746999999985
9.541050000000022,-2.3984275000000026,2.4558746999999985
9.50275166666669,-2.404810533333336,2.423959466666665
9.464453333333358,-2.4111935666666695,2.3920442333333316
9.426155000000024,-2.4175766000000025,2.3601289999999984
9.426155000000024,-2.4175766000000025,2.3601289999999984
9.429346333333358,-2.4016190000000024,2.3760866666666645
9.432537666666692,-2.3856614000000023,2.392044333333331
9.435729000000025,-2.369703800000002,2.4080019999999975
9.435729000000027,-2.369703800000002,2.4080019999999975
9.46126133333336,-2.392044400000002,2.4111935333333308
9.486793666666694,-2.4143850000000016,2.4143850666666644
9.512326000000026,-2.4367256000000013,2.417576599999998
9.512326000000025,-2.4367256000000013,2.417576599999998
9.496368333333358,-2.408001966666668,2.417576599999998
9.48041066666669,-2.379278333333335,2.417576599999998
9.464453000000022,-2.350554700000002,2.417576599999998
9.464453000000022,-2.350554700000002,2.417576599999998
9.458070000000022,-2.331405566666669,2.408001999999998
9.451687000000023,-2.312256433333335,2.398427399999998
9.445304000000023,-2.2931073000000013,2.3888527999999982
9.445304000000023,-2.2931073000000013,2.3888527999999982
9.467644666666692,-2.3026818666666684,2.3856612666666646
9.489985333333358,-2.312256433333335,2.382469733333331
9.512326000000025,-2.3218310000000018,2.3792781999999977
9.512326000000025,-2.3218310000000018,2.3792781999999977
9.50594266666669,-2.331405566666669,2.3792781999999977
9.499559333333357,-2.3409801333333355,2.3792781999999977
9.493176000000021,-2.350554700000002,2.3792781999999977
9.493176000000021,-2.350554700000002,2.3792781999999977
9.461261000000022,-2.3282140000000027,2.3856612999999975
9.429346000000022,-2.305873300000003,2.392044399999998
9.39743100000002,-2.283532600000003,2.398427499999998
9.39743100000002,-2.2835326000000036,2.398427499999998
9.461261500000022,-2.305873300000004,2.4367256666666646
9.525092000000024,-2.328214000000004,2.4750238333333314
9.588922500000026,-2.3505547000000044,2.5133219999999983
9.56339033333336,-2.3728953333333376,2.500555999999998
9.537858166666693,-2.395235966666671,2.4877899999999973
9.512326000000025,-2.4175766000000043,2.4750239999999972
9.512326000000025,-2.4175766000000043,2.475023999999997
9.467644666666692,-2.369703800000005,2.475023999999997
9.422963333333357,-2.3218310000000044,2.475023999999997
9.378282000000022,-2.273958200000004,2.475023999999997
9.378282000000022,-2.2739582000000036,2.475023999999997
9.378282000000022,-2.2739582000000036,2.475023999999997
9.40700566666669,-2.334597033333337,2.45906633333333
9.435729333333356,-2.39523586666667,2.443108666666663
9.464453000000022,-2.4558747000000034,2.427150999999996
9.470836333333358,-2.475023800000003,2.4526831666666626
9.477219666666691,-2.494172900000003,2.478215333333329
9.483603000000025,-2.5133220000000027,2.5037474999999954
9.483603000000025,-2.5133220000000027,2.5037474999999954
9.483603000000025,-2.5133220000000027,2.5037474999999954
9.464453666666692,-2.5101305000000025,2.510130599999995
9.44530433333336,-2.5069390000000022,2.5165136999999955
9.426155000000024,-2.5037475000000016,2.522896799999996
9.426155000000024,-2.5037475000000016,2.522896799999996
9.432538000000024,-2.408001933333335,2.5324712666666627
9.438921000000024,-2.3122563666666687,2.5420457333333295
9.445304000000023,-2.2165108000000022,2.5516201999999963
9.422963333333357,-2.2228938000000027,2.503747466666663
9.40062266666669,-2.2292768000000027,2.4558747333333293
9.378282000000022,-2.2356598000000028,2.4080019999999958
9.378282000000022,-2.2356598000000028,2.4080019999999958
9.378282000000022,-2.2356598000000028,2.4080019999999958
9.381473500000022,-2.210127633333336,2.4080019999999958
9.384665000000021,-2.184595466666669,2.4080019999999958
9.387856500000021,-2.159063300000002,2.4080019999999958
9.40700566666669,-2.184595466666669,2.4431086666666624
9.426154833333356,-2.210127633333336,2.4782153333333294
9.445304000000023,-2.2356598000000028,2.5133219999999965
9.445304000000023,-2.2356598000000028,2.5133219999999965
9.445304000000023,-2.2356598000000028,2.5133219999999965
9.445304000000023,-2.2580004333333363,2.5739609333333298
9.445304000000023,-2.28034106666667,2.634599866666663
9.445304000000023,-2.302681700000003,2.6952387999999963
9.445304000000023,-2.302681700000003,2.6952387999999963
9.438921000000024,-2.4080019000000026,2.7175794333333294
9.432538000000024,-2.513322100000002,2.739920066666663
9.426155000000024,-2.6186423000000016,2.7622606999999966
9.426155000000024,-2.6186423000000016,2.7622606999999966
9.451687000000023,-2.7463030666666683,2.8197080333333293
9.477219000000021,-2.873963833333335,2.877155366666663
9.50275100000002,-3.0016246000000018,2.934602699999996
9.486793666666687,-2.9601348333333353,2.9441772999999962
9.470836333333354,-2.918645066666669,2.9537518999999968
9.454879000000021,-2.8771553000000023,2.9633264999999973
9.454879000000021,-2.8771553000000023,2.9633264999999973
9.474028000000024,-2.8484316666666696,2.988858666666664
9.493177000000024,-2.8197080333333364,3.0143908333333314
9.512326000000025,-2.7909844000000033,3.039922999999998
9.512326000000025,-2.790984400000004,3.039922999999998
9.496368333333358,-2.5931101666666705,3.132477066666665
9.48041066666669,-2.3952359333333377,3.2250311333333315
9.464453000000022,-2.197361700000004,3.317585199999998
9.464453000000022,-2.1973617000000036,3.317585199999998
9.566581666666691,-1.9771467666666702,3.5473746999999984
9.668710333333358,-1.756931833333337,3.7771641999999983
9.770839000000025,-1.5367169000000036,4.006953699999999
9.770839000000025,-1.5367169000000036,4.006953699999998
9.770839000000025,-1.5367169000000036,4.006953699999998
9.592114000000025,-1.1888412166666702,4.214402466666665
9.413389000000025,-0.8409655333333367,4.4218512333333315
9.234664000000025,-0.4930898500000033,4.629299999999998
9.075088000000024,-0.22819367666666998,4.782492999999998
8.915512000000023,0.036702496666663365,4.935685999999997
8.755936000000021,0.3015986699999967,5.088878999999996
8.755936000000021,0.3015986699999967,5.088878999999996
8.602742666666687,0.3654290633333301,5.155900866666662
8.449549333333353,0.42925945666666343,5.222922733333329
8.296356000000019,0.4930898499999968,5.289944599999996
8.296356000000019,0.4930898499999968,5.289944599999996
8.229334333333352,0.3845781699999968,5.30271073333333
8.162312666666685,0.2760664899999967,5.315476866666664
8.095291000000019,0.1675548099999967,5.328242999999998
8.095291000000019,0.1675548099999967,5.328242999999998
8.149547000000018,0.09734136566666335,5.605905199999998
8.203803000000018,0.027127921333330012,5.883567399999997
8.258059000000019,-0.043085523000003324,6.161229599999996
8.258059000000019,-0.043085523000003324,6.161229599999996
8.258059000000019,-0.043085523000003324,6.161229599999996
8.235718000000018,-0.17712937200000334,6.461232499999997
8.213377000000019,-0.31117322100000333,6.761235399999997
8.19103600000002,-0.4452170700000033,7.061238299999997
7.935714566666686,-0.7228793133333365,7.185707533333331
7.680393133333353,-1.00054155666667,7.310176766666665
7.425071700000019,-1.2782038000000033,7.434645999999998
7.425071700000019,-1.2782038000000033,7.434645999999998
7.1059196666666855,-1.4345882666666698,7.517625566666665
6.786767633333351,-1.5909727333333363,7.600605133333332
6.467615600000017,-1.747357200000003,7.683584699999998
6.467615600000017,-1.747357200000003,7.683584699999998
6.467615600000017,-1.747357200000003,7.683584699999998
6.505913900000018,-1.6994844333333363,7.900608133333332
6.544212200000019,-1.6516116666666696,8.117631566666665
6.58251050000002,-1.603738900000003,8.334655
6.52506300000002,-1.1728836666666698,8.356995666666668
6.4676155000000195,-0.7420284333333363,8.379336333333335
6.41016800000002,-0.311173200000003,8.401677000000001
6.41016800000002,-0.311173200000003,8.401677000000001
6.41016800000002,-0.311173200000003,8.401677000000001
6.205910666666687,-0.07819223333333634,8.251675533333334
6.001653333333354,0.15478873333333032,8.101674066666668
5.79739600000002,0.38776969999999694,7.951672600000002
5.79739600000002,0.38776969999999694,7.951672600000002
5.446328833333354,0.43883401333333033,7.6644357333333355
5.095261666666687,0.48989832666666366,7.37719886666667
4.74419450000002,0.540962639999997,7.089962000000003
4.527171133333354,0.39734424133333035,6.95910966666667
4.310147766666688,0.2537258426666637,6.828257333333338
4.093124400000022,0.11010744399999702,6.697405000000006
4.093124400000022,0.11010744399999702,6.697405000000006
4.093124400000022,0.11010744399999702,6.697405000000006
3.8984417333333554,-0.011170324000002988,6.978258866666671
3.7037590666666893,-0.132448092000003,7.259112733333336
3.5090764000000227,-0.253725860000003,7.539966600000002
3.5090764000000227,-0.253725860000003,7.539966600000002
3.2888615333333564,-0.2696834633333363,7.792096400000002
3.0686466666666896,-0.2856410666666696,8.044226200000002
2.8484318000000233,-0.3015986700000029,8.296356000000003
2.8484318000000233,-0.3015986700000029,8.296356000000005
2.7048134000000235,-0.31436474666666964,8.229334333333338
2.561195000000023,-0.3271308233333363,8.16231266666667
2.4175766000000234,-0.339896900000003,8.095291000000005
2.4175766000000234,-0.339896900000003,8.095291000000005
2.385661400000023,-0.5090474666666697,8.258058333333336
2.353746200000023,-0.6781980333333363,8.42082566666667
2.3218310000000226,-0.8473486000000029,8.583593000000002
2.273958133333356,-1.0324567666666695,8.70806266666667
2.2260852666666895,-1.217564933333336,8.832532333333338
2.1782124000000227,-1.4026731000000023,8.957002000000005
2.1782124000000227,-1.4026731000000023,8.957002000000005
2.1782124000000227,-1.4026731000000023,8.957002000000005
2.1175735333333563,-1.6452286000000023,9.01125766666667
2.05693466666669,-1.8877841000000022,9.065513333333335
1.9962958000000235,-2.1303396000000023,9.119769
1.9962958000000235,-2.1303396000000023,9.119769
1.9420399666666903,-2.3282139000000024,9.148492666666668
1.8877841333333574,-2.5260882000000024,9.177216333333334
1.8335283000000242,-2.7239625000000025,9.20594
1.8335283000000242,-2.7239625000000025,9.20594
1.9452315333333574,-2.714387933333336,9.103811333333335
2.0569347666666906,-2.7048133666666687,9.00168266666667
2.168638000000024,-2.695238800000002,8.899554000000004
2.1686380000000245,-2.695238800000002,8.899554000000004
2.3090648666666915,-3.052689066666669,8.98253366666667
2.4494917333333586,-3.410139333333335,9.065513333333335
2.5899186000000256,-3.7675896000000013,9.148493
2.5899186000000256,-3.767589600000001,9.148492999999998
2.376086733333359,-3.6718439333333337,9.020832333333333
2.1622548666666916,-3.576098266666667,8.893171666666666
1.9484230000000249,-3.4803526,8.765511
1.9484230000000249,-3.4803526,8.765511
1.849485900000025,-3.6909929666666663,8.513380666666666
1.7505488000000249,-3.901633333333333,8.261250333333333
1.651611700000025,-4.112273699999999,8.00912
1.651611700000025,-4.112273699999999,8.00912
1.7122505666666916,-4.160146566666666,7.989970866666666
1.7728894333333585,-4.208019433333333,7.970821733333332
1.833528300000025,-4.255892299999999,7.951672599999998
1.833528300000025,-4.255892299999999,7.951672599999998
1.9356569666666916,-4.150572066666666,7.980396399999999
2.037785633333358,-4.045251833333334,8.0091202
2.139914300000025,-3.9399316000000013,8.037844000000002
2.139914300000025,-3.9399316000000013,8.037844
2.3728952666666916,-3.863335100000002,7.932523666666666
2.6058762333333587,-3.786738600000002,7.827203333333332
2.838857200000026,-3.7101421000000023,7.721882999999998
2.838857200000026,-3.7101421000000023,7.721882999999998
3.544183133333359,-3.7197167000000024,7.750606666666665
4.249509066666692,-3.729291300000002,7.7793303333333315
4.954835000000025,-3.738865900000002,7.8080539999999985
4.954835000000025,-3.738865900000002,7.8080539999999985
5.7303743333333585,-3.847377500000002,7.782521899999999
6.505913666666692,-3.955889100000002,7.7569897999999995
7.281453000000025,-4.064400700000002,7.7314577
7.281453000000025,-4.064400700000003,7.7314577
7.616562666666693,-3.7963130666666687,7.3580498
7.95167233333336,-3.528225433333335,6.9846419
8.286782000000029,-3.260137800000001,6.611234
8.286782000000029,-3.260137800000001,6.611234
8.06018413333336,-3.2218396000000014,6.0654840666666665
7.833586266666693,-3.1835414000000015,5.519734133333333
7.6069884000000245,-3.1452432000000017,4.9739842
7.6069884000000245,-3.1452432000000017,4.9739842
7.7474152666666924,-3.722908366666669,4.868664133333334
7.88784213333336,-4.300573533333336,4.763344066666668
8.028269000000028,-4.878238700000003,4.658024000000001
8.028269000000028,-4.878238700000003,4.658024000000001
8.08571633333336,-4.626108466666669,4.881430333333334
8.143163666666695,-4.373978233333336,5.104836666666667
8.200611000000029,-4.121848000000003,5.3282430000000005
8.200611000000029,-4.121848000000003,5.3282430000000005
7.961247000000026,-4.022911000000003,5.3505835333333325
7.721883000000027,-3.9239740000000034,5.372924066666665
7.4825190000000275,-3.825037000000004,5.395264599999997
7.4825190000000275,-3.825037000000004,5.395264599999997
7.265495666666694,-4.01333666666667,5.35377483333333
7.04847233333336,-4.201636333333336,5.3122850666666634
6.831449000000027,-4.389936000000001,5.270795299999998
6.831449000000027,-4.389936000000001,5.270795299999999
6.97506743333336,-4.278232766666669,5.398456199999998
7.118685866666694,-4.166529533333336,5.526117099999998
7.262304300000028,-4.054826300000005,5.653777999999998
7.262304300000028,-4.054826300000005,5.653777999999998
7.4346463000000265,-4.003762033333339,5.666543999999998
7.606988300000027,-3.952697766666672,5.679309999999998
7.779330300000027,-3.9016335000000057,5.692075999999999
7.779330300000029,-3.901633500000006,5.692075999999999
7.779330300000029,-3.901633500000006,5.692075999999999
7.779330300000029,-3.901633500000006,5.692075999999999
7.779330300000029,-3.901633500000006,5.692075999999999
7.779330300000029,-3.901633500000006,5.692075999999999
7.97401320000003,-3.901633500000006,5.4942018333333325
8.168696100000032,-3.901633500000006,5.2963276666666665
8.363379000000032,-3.901633500000006,5.098453500000001
8.363379000000032,-3.901633500000006,5.098453500000001
8.822957666666698,-4.208019400000006,5.037814666666666
9.282536333333363,-4.514405300000006,4.977175833333333
9.742115000000029,-4.820791200000006,4.916536999999999
9.742115000000029,-4.820791200000005,4.916537
9.515517333333364,-4.549512033333339,4.827174333333333
9.288919666666699,-4.278232866666673,4.737811666666665
9.062322000000032,-4.006953700000007,4.648448999999998
9.062322000000032,-4.0069537000000075,4.648448999999997
9.199557333333367,-3.9239741333333407,4.4792984666666635
9.336792666666698,-3.8409945666666743,4.31014793333333
9.47402800000003,-3.7580150000000074,4.140997399999997
9.474028000000029,-3.7580150000000074,4.140997399999997
9.37509100000003,-3.620779666666674,3.9814213999999972
9.27615400000003,-3.4835443333333402,3.8218453999999973
9.17721700000003,-3.346309000000007,3.6622693999999973
9.177217000000033,-3.346309000000007,3.6622693999999973
8.695297233333365,-3.039923000000007,3.6335457333333303
8.2133774666667,-2.733537000000007,3.6048220666666637
7.731457700000033,-2.4271510000000074,3.576098399999997
7.731457700000033,-2.4271510000000074,3.576098399999997
7.4793274666667,-2.436725566666674,3.5601407333333306
7.227197233333366,-2.446300133333341,3.544183066666664
6.975067000000032,-2.455874700000008,3.528225399999998
6.975067000000032,-2.455874700000008,3.528225399999998
6.981450133333365,-2.4590662333333406,3.643120199999998
6.987833266666699,-2.462257766666674,3.758014999999998
6.994216400000032,-2.4654493000000066,3.872909799999998
6.994216400000032,-2.4654493000000066,3.872909799999998
7.172941500000032,-2.459066300000007,3.8026963333333312
7.351666600000033,-2.4526833000000074,3.7324828666666643
7.530391700000032,-2.446300300000008,3.6622693999999973
7.530391700000032,-2.4463003000000083,3.6622693999999973
8.143163800000034,-2.538854366666675,3.5633322666666642
8.755935900000035,-2.6314084333333416,3.464395133333331
9.368708000000035,-2.7239625000000083,3.365457999999998
9.368708000000035,-2.7239625000000083,3.365457999999998
10.275099666666703,-2.6760896666666754,3.3431173999999984
11.18149133333337,-2.6282168333333424,3.3207767999999986
12.087883000000035,-2.5803440000000095,3.298436199999999
12.087883000000035,-2.5803440000000095,3.298436199999999
11.835752666666705,-2.551620333333343,3.3590749999999985
11.583622333333373,-2.5228966666666763,3.419713799999998
11.331492000000042,-2.4941730000000093,3.4803525999999976
11.331492000000045,-2.4941730000000093,3.4803525999999976
10.95489283333338,-2.4399171333333425,3.5505660666666645
10.578293666666713,-2.3856612666666757,3.6207795333333315
10.201694500000047,-2.331405400000009,3.6909929999999984
10.201694500000045,-2.331405400000009,3.6909929999999984
10.230418333333377,-2.2707666000000093,3.623971099999998
10.259142166666711,-2.2101278000000097,3.556949199999998
10.287866000000044,-2.14948900000001,3.4899272999999975
10.287866000000044,-2.1494890000000106,3.4899272999999975
9.186791333333376,-2.165446566666677,3.3367342999999976
8.08571666666671,-2.1814041333333436,3.1835412999999977
6.9846420000000435,-2.19736170000001,3.0303482999999978
6.9846420000000435,-2.1973617000000094,3.0303482999999978
6.438892000000043,-2.2835327000000096,2.8994959999999974
5.893142000000043,-2.36970370000001,2.768643699999997
5.347392000000042,-2.45587470000001,2.637791399999997
5.347392000000042,-2.45587470000001,2.637791399999997
5.819737000000043,-2.5994931333333433,2.867580799999997
6.292082000000043,-2.7431115666666765,3.097370199999997
6.764427000000044,-2.8867300000000093,3.3271595999999977
6.764427000000044,-2.8867300000000093,3.3271595999999977
7.441029000000044,-3.033539866666676,3.582481199999997
8.117631000000044,-3.1803497333333426,3.837802799999997
8.794233000000045,-3.327159600000009,4.093124399999996
8.794233000000046,-3.327159600000009,4.093124399999996
9.170832666666714,-3.5314169333333427,4.061209266666662
9.547432333333383,-3.735674266666676,4.029294133333328
9.924032000000052,-3.939931600000009,3.997378999999994
9.924032000000052,-3.939931600000009,3.997378999999994
9.94637266666672,-3.9909958666666756,3.9016333666666605
9.968713333333387,-4.042060133333342,3.805887733333327
9.991054000000053,-4.093124400000009,3.710142099999994
9.991054000000055,-4.093124400000008,3.710142099999994
10.07403333333339,-4.275041100000007,3.633545599999994
10.157012666666724,-4.456957800000008,3.5569490999999935
10.239992000000058,-4.638874500000007,3.480352599999993
10.239992000000058,-4.638874500000007,3.480352599999993
10.820848666666725,-4.511213766666674,3.16120066666666
11.40170533333339,-4.38355303333334,2.8420487333333266
11.982562000000058,-4.255892300000006,2.522896799999993
11.982562000000058,-4.255892300000006,2.522896799999993
12.071924666666725,-4.096316200000007,2.6026847666666604
12.16128733333339,-3.9367401000000064,2.682472733333327
12.250650000000057,-3.777164000000006,2.762260699999994
12.250650000000057,-3.777164000000006,2.762260699999994
10.63893243333339,-3.2282225333333394,2.6665151333333275
9.027214866666723,-2.679281066666673,2.5707695666666606
7.415497300000055,-2.130339600000006,2.4750239999999937
7.415497300000055,-2.130339600000006,2.4750239999999932
7.415497300000055,-2.130339600000006,2.4750239999999932
7.010174100000055,-2.0250194666666728,2.3026818666666595
6.604850900000055,-1.9196993333333394,2.1303397333333263
6.199527700000054,-1.8143792000000063,1.9579975999999926
6.49314766666672,-1.7920385333333393,1.9292738999999923
6.786767633333386,-1.7696978666666725,1.9005501999999923
7.080387600000051,-1.7473572000000057,1.871826499999992
7.080387600000051,-1.7473572000000057,1.871826499999992
7.725074733333385,-1.7409742000000057,1.8845925999999922
8.36976186666672,-1.7345912000000059,1.897358699999992
9.014449000000054,-1.728208200000006,1.9101247999999922
9.014449000000056,-1.728208200000006,1.9101247999999922
10.284674000000058,-1.9069333333333391,2.021828033333325
11.554899000000058,-2.0856584666666724,2.1335312666666586
12.82512400000006,-2.2643836000000053,2.245234499999992
12.82512400000006,-2.2643836000000053,2.245234499999992
12.879379666666724,-2.3122564000000048,2.4941730666666584
12.93363533333339,-2.3601292000000047,2.7431116333333248
12.987891000000054,-2.4080020000000046,2.992050199999991
12.987891000000054,-2.4080020000000046,2.992050199999991
12.987891000000054,-2.4080020000000046,2.992050199999991
11.845327000000056,-2.5931101666666714,2.8803469666666577
10.70276300000006,-2.7782183333333386,2.7686437333333243
9.560199000000061,-2.9633265000000057,2.656940499999991
9.678285000000061,-2.4526832666666722,2.819708066666658
9.796371000000061,-1.9420400333333385,2.982475633333324
9.914457000000061,-1.4313968000000052,3.14524319999999
9.914457000000063,-1.4313968000000052,3.14524319999999
8.360186833333396,-1.472886566666672,2.9952417333333234
6.80591666666673,-1.5143763333333389,2.845240266666657
5.251646500000063,-1.5558661000000056,2.695238799999991
5.251646500000064,-1.5558661000000056,2.695238799999991
5.258029433333397,-2.031402566666672,2.672898099999991
5.26441236666673,-2.5069390333333392,2.6505573999999914
5.270795300000064,-2.9824755000000063,2.628216699999992
5.270795300000064,-2.9824755000000063,2.628216699999992
6.12612276666673,-3.154817666666673,3.0271567999999918
6.981450233333397,-3.3271598333333396,3.4260968999999926
7.836777700000063,-3.4995020000000063,3.8250369999999934
7.836777700000063,-3.4995020000000063,3.8250369999999934
7.836777700000063,-3.4995020000000063,3.8250369999999934
8.433591800000064,-3.8441862000000064,3.86014366666666
9.030405900000064,-4.188870400000006,3.895250333333326
9.627220000000065,-4.533554600000007,3.9303569999999923
10.160204000000064,-4.4250428333333405,3.9048248333333255
10.693188000000063,-4.3165310666666725,3.8792926666666587
11.226172000000062,-4.208019300000006,3.8537604999999915
11.226172000000062,-4.208019300000007,3.8537604999999915
11.226172000000062,-4.208019300000007,3.8537604999999915
11.436812333333394,-4.058017866666674,3.7803555333333247
11.647452666666728,-3.9080164333333407,3.706950566666658
11.85809300000006,-3.7580150000000074,3.6335455999999913
11.85809300000006,-3.7580150000000074,3.6335455999999913
11.641069666666729,-3.6973761333333406,3.253754733333325
11.424046333333395,-3.6367372666666733,2.8739638666666583
11.207023000000063,-3.5760984000000064,2.4941729999999915
11.522983333333398,-3.435671466666673,2.395235899999992
11.838943666666731,-3.29524453333334,2.2962987999999918
12.154904000000066,-3.1548176000000065,2.1973616999999916
12.154904000000066,-3.1548176000000065,2.1973616999999916
12.154904000000066,-3.1548176000000065,2.1973616999999916
10.450632333333397,-2.79098433333334,2.1175736666666585
8.74636066666673,-2.427151066666674,2.0377856333333253
7.042089000000061,-2.063317800000007,1.9579975999999923
7.042089000000061,-2.063317800000007,1.9579975999999923
6.684638833333394,-1.9548061000000072,1.8048046333333254
6.327188666666728,-1.8462944000000074,1.6516116666666587
5.969738500000061,-1.7377827000000075,1.498418699999992
5.969738500000062,-1.7377827000000075,1.498418699999992
5.969738500000062,-1.7377827000000075,1.498418699999992
5.969738500000062,-1.7377827000000075,1.498418699999992
5.969738500000062,-1.7377827000000075,1.498418699999992
7.144217666666729,-1.7473572666666743,1.463311999999992
8.318696833333396,-1.756931833333341,1.428205299999992
9.493176000000062,-1.766506400000008,1.3930985999999919
9.493176000000062,-1.766506400000008,1.3930985999999919
10.578293333333397,-1.798421600000008,1.651611733333325
11.66341066666673,-1.8303368000000078,1.9101248666666581
12.748528000000064,-1.8622520000000078,2.168637999999991
12.748528000000064,-1.8622520000000078,2.168637999999991
12.531504333333396,-1.8303368000000078,2.2101277666666577
12.31448066666673,-1.798421600000008,2.251617533333324
12.097457000000063,-1.766506400000008,2.2931072999999906
12.097457000000063,-1.766506400000008,2.2931072999999906
11.52936666666673,-2.0186365333333414,2.3569376666666577
10.961276333333396,-2.2707666666666744,2.4207680333333244
10.393186000000064,-2.522896800000008,2.484598399999991
10.393186000000064,-2.5228968000000083,2.484598399999991
10.393186000000064,-2.5228968000000083,2.484598399999991
10.677231000000063,-2.3058733666666744,2.618642266666658
10.961276000000064,-2.088849933333341,2.752686133333325
11.245321000000066,-1.8718265000000074,2.8867299999999916
9.282536166666732,-1.4728865000000075,2.810133499999992
7.319751333333399,-1.0739465000000077,2.7335369999999926
5.356966500000066,-0.6750065000000075,2.6569404999999926
5.356966500000067,-0.6750065000000075,2.656940499999993
5.366541000000066,-1.2430970666666743,2.452683233333326
5.376115500000066,-1.811187633333341,2.2484259666666593
5.385690000000065,-2.3792782000000074,2.044168699999992
5.385690000000065,-2.3792782000000074,2.0441686999999917
5.385690000000065,-2.3792782000000074,2.0441686999999917
6.071866833333399,-2.353746033333341,2.222893799999992
6.758043666666732,-2.3282138666666747,2.401618899999992
7.444220500000065,-2.3026817000000084,2.5803439999999918
8.274015666666733,-2.404810366666675,2.7367285333333253
9.103810833333398,-2.506939033333342,2.893113066666659
9.933606000000063,-2.609067700000008,3.049497599999992
9.933606000000063,-2.609067700000008,3.049497599999992
9.933606000000063,-2.609067700000008,3.049497599999992
10.600633833333397,-2.720770933333341,3.062263633333325
11.267661666666731,-2.8324741666666746,3.075029666666658
11.934689500000063,-2.944177400000008,3.0877956999999907
11.934689500000063,-2.944177400000008,3.0877956999999903
12.087882333333399,-3.0303484000000083,3.2282225999999903
12.241075166666734,-3.1165194000000085,3.3686494999999907
12.39426800000007,-3.2026904000000087,3.5090763999999908
11.883625000000071,-3.368649500000009,3.2346056666666576
11.37298200000007,-3.534608600000009,2.960134933333324
10.862339000000068,-3.7005677000000095,2.685664199999991
10.862339000000068,-3.7005677000000095,2.685664199999991
10.862339000000068,-3.7005677000000095,2.685664199999991
11.771922000000067,-3.604822066666676,2.599493133333324
12.681505000000067,-3.509076433333343,2.513322066666658
13.591088000000068,-3.4133308000000095,2.4271509999999914
13.591088000000068,-3.4133308000000095,2.4271509999999914
11.912348666666736,-3.0048162000000094,2.2580004333333243
10.233609333333403,-2.596301600000009,2.0888498666666577
8.55487000000007,-2.187787000000009,1.9196992999999907
8.55487000000007,-2.187787000000009,1.9196992999999907
7.833586333333403,-2.1462972666666755,1.7505487666666575
7.112302666666736,-2.1048075333333425,1.5813982333333243
6.391019000000068,-2.063317800000009,1.4122476999999911
6.391019000000068,-2.063317800000009,1.4122476999999911
6.7580438666667355,-1.948423100000009,1.3452257666666576
7.125068733333403,-1.8335284000000087,1.2782038333333243
7.492093600000069,-1.7186337000000087,1.2111818999999908
7.492093600000069,-1.7186337000000087,1.2111818999999908
7.967630066666736,-1.5845898333333421,1.2558631666666578
8.443166533333402,-1.4505459666666756,1.3005444333333245
8.91870300000007,-1.316502100000009,1.3452256999999914
8.918703000000072,-1.316502100000009,1.3452256999999914
9.502751333333405,-1.4537374666666756,1.434588266666658
10.086799666666737,-1.5909728333333424,1.5239508333333245
10.67084800000007,-1.728208200000009,1.6133133999999911
11.165533333333405,-1.6962929666666755,1.7282081333333246
11.660218666666738,-1.6643777333333423,1.8431028666666582
12.154904000000073,-1.6324625000000088,1.9579975999999917
12.154904000000073,-1.6324625000000088,1.9579975999999917
12.154904000000073,-1.6324625000000088,1.9579975999999917
11.628303333333406,-1.782463933333342,2.1303397333333254
11.101702666666739,-1.9324653666666753,2.302681866666658
10.575102000000072,-2.0824668000000086,2.475023999999991
10.575102000000072,-2.082466800000008,2.475023999999991
11.06340450000007,-2.111190533333341,2.5931101666666576
11.55170700000007,-2.139914266666674,2.711196333333324
12.040009500000068,-2.168638000000007,2.829282499999991
10.415525766666734,-1.9069333333333407,2.9760924666666573
8.791042033333401,-1.645228666666674,3.122902433333324
7.1665583000000685,-1.3835240000000073,3.2697123999999906
7.166558300000069,-1.3835240000000073,3.2697123999999906
6.202719200000071,-1.7026760000000074,2.960134933333324
5.238880100000071,-2.0218280000000077,2.650557466666658
4.275041000000071,-2.3409800000000076,2.340979999999991
4.27504100000007,-2.3409800000000076,2.340979999999991
4.96121800000007,-2.4463001666666746,2.535662766666658
5.64739500000007,-2.551620333333341,2.7303455333333244
6.333572000000069,-2.6569405000000077,2.925028299999991
6.333572000000069,-2.6569405000000073,2.9250282999999904
7.243155333333402,-2.9346027666666736,3.100561866666657
8.152738666666734,-3.2122650333333405,3.276095433333323
9.062322000000067,-3.4899273000000073,3.45162899999999
9.062322000000066,-3.4899273000000073,3.45162899999999
9.892117000000065,-3.5984390000000075,3.4643950999999897
10.721912000000065,-3.7069507000000073,3.477161199999989
11.551707000000064,-3.815462400000007,3.489927299999989
11.551707000000064,-3.815462400000007,3.489927299999989
11.810220333333397,-3.7548234666666738,3.563332233333323
12.06873366666673,-3.6941845333333405,3.636737166666656
12.327247000000064,-3.6335456000000073,3.71014209999999
12.327247000000064,-3.6335456000000073,3.71014209999999
11.800646000000064,-3.690992966666674,3.53460849999999
11.274045000000065,-3.7484403333333405,3.3590748999999893
10.747444000000066,-3.805887700000007,3.1835412999999892
10.747444000000066,-3.805887700000007,3.1835412999999892
11.663410333333397,-3.7324827666666742,2.925028199999989
12.57937666666673,-3.6590778333333414,2.666515099999989
13.495343000000062,-3.585672900000008,2.408001999999989
13.495343000000062,-3.585672900000008,2.408001999999989
13.495343000000062,-3.585672900000008,2.408001999999989
12.387885666666731,-3.1101363666666746,2.2452344333333225
11.280428333333397,-2.634599833333341,2.0824668666666555
10.172971000000063,-2.1590633000000072,1.919699299999989
8.81657466666673,-1.9707636666666744,1.8494858666666556
7.460178333333396,-1.7824640333333412,1.7792724333333225
6.103782000000063,-1.5941644000000081,1.7090589999999892
6.103782000000063,-1.5941644000000081,1.7090589999999892
6.103782000000063,-1.5941644000000081,1.7090589999999892
6.18037866666673,-1.6005474000000082,1.5494830333333225
6.256975333333397,-1.6069304000000084,1.389907066666656
6.333572000000064,-1.6133134000000087,1.2303310999999892
6.333572000000064,-1.6133134000000087,1.2303310999999892
7.109111333333398,-1.5430999666666751,1.2654377999999893
7.88465066666673,-1.4728865333333419,1.3005444999999893
8.660190000000062,-1.4026731000000086,1.3356511999999894
8.947426666666729,-1.4473543666666753,1.4952271999999895
9.234663333333396,-1.492035633333342,1.6548031999999895
9.521900000000064,-1.536716900000009,1.8143791999999896
9.521900000000064,-1.536716900000009,1.8143791999999896
9.521900000000064,-1.536716900000009,1.8143791999999896
10.04530966666673,-1.549483000000009,1.9867212666666563
10.568719333333396,-1.562249100000009,2.159063333333323
11.092129000000062,-1.575015200000009,2.3314053999999897
11.092129000000062,-1.575015200000009,2.33140539999999
11.408089166666727,-1.7186335666666759,2.59630159999999
11.724049333333392,-1.8622519333333427,2.8611977999999905
12.040009500000059,-2.0058703000000095,3.126093999999991
12.040009500000059,-2.00587030000001,3.126093999999991
11.558090000000059,-2.37927820000001,2.953751899999991
11.07617050000006,-2.7526861000000102,2.781409799999991
10.59425100000006,-3.1260940000000104,2.6090676999999913
10.594251000000062,-3.1260940000000104,2.6090676999999913
10.674039000000063,-2.9282197333333433,2.9122621333333245
10.753827000000063,-2.7303454666666767,3.2154565666666577
10.833615000000064,-2.53247120000001,3.518650999999991
10.833615000000064,-2.53247120000001,3.518650999999991
9.355941266666727,-2.4048104666666767,3.2984360666666572
7.878267533333393,-2.2771497333333435,3.078221133333324
6.40059380000006,-2.1494890000000098,2.858006199999991
6.40059380000006,-2.1494890000000093,2.858006199999991
5.969738533333394,-2.296298866666676,2.631408266666657
5.538883266666727,-2.4431087333333426,2.4048103333333235
5.108028000000061,-2.589918600000009,2.1782123999999903
5.108028000000061,-2.589918600000009,2.1782123999999903
5.656969433333394,-2.6920472666666755,2.37608669999999
6.205910866666727,-2.7941759333333422,2.57396099999999
6.75485230000006,-2.896304600000009,2.77183529999999
6.75485230000006,-2.896304600000009,2.77183529999999
7.811245533333394,-3.075029700000009,2.91864519999999
8.867638766666728,-3.2537548000000087,3.0654550999999906
9.924032000000063,-3.432479900000009,3.212264999999991
9.924032000000063,-3.432479900000009,3.212264999999991
10.530420666666727,-3.5314170000000087,3.292052999999991
11.136809333333394,-3.630354100000009,3.371840999999991
11.743198000000058,-3.729291200000009,3.451628999999991
11.775113333333392,-3.8314199333333416,3.4420544666666575
11.807028666666724,-3.9335486666666744,3.432479933333324
11.838944000000057,-4.035677400000007,3.42290539999999
11.838944000000057,-4.035677400000007,3.42290539999999
11.838944000000057,-4.035677400000007,3.42290539999999
11.724049333333392,-4.038868933333339,3.046306033333323
11.609154666666726,-4.042060466666673,2.6697066666666562
11.49426000000006,-4.045252000000006,2.2931072999999897
11.49426000000006,-4.045252000000007,2.2931072999999897
11.972988000000058,-3.7643981333333403,2.3697037999999897
12.451716000000056,-3.4835442666666734,2.44630029999999
12.930444000000056,-3.202690400000007,2.5228967999999905
12.930444000000056,-3.202690400000007,2.5228967999999905
11.178299433333388,-2.8197079666666736,2.4207681333333237
9.426154866666721,-2.4367255333333406,2.318639466666657
7.674010300000053,-2.0537431000000073,2.2165107999999907
7.674010300000053,-2.0537431000000073,2.2165107999999907
7.2271975333333875,-2.047360066666674,2.025019599999991
6.780384766666721,-2.040977033333341,1.8335283999999907
6.333572000000054,-2.0345940000000073,1.6420371999999908
6.333572000000054,-2.0345940000000073,1.6420371999999908
6.643149433333388,-1.788846966666674,1.5845897999999907
6.952726866666722,-1.5430999333333404,1.5271423999999907
7.2623043000000544,-1.2973529000000072,1.4696949999999906
7.2623043000000544,-1.297352900000007,1.4696949999999906
7.683584866666721,-1.3516087333333404,1.5048017333333241
8.104865433333389,-1.4058645666666738,1.5399084666666576
8.526146000000056,-1.4601204000000072,1.575015199999991
8.526146000000056,-1.4601204000000072,1.575015199999991
9.295302333333387,-1.498418666666674,1.7888470666666576
10.06445866666672,-1.5367169333333406,2.0026789333333244
10.833615000000052,-1.5750152000000073,2.2165107999999907
10.833615000000052,-1.5750152000000073,2.2165107999999907
11.200639833333383,-1.6707608000000072,2.4303425999999906
11.567664666666715,-1.766506400000007,2.6441743999999905
11.934689500000047,-1.862252000000007,2.858006199999991
11.934689500000047,-1.862252000000007,2.858006199999991
11.385748333333382,-2.2324683333333404,2.870772333333324
10.836807166666716,-2.602684666666674,2.8835384666666575
10.28786600000005,-2.9729010000000073,2.8963045999999912
10.28786600000005,-2.9729010000000073,2.8963045999999912
10.776168333333382,-3.0175822666666736,3.122902533333324
11.264470666666716,-3.06226353333334,3.349500466666657
11.752773000000047,-3.106944800000006,3.57609839999999
11.752773000000047,-3.106944800000006,3.57609839999999
10.342121100000048,-2.7590691333333397,3.56971529999999
8.931469200000047,-2.4111934666666737,3.5633321999999907
7.520817300000047,-2.063317800000007,3.5569490999999913
7.520817300000047,-2.063317800000007,3.5569490999999913
6.67187293333338,-2.325022466666674,3.298435966666658
5.822928566666714,-2.5867271333333406,3.039922833333325
4.973984200000047,-2.8484318000000073,2.7814096999999918
4.973984200000047,-2.8484318000000073,2.7814096999999918
5.3059023000000485,-2.9090706333333407,2.9090705333333253
5.637820400000049,-2.9697094666666737,3.036731366666659
5.969738500000049,-3.030348300000007,3.1643921999999924
5.969738500000051,-3.030348300000007,3.1643921999999924
6.872938666666717,-3.4197138666666738,3.196307399999992
7.776138833333384,-3.80907943333334,3.228222599999992
8.67933900000005,-4.198445000000007,3.2601377999999923
8.67933900000005,-4.198445000000007,3.260137799999993
9.429346000000052,-4.2080195333333394,3.1229024666666603
10.179353000000054,-4.217594066666673,2.9856671333333273
10.929360000000054,-4.227168600000006,2.8484317999999944
10.929360000000054,-4.227168600000006,2.8484317999999944
11.152766666666722,-4.185678833333339,2.7782183333333275
11.376173333333389,-4.144189066666672,2.7080048666666605
11.599580000000055,-4.102699300000005,2.6377913999999936
11.599580000000055,-4.102699300000005,2.6377913999999936
11.538941333333389,-4.0580179666666725,2.468640799999994
11.478302666666721,-4.013336633333341,2.2994901999999944
11.417664000000054,-3.968655300000009,2.1303395999999952
11.417664000000054,-3.968655300000009,2.1303395999999952
11.768731000000054,-3.7580149666666753,1.865443466666662
12.119798000000054,-3.5473746333333422,1.6005473333333287
12.470865000000055,-3.3367343000000087,1.3356511999999954
12.470865000000055,-3.3367343000000087,1.3356511999999954
11.379365000000055,-2.976092533333342,1.3516087999999955
10.287865000000055,-2.6154507666666755,1.3675663999999956
9.196365000000053,-2.2548090000000087,1.3835239999999958
9.196365000000052,-2.2548090000000087,1.383523999999996
8.191036333333386,-2.037785633333342,1.3260766333333291
7.18570766666672,-1.8207622666666754,1.2686292666666625
6.1803790000000545,-1.6037389000000086,1.211181899999996
6.1803790000000545,-1.6037389000000086,1.2111818999999961
6.534637666666721,-1.5973558333333422,1.0899041333333297
6.8888963333333875,-1.5909727666666758,0.9686263666666631
7.243155000000054,-1.5845897000000093,0.8473485999999966
7.243155000000054,-1.5845897000000093,0.8473485999999966
8.037843333333386,-1.5462914666666758,1.0037330999999965
8.83253166666672,-1.5079932333333421,1.1601175999999966
9.627220000000053,-1.4696950000000086,1.3165020999999966
9.627220000000053,-1.4696950000000086,1.3165020999999966
9.627220000000053,-1.4696950000000086,1.3165020999999966
10.160204000000052,-1.5877812333333419,1.4696950666666633
10.69318800000005,-1.7058674666666753,1.6228880333333302
11.22617200000005,-1.8239537000000086,1.776080999999997
11.516600333333384,-1.5941642666666753,2.002678899999997
11.807028666666717,-1.3643748333333419,2.2292767999999974
12.09745700000005,-1.1345854000000086,2.4558746999999976
12.09745700000005,-1.1345854000000086,2.4558746999999976
12.09745700000005,-1.1345854000000086,2.4558746999999976
11.912348666666718,-1.3548002666666754,2.490981466666664
11.727240333333386,-1.5750151333333422,2.5260882333333305
11.542132000000054,-1.795230000000009,2.5611949999999966
11.542132000000054,-1.795230000000009,2.5611949999999966
11.299576666666722,-1.8271452333333424,2.420768099999997
11.057021333333388,-1.8590604666666757,2.280341199999997
10.814466000000055,-1.8909757000000091,2.139914299999997
10.281482000000056,-1.5494830333333425,2.1814040666666634
9.748498000000057,-1.2079903666666756,2.22289383333333
9.215514000000057,-0.8664977000000089,2.2643835999999964
9.215514000000057,-0.8664977000000089,2.2643835999999964
7.929331500000058,-1.3962900333333426,2.1462973333333295
6.643149000000058,-1.926082366666676,2.0282110666666626
5.356966500000058,-2.4558747000000096,1.910124799999996
5.356966500000058,-2.4558747000000096,1.910124799999996
5.356966500000058,-2.4558747000000096,1.910124799999996
5.854843666666724,-2.6601320333333427,1.9803382666666627
6.35272083333339,-2.864389366666676,2.050551733333329
6.8505980000000575,-3.0686467000000093,2.1207651999999957
6.8505980000000575,-3.0686467000000093,2.1207651999999952
7.910182666666723,-2.8899215333333426,2.516513666666662
8.969767333333392,-2.7111963666666754,2.9122621333333285
10.029352000000058,-2.5324712000000087,3.3080105999999945
10.255950000000057,-2.4271510666666756,3.2537547999999945
10.482548000000056,-2.321830933333342,3.1994989999999945
10.709146000000056,-2.216510800000009,3.1452431999999946
10.709146000000056,-2.216510800000009,3.1452431999999946
10.709146000000056,-2.216510800000009,3.1452431999999946
10.820849000000058,-1.7728894666666755,2.944177399999995
10.932552000000058,-1.3292681333333423,2.7431115999999953
11.044255000000058,-0.8856468000000088,2.5420457999999955
11.044255000000058,-0.8856468000000088,2.5420457999999955
11.59000500000006,-0.8122418666666755,2.3314054666666624
12.13575500000006,-0.7388369333333422,2.120765133333329
12.68150500000006,-0.6654320000000089,1.9101247999999955
11.985753666666726,-0.48032381466667556,1.4601204533333287
11.290002333333392,-0.2952156293333423,1.010116106666662
10.594251000000058,-0.11010744400000894,0.5601117599999952
10.594251000000058,-0.11010744400000894,0.5601117599999953
10.594251000000058,-0.11010744400000894,0.5601117599999953
10.670847333333393,-0.32713080933334227,0.41968487999999526
10.747443666666726,-0.5441541746666756,0.2792579999999953
10.824040000000059,-0.761177540000009,0.1388311199999953
10.824040000000059,-0.7611775400000088,0.1388311199999953
9.767647000000057,-0.6558573833333422,0.41649337999999525
8.711254000000057,-0.5505372266666754,0.6941556399999952
7.654861000000057,-0.44521707000000865,0.9718178999999952
7.383581800000058,-0.45160010333334205,1.0324567999999954
7.112302600000057,-0.45798313666667534,1.0930956999999955
6.841023400000058,-0.4643661700000086,1.1537345999999957
6.841023400000058,-0.4643661700000086,1.1537345999999957
6.841023400000058,-0.4643661700000086,1.1537345999999957
7.683584933333392,-0.5154304900000087,1.1409684999999958
8.526146466666725,-0.5664948100000088,1.1282023999999957
9.368708000000058,-0.6175591300000088,1.1154362999999956
9.36870800000006,-0.6175591300000088,1.1154362999999956
9.965522000000059,-0.9718178866666755,1.2654377666666623
10.562336000000059,-1.326076643333342,1.415439233333329
11.159150000000059,-1.6803354000000086,1.5654406999999957
11.159150000000059,-1.6803354000000086,1.5654406999999957
11.363407333333393,-1.5813982666666755,1.7760810333333292
11.56766466666673,-1.4824611333333424,1.9867213666666625
11.771922000000066,-1.3835240000000093,2.197361699999996
11.771922000000066,-1.3835240000000095,2.197361699999996
12.365545000000063,-1.153734543333343,2.2962987999999958
12.959168000000062,-0.9239450866666764,2.395235899999996
13.552791000000061,-0.6941556300000098,2.494172999999996
13.552791000000061,-0.6941556300000098,2.494172999999996
12.483631333333394,-0.7164962666666765,2.360129166666663
11.414471666666728,-0.7388369033333433,2.2260853333333297
10.345312000000062,-0.76117754000001,2.0920414999999966
10.345312000000062,-0.76117754000001,2.0920414999999966
10.099565000000062,-0.8952213933333434,1.7856555333333297
9.853818000000063,-1.0292652466666767,1.479269566666663
9.608071000000065,-1.16330910000001,1.1728835999999965
9.608071000000065,-1.16330910000001,1.1728835999999965
9.234663333333396,-1.153734533333343,1.345225699999996
8.861255666666729,-1.1441599666666764,1.517567799999996
8.487848000000062,-1.1345854000000095,1.6899098999999957
8.487848000000062,-1.1345854000000095,1.6899098999999957
7.421880200000061,-1.0005415666666764,1.6228879999999961
6.355912400000061,-0.8664977333333432,1.5558660999999965
5.28994460000006,-0.7324539000000101,1.4888441999999966
5.28994460000006,-0.7324539000000101,1.4888441999999966
5.80377940000006,-1.2813953333333432,1.62607953333333
6.317614200000061,-1.8303367666666768,1.7633148666666634
6.8314490000000605,-2.37927820000001,1.900550199999997
6.8314490000000605,-2.3792782000000106,1.9005501999999972
7.565498666666727,-2.950560266666677,2.1207651333333306
8.299548333333393,-3.521842333333343,2.340980066666664
9.03359800000006,-4.0931244000000095,2.5611949999999974
9.03359800000006,-4.093124400000009,2.5611949999999974
9.550624333333394,-4.217593600000009,2.7048133999999973
10.067650666666728,-4.342062800000009,2.848431799999997
10.584677000000061,-4.466532000000009,2.9920501999999973
10.584677000000061,-4.466532000000009,2.9920501999999973
10.970850666666728,-4.49525580000001,3.0782212666666635
11.357024333333394,-4.5239796000000085,3.16439233333333
11.743198000000062,-4.552703400000008,3.2505633999999968
11.743198000000062,-4.5527034000000075,3.250563399999996
11.40489700000006,-4.546320466666674,3.142051699999996
11.06659600000006,-4.539937533333341,3.0335399999999964
10.728295000000058,-4.5335546000000075,2.925028299999996
10.728295000000054,-4.5335546000000075,2.925028299999996
11.26447066666672,-4.485681733333341,2.666515199999996
11.800646333333384,-4.437808866666674,2.408002099999996
12.33682200000005,-4.389936000000008,2.149488999999996
12.33682200000005,-4.3899360000000085,2.149488999999996
11.688943333333384,-3.7580150000000088,2.0888500666666627
11.041064666666719,-3.126094000000009,2.0282111333333295
10.393186000000052,-2.4941730000000093,1.967572199999996
10.393186000000052,-2.4941730000000093,1.967572199999996
8.896362866666719,-2.1941701333333428,1.8494859333333293
7.399539733333384,-1.8941672666666765,1.7313996666666627
5.90271660000005,-1.59416440000001,1.6133133999999958
5.90271660000005,-1.59416440000001,1.6133133999999958
5.98250450000005,-1.511184833333343,1.4186306999999958
6.062292400000049,-1.4282052666666765,1.2239479999999956
6.142080300000049,-1.3452257000000098,1.0292652999999954
6.142080300000049,-1.3452257000000098,1.0292652999999954
7.185707533333382,-1.4345882666666763,1.1186278333333284
8.229334766666716,-1.523950833333343,1.2079903666666616
9.272962000000048,-1.6133134000000096,1.2973528999999948
9.885734000000049,-1.7441657000000097,1.488844099999995
10.498506000000049,-1.8750180000000098,1.680335299999995
11.111278000000048,-2.00587030000001,1.871826499999995
11.111278000000048,-2.0058703000000104,1.871826499999995
11.111278000000048,-2.0058703000000104,1.871826499999995
11.835752666666716,-1.766506333333344,1.9803382333333284
12.560227333333382,-1.5271423666666777,2.0888499666666616
13.284702000000047,-1.287778400000011,2.197361699999995
13.284702000000047,-1.287778400000011,2.197361699999995
12.576184666666714,-1.386715500000011,2.235659899999995
11.867667333333381,-1.4856526000000112,2.273958099999995
11.159150000000048,-1.584589700000011,2.3122562999999947
10.622974666666716,-1.8303368000000109,2.2165107333333283
10.086799333333383,-2.0760839000000106,2.120765166666662
9.55062400000005,-2.32183100000001,2.0250195999999954
9.55062400000005,-2.32183100000001,2.0250195999999954
9.55062400000005,-2.32183100000001,2.0250195999999954
9.809137000000051,-1.7569319000000103,2.117573633333329
10.067650000000052,-1.1920328000000102,2.2101276666666627
10.326163000000053,-0.6271337000000105,2.302681699999996
10.326163000000053,-0.6271337000000105,2.302681699999996
8.580401666666718,-0.780326666666677,2.190978533333329
6.834640333333385,-0.9335196333333439,2.079275366666662
5.088879000000051,-1.0867126000000107,1.9675721999999947
5.356966566666718,-1.651611633333344,1.9994873999999945
5.625054133333386,-2.2165106666666774,2.031402599999995
5.893141700000053,-2.7814097000000104,2.063317799999995
5.893141700000053,-2.7814097000000104,2.063317799999995
5.893141700000053,-2.7814097000000104,2.063317799999995
6.7452778000000535,-2.68247260000001,2.4909815333333287
7.597413900000054,-2.5835355000000098,2.918645266666662
8.449550000000054,-2.4845984000000096,3.346308999999995
8.937852333333387,-2.602684666666677,3.3399258666666616
9.426154666666719,-2.7207709333333434,3.3335427333333283
9.91445700000005,-2.8388572000000103,3.327159599999995
9.91445700000005,-2.8388572000000103,3.327159599999995
10.578293333333384,-3.0080078000000103,3.2058818999999947
11.242129666666719,-3.1771584000000104,3.0846041999999945
11.905966000000051,-3.3463090000000104,2.963326499999994
11.905966000000051,-3.3463090000000104,2.9633264999999938
11.905966000000051,-3.3463090000000104,2.9633264999999938
11.749581333333383,-3.4005648000000104,3.0143908333333265
11.593196666666715,-3.4548206000000103,3.065455166666659
11.436812000000048,-3.5090764000000103,3.116519499999992
11.436812000000046,-3.5090764000000103,3.116519499999992
11.219789000000043,-3.502693366666677,2.9026876666666594
11.002766000000042,-3.496310333333344,2.6888558333333266
10.78574300000004,-3.4899273000000104,2.4750239999999937
11.963413666666705,-3.343117400000011,2.43034266666666
13.141084333333373,-3.1963075000000107,2.385661333333327
14.318755000000039,-3.049497600000011,2.340979999999994
14.318755000000039,-3.049497600000011,2.3409799999999943
14.318755000000039,-3.049497600000011,2.3409799999999943
12.081499466666704,-2.7239625333333444,2.194170066666661
9.84424393333337,-2.398427466666678,2.0473601333333273
7.606988400000038,-2.0728924000000113,1.9005501999999936
7.606988400000038,-2.0728924000000113,1.9005501999999936
6.911236933333371,-1.9196994000000114,1.6356540666666604
6.215485466666705,-1.7665064000000115,1.370757933333327
5.519734000000039,-1.6133134000000116,1.1058617999999936
6.0910162000000385,-1.587781233333345,1.0707550666666603
6.662298400000039,-1.5622490666666782,1.035648333333327
7.233580600000039,-1.5367169000000116,1.000541599999994
7.233580600000039,-1.5367169000000116,1.000541599999994
7.233580600000039,-1.5367169000000116,1.000541599999994
8.053801233333372,-1.4537374000000114,1.0420313333333275
8.874021866666705,-1.3707579000000116,1.0835210666666608
9.694242500000039,-1.2877784000000119,1.125010799999994
9.694242500000037,-1.2877784000000119,1.125010799999994
10.469782000000038,-1.4186307333333452,1.3196935333333275
11.245321500000037,-1.5494830666666786,1.5143762666666607
12.020861000000034,-1.680335400000012,1.7090589999999939
12.116606666666703,-1.696293000000012,1.9069332333333275
12.21235233333337,-1.7122506000000122,2.1048074666666614
12.308098000000038,-1.7282082000000123,2.302681699999995
12.308098000000038,-1.7282082000000123,2.302681699999995
12.308098000000038,-1.7282082000000123,2.302681699999995
11.609154666666706,-1.8367198333333457,2.277149533333328
10.910211333333374,-1.945231466666679,2.251617366666661
10.211268000000041,-2.053743100000012,2.226085199999994
10.211268000000043,-2.053743100000012,2.226085199999994
10.57510166666671,-2.114382000000012,2.318639299999994
10.938935333333376,-2.1750209000000122,2.4111933999999935
11.30276900000004,-2.2356598000000125,2.5037474999999936
11.30276900000004,-2.2356598000000125,2.5037474999999936
9.611263166666708,-1.8782095666666792,2.6250253333333267
7.919757333333375,-1.520759333333346,2.74630316666666
6.228251500000042,-1.1633091000000129,2.8675809999999937
5.759098066666709,-1.4920357333333458,2.577152599999994
5.289944633333377,-1.8207623666666792,2.2867241999999943
4.820791200000045,-2.1494890000000124,1.9962957999999944
4.820791200000046,-2.1494890000000124,1.9962957999999944
4.820791200000046,-2.1494890000000124,1.9962957999999944
5.589947466666712,-2.4782155000000126,2.1207651333333275
6.35910373333338,-2.8069420000000123,2.245234466666661
7.128260000000047,-3.135668500000012,2.369703799999994
7.128260000000047,-3.135668500000012,2.369703799999994
8.149546666666714,-3.1548176666666787,2.583535599999994
9.17083333333338,-3.1739668333333455,2.797367399999994
10.192120000000047,-3.1931160000000123,3.0111991999999943
10.836807000000045,-3.2537549000000126,3.068646566666661
11.481494000000046,-3.3143938000000124,3.1260939333333275
12.126181000000045,-3.3750327000000127,3.183541299999994
12.126181000000045,-3.3750327000000127,3.183541299999994
12.126181000000045,-3.3750327000000127,3.183541299999994
12.324055333333376,-3.5186510333333456,3.167583699999994
12.521929666666708,-3.662269366666679,3.151626099999994
12.719804000000039,-3.805887700000012,3.1356684999999938
12.719804000000039,-3.805887700000012,3.1356684999999938
12.340013000000042,-3.662269366666679,2.723962399999994
11.960222000000044,-3.5186510333333456,2.312256299999994
11.580431000000047,-3.3750327000000127,1.9005501999999936
11.93149833333338,-3.237797300000013,1.8686350333333273
12.282565666666713,-3.1005619000000126,1.8367198666666606
12.633633000000046,-2.963326500000012,1.804804699999994
12.633633000000046,-2.9633265000000115,1.804804699999994
12.633633000000046,-2.9633265000000115,1.804804699999994
10.970850866666714,-2.481406966666678,1.7186336333333276
9.30806873333338,-1.9994874333333443,1.6324625666666612
7.645286600000045,-1.5175679000000108,1.5462914999999946
7.645286600000045,-1.5175679000000108,1.5462914999999946
7.022940200000046,-1.332459700000011,1.4665034666666614
6.400593800000046,-1.147351500000011,1.3867154333333283
5.778247400000048,-0.9622433000000111,1.306927399999995
5.778247400000048,-0.9622433000000111,1.3069273999999949
6.448466600000047,-1.000541566666678,1.2335224666666615
7.118685800000048,-1.0388398333333446,1.1601175333333282
7.788905000000049,-1.0771381000000113,1.086712599999995
7.7889050000000495,-1.0771381000000113,1.086712599999995
8.663381333333383,-1.1473515333333444,1.1026701999999948
9.537857666666717,-1.2175649666666777,1.1186277999999945
10.412334000000051,-1.287778400000011,1.1345853999999944
10.412334000000051,-1.2877784000000108,1.1345853999999944
11.076170333333385,-1.338842733333344,1.2750122999999947
11.740006666666718,-1.3899070666666773,1.4154391999999947
12.403843000000052,-1.4409714000000104,1.555866099999995
12.403843000000052,-1.4409714000000104,1.555866099999995
12.432566666666718,-1.4696950666666773,1.6452286333333281
12.461290333333386,-1.498418733333344,1.7345911666666611
12.490014000000052,-1.5271424000000107,1.8239536999999943
12.490014000000052,-1.5271424000000107,1.8239536999999943
11.650644333333384,-1.6324625666666774,1.8367197999999945
10.811274666666717,-1.7377827333333442,1.8494858999999944
9.97190500000005,-1.8431029000000108,1.8622519999999945
9.97190500000005,-1.8431029000000108,1.8622519999999945
10.466590333333384,-1.8079961666666773,2.025019566666661
10.961275666666717,-1.7728894333333443,2.187787133333328
11.455961000000052,-1.737782700000011,2.3505546999999947
11.455961000000052,-1.737782700000011,2.3505546999999947
9.620837000000051,-1.5973558333333446,2.3760867999999946
7.785713000000051,-1.456928966666678,2.401618899999995
5.9505890000000505,-1.3165021000000114,2.427150999999995
5.9505890000000505,-1.3165021000000114,2.427150999999995
5.6505861666667165,-1.6133134333333448,2.2739580666666614
5.3505833333333825,-1.910124766666678,2.1207651333333275
5.0505805000000485,-2.206936100000011,1.967572199999994
5.0505805000000485,-2.206936100000011,1.967572199999994
5.845269000000049,-2.4399170666666783,2.2037447333333273
6.63995750000005,-2.672898033333345,2.4399172666666606
7.4346460000000505,-2.9058790000000116,2.6760897999999944
7.4346460000000505,-2.9058790000000116,2.6760897999999944
8.152738166666717,-2.816516466666678,2.7654523333333274
8.870830333333386,-2.7271539333333443,2.8548148666666613
9.588922500000052,-2.6377914000000104,2.944177399999995
9.588922500000052,-2.6377914000000104,2.944177399999995
9.588922500000052,-2.6377914000000104,2.944177399999995
10.514463333333383,-2.743111533333344,2.9314112666666623
11.440004166666716,-2.8484316666666776,2.9186451333333294
12.365545000000047,-2.9537518000000116,2.9058789999999965
12.62405833333338,-3.011199200000012,2.9346027333333295
12.882571666666715,-3.0686466000000117,2.9633264666666626
13.141085000000052,-3.1260940000000113,2.9920501999999956
13.141085000000052,-3.1260940000000113,2.9920501999999956
12.317672666666718,-3.2058820000000114,2.6760896999999955
11.494260333333386,-3.2856700000000116,2.360129199999996
10.670848000000055,-3.3654580000000114,2.044168699999996
10.670848000000055,-3.3654580000000114,2.044168699999996
11.666602333333387,-3.209073533333345,1.9611891333333293
12.662356666666719,-3.0526890666666784,1.8782095666666627
13.658111000000053,-2.8963046000000117,1.7952299999999959
13.658111000000053,-2.8963046000000117,1.7952299999999959
11.995328833333387,-2.564386466666678,1.7409741666666625
10.33254666666672,-2.2324683333333444,1.686718333333329
8.669764500000054,-1.900550200000011,1.6324624999999957
8.669764500000054,-1.900550200000011,1.6324624999999957
7.760181333333388,-1.8718265333333441,1.4952271333333291
6.850598166666721,-1.8431028666666773,1.3579917666666625
5.941015000000054,-1.8143792000000107,1.2207563999999957
5.941015000000054,-1.8143792000000107,1.220756399999996
6.378253133333388,-1.7218251000000107,1.1824581999999961
6.815491266666721,-1.6292710000000106,1.1441599999999963
7.252729400000054,-1.5367169000000105,1.1058617999999965
7.252729400000054,-1.5367169000000105,1.1058617999999965
7.792096600000053,-1.4888441333333438,1.1282023999999964
8.331463800000051,-1.440971366666677,1.1505429999999965
8.87083100000005,-1.3930986000000105,1.1728835999999965
8.87083100000005,-1.3930986000000105,1.1728835999999965
9.703817333333385,-1.4984187333333436,1.2016072999999963
10.53680366666672,-1.603738866666677,1.2303309999999963
11.369790000000057,-1.7090590000000103,1.259054699999996
11.369790000000057,-1.7090590000000103,1.2590546999999959
11.80702833333339,-1.7792724333333438,1.338842699999996
12.244266666666723,-1.849485866666677,1.418630699999996
12.681505000000056,-1.9196993000000102,1.498418699999996
12.681505000000056,-1.9196993000000102,1.498418699999996
12.681505000000056,-1.9196993000000102,1.498418699999996
11.736815000000055,-1.9867212666666767,1.6133134333333292
10.792125000000055,-2.053743233333343,1.7282081666666624
9.847435000000056,-2.12076520000001,1.8431028999999957
10.495313666666723,-2.2260853333333435,1.957997599999996
11.143192333333388,-2.3314054666666766,2.072892299999996
11.791071000000054,-2.43672560000001,2.187786999999996
11.791071000000054,-2.43672560000001,2.187786999999996
10.61020866666672,-2.0601262000000102,2.430342566666663
9.429346333333385,-1.68352680000001,2.6728981333333297
8.24848400000005,-1.3069274000000102,2.9154536999999965
8.24848400000005,-1.3069274000000102,2.9154536999999965
8.24848400000005,-1.3069274000000102,2.9154536999999965
7.131451833333384,-1.48884410000001,2.7080048999999957
6.0144196666667185,-1.6707608000000098,2.5005560999999954
4.897387500000052,-1.8526775000000095,2.293107299999995
5.283561533333386,-2.203744666666676,2.3026818666666617
5.669735566666719,-2.5548118333333427,2.3122564333333284
6.055909600000052,-2.9058790000000094,2.3218309999999955
6.055909600000052,-2.9058790000000094,2.3218309999999955
6.917620066666719,-2.848431666666676,2.5899186666666623
7.779330533333386,-2.7909843333333426,2.858006333333329
8.641041000000053,-2.733537000000009,3.126093999999996
8.641041000000053,-2.733537000000009,3.126093999999996
8.641041000000053,-2.733537000000009,3.126093999999996
9.777222000000052,-2.746303100000009,3.1931158666666626
10.91340300000005,-2.7590692000000083,3.260137733333329
12.049584000000047,-2.771835300000008,3.327159599999996
12.049584000000047,-2.771835300000008,3.327159599999996
12.35916133333338,-2.7846013666666756,3.295244399999996
12.668738666666712,-2.797367433333342,3.263329199999996
12.978316000000044,-2.8101335000000085,3.2314139999999956
12.36235266666671,-3.1580091666666754,2.982475466666662
11.746389333333378,-3.5058848333333423,2.7335369333333284
11.130426000000044,-3.8537605000000092,2.484598399999995
11.130426000000044,-3.8537605000000092,2.4845983999999954
11.130426000000044,-3.8537605000000092,2.4845983999999954
11.408088333333376,-3.7069506000000096,2.111190566666662
11.685750666666712,-3.56014070000001,1.7377827333333287
11.963413000000045,-3.41333080000001,1.3643748999999954
11.963413000000045,-3.41333080000001,1.3643748999999954
11.743198333333376,-3.049497533333343,1.3292681666666621
11.52298366666671,-2.685664266666676,1.294161433333329
11.30276900000004,-2.321831000000009,1.2590546999999959
9.821903566666707,-2.0505517333333425,1.2654377333333293
8.341038133333376,-1.7792724666666757,1.2718207666666625
6.860172700000042,-1.5079932000000091,1.2782037999999958
6.860172700000042,-1.5079932000000091,1.2782037999999958
6.860172700000042,-1.5079932000000091,1.2782037999999958
6.445274966666709,-1.3771409000000092,1.1473514666666624
6.030377233333375,-1.2462886000000093,1.016499133333329
5.615479500000042,-1.1154363000000094,0.8856467999999958
5.615479500000042,-1.1154363000000094,0.8856467999999958
6.518679666666709,-1.153734566666676,0.9079874666666625
7.421879833333375,-1.1920328333333428,0.9303281333333292
8.325080000000042,-1.2303311000000094,0.952668799999996
9.470835666666709,-1.2877784333333429,1.086712633333329
10.616591333333375,-1.3452257666666763,1.2207564666666622
11.762347000000041,-1.4026731000000099,1.3548002999999955
11.762347000000041,-1.40267310000001,1.3548002999999955
11.762347000000041,-1.40267310000001,1.3548002999999955
12.26341566666671,-1.447354366666677,1.440971333333329
12.764484333333378,-1.4920356333333438,1.5271423666666621
13.265553000000047,-1.5367169000000107,1.6133133999999956
13.265553000000049,-1.5367169000000107,1.6133133999999956
12.569801666666715,-1.5175678000000108,1.699484433333329
11.874050333333381,-1.4984187000000109,1.7856554666666622
11.178299000000047,-1.479269600000011,1.8718264999999956
11.178299000000047,-1.479269600000011,1.8718264999999956
10.98361633333338,-1.6292710666666774,1.9420399333333291
10.788933666666713,-1.7792725333333437,2.012253366666662
10.594251000000044,-1.9292740000000101,2.0824667999999957
10.594251000000044,-1.9292740000000101,2.0824667999999953
10.326163500000044,-1.6579947666666766,2.258000433333329
10.058076000000044,-1.3867155333333432,2.433534066666662
9.789988500000044,-1.1154363000000098,2.6090676999999953
9.789988500000044,-1.1154363000000098,2.6090676999999953
8.414443166666713,-1.39948160000001,2.4048103999999952
7.03889783333338,-1.6835269000000102,2.200553099999995
5.663352500000047,-1.9675722000000102,1.996295799999995
5.663352500000047,-1.9675722000000102,1.996295799999995
5.653778000000048,-2.1750210000000103,2.0090618666666615
5.644203500000049,-2.38246980000001,2.0218279333333284
5.634629000000049,-2.58991860000001,2.034593999999995
5.634629000000049,-2.5899186000000096,2.034593999999995
6.269741533333382,-2.596301633333343,2.2899156666666616
6.904854066666715,-2.602684666666676,2.545237333333328
7.5399666000000485,-2.6090677000000095,2.8005589999999945
7.5399666000000485,-2.6090677000000095,2.8005589999999945
8.433592066666714,-2.625025300000009,2.8643893999999945
9.327217533333382,-2.6409829000000093,2.928219799999994
10.22084300000005,-2.6569405000000095,2.992050199999994
10.22084300000005,-2.6569405000000095,2.992050199999994
11.044255333333382,-2.7909843333333426,2.9697095666666615
11.867667666666714,-2.9250281666666758,2.947368933333328
12.691080000000047,-3.059072000000009,2.9250282999999944
12.691080000000047,-3.059072000000009,2.925028299999994
12.668739333333379,-3.346308866666675,2.992050199999994
12.646398666666713,-3.633545733333341,3.0590720999999945
12.624058000000046,-3.9207826000000074,3.126093999999995
12.624058000000046,-3.9207826000000074,3.126093999999995
12.266607666666713,-3.8729097333333407,2.775026799999995
11.909157333333381,-3.825036866666674,2.423959599999995
11.551707000000048,-3.7771640000000075,2.0728923999999953
11.551707000000048,-3.7771640000000075,2.0728923999999953
11.880433666666713,-3.499501800000008,2.005870433333328
12.20916033333338,-3.2218396000000085,1.9388484666666617
12.537887000000046,-2.9441774000000094,1.871826499999995
12.537887000000046,-2.9441774000000094,1.871826499999995
10.900637100000045,-2.685664266666676,1.7186335666666617
9.263387200000045,-2.4271511333333424,1.5654406333333284
7.626137300000043,-2.1686380000000094,1.4122476999999949
7.626137300000043,-2.16863800000001,1.4122476999999949
7.061238333333377,-2.139914266666677,1.2430971133333282
6.49633936666671,-2.111190533333344,1.0739465266666615
5.931440400000043,-2.082466800000011,0.9047959399999946
5.931440400000043,-2.082466800000011,0.9047959399999946
6.371870066666712,-1.9516145000000105,0.9271365933333279
6.812299733333378,-1.8207622000000103,0.9494772466666612
7.252729400000045,-1.68990990000001,0.9718178999999946
7.252729400000045,-1.68990990000001,0.9718178999999946
7.958055600000044,-1.62927100000001,1.0611804666666613
8.663381800000044,-1.5686321000000099,1.1505430333333277
9.368708000000042,-1.5079932000000096,1.2399055999999944
9.368708000000042,-1.5079932000000096,1.2399055999999942
10.415526333333377,-1.4888441000000097,1.4728865666666608
11.462344666666711,-1.4696950000000097,1.7058675333333273
12.509163000000045,-1.4505459000000098,1.9388484999999938
12.509163000000045,-1.4505459000000098,1.9388484999999938
12.170862000000048,-1.5079932666666764,1.9899128333333271
11.832561000000046,-1.565440633333343,2.0409771666666603
11.494260000000045,-1.6228880000000097,2.092041499999994
11.494260000000045,-1.6228880000000097,2.0920414999999934
10.584677000000045,-1.7569318666666767,2.0377856666666596
9.675094000000046,-1.8909757333333435,1.983529833333326
8.765511000000044,-2.0250196000000105,1.9292739999999924
8.765511000000044,-2.0250196000000105,1.9292739999999924
9.770839666666712,-2.2707666333333436,1.9611891999999926
10.776168333333379,-2.516513666666677,1.993104399999993
11.781497000000044,-2.762260700000011,2.025019599999993
11.781497000000044,-2.762260700000011,2.025019599999993
10.527229333333375,-2.5516203333333434,2.2101277333333265
9.272961666666708,-2.340979966666677,2.3952358666666598
8.018694000000039,-2.1303396000000103,2.580343999999993
8.018694000000037,-2.1303396000000108,2.580343999999993
7.003790733333371,-2.3026817333333436,2.430342533333326
5.9888874666667045,-2.475023866666677,2.2803410666666593
4.9739842000000385,-2.6473660000000097,2.130339599999992
4.9739842000000385,-2.647366000000009,2.1303395999999917
4.9739842000000385,-2.647366000000009,2.1303395999999917
5.363349566666705,-2.605876266666676,2.340979966666659
5.752714933333372,-2.5643865333333427,2.551620333333326
6.142080300000038,-2.522896800000009,2.762260699999993
6.94634353333337,-2.625025366666676,2.9377942999999926
7.750606766666703,-2.7271539333333426,3.1133278999999923
8.554870000000035,-2.829282500000009,3.288861499999992
8.554870000000035,-2.829282500000009,3.288861499999992
9.588922333333366,-2.768643666666676,3.397373199999992
10.6229746666667,-2.7080048333333426,3.5058848999999923
11.657027000000033,-2.647366000000009,3.614396599999992
11.657027000000033,-2.647366000000009,3.614396599999992
11.657027000000033,-2.647366000000009,3.614396599999992
11.867667333333365,-2.870772400000009,3.410139266666659
12.078307666666698,-3.094178800000009,3.2058819333333255
12.288948000000032,-3.3175852000000092,3.0016245999999924
11.890008333333364,-3.6016304666666756,2.9026874666666593
11.491068666666699,-3.885675733333342,2.8037503333333262
11.092129000000034,-4.169721000000009,2.704813199999993
11.092129000000034,-4.169721000000009,2.704813199999993
11.813412333333366,-4.160146466666675,2.3154477666666597
12.534695666666698,-4.150571933333342,1.9260823333333263
13.25597900000003,-4.14099740000001,1.536716899999993
13.25597900000003,-4.14099740000001,1.536716899999993
13.25597900000003,-4.14099740000001,1.536716899999993
12.684696666666696,-3.643120266666676,1.6579946666666594
12.113414333333361,-3.145243133333343,1.779272433333326
11.542132000000029,-2.647366000000009,1.9005501999999925
11.542132000000029,-2.647366000000009,1.9005501999999925
9.908074000000028,-2.3856613333333425,1.7952300333333262
8.274016000000026,-2.123956666666676,1.6899098666666597
6.639958000000026,-1.8622520000000093,1.5845896999999933
6.598468000000026,-1.747357300000009,1.4282052333333268
6.556978000000027,-1.632462600000009,1.27182076666666
6.515488000000027,-1.517567900000009,1.1154362999999934
6.515488000000027,-1.517567900000009,1.1154362999999936
6.515488000000027,-1.517567900000009,1.1154362999999936
7.102727666666694,-1.338842746666676,1.1952242999999936
7.68996733333336,-1.160117593333343,1.2750122999999938
8.277207000000027,-0.9813924400000099,1.3548002999999937
8.277207000000027,-0.9813924400000099,1.3548002999999937
8.810191000000026,-1.0579889266666764,1.3643748666666602
9.343175000000025,-1.1345854133333433,1.373949433333327
9.876159000000024,-1.21118190000001,1.383523999999994
10.859147333333356,-1.3037360000000102,1.4601204666666607
11.84213566666669,-1.3962901000000103,1.5367169333333273
12.825124000000024,-1.4888442000000104,1.6133133999999938
12.825124000000024,-1.4888442000000104,1.6133133999999938
12.825124000000024,-1.4888442000000104,1.6133133999999938
12.365545000000024,-1.7601233666666773,1.830336799999994
11.905966000000022,-2.031402533333344,2.0473601999999937
11.446387000000023,-2.3026817000000106,2.2643835999999937
11.446387000000023,-2.30268170000001,2.2643835999999933
11.130426666666688,-2.3728951333333437,2.2292768333333264
10.814466333333355,-2.4431085666666768,2.1941700666666595
10.49850600000002,-2.51332200000001,2.1590632999999926
10.466590666666688,-2.309064733333343,2.360129099999993
10.434675333333354,-2.104807466666676,2.561194899999993
10.402760000000022,-1.9005502000000092,2.7622606999999935
10.402760000000022,-1.9005502000000092,2.7622606999999935
10.402760000000022,-1.9005502000000092,2.7622606999999935
8.596359566666687,-1.9356569000000092,2.5931101333333264
6.789959133333354,-1.9707636000000093,2.42395956666666
4.98355870000002,-2.005870300000009,2.2548089999999927
4.98355870000002,-2.005870300000009,2.2548089999999927
5.101645033333354,-2.0569346333333427,2.2388513666666596
5.219731366666687,-2.107998966666676,2.222893733333326
5.33781770000002,-2.159063300000009,2.206936099999993
5.337817700000019,-2.159063300000009,2.206936099999993
6.2856991333333525,-2.337788466666676,2.4239594666666595
7.233580566666686,-2.516513633333343,2.6409828333333265
8.18146200000002,-2.6952388000000096,2.858006199999993
8.95381000000002,-2.877155433333343,2.940985733333326
9.726158000000021,-3.0590720666666766,3.023965266666659
10.498506000000022,-3.24098870000001,3.106944799999992
10.498506000000022,-3.24098870000001,3.106944799999992
10.498506000000022,-3.24098870000001,3.106944799999992
11.235747000000023,-3.2441802666666764,3.1324769666666588
11.972988000000022,-3.2473718333333426,3.158009133333326
12.710229000000021,-3.2505634000000083,3.183541299999993
12.710229000000021,-3.250563400000008,3.183541299999993
12.691079833333356,-3.400564833333341,3.234605633333326
12.671930666666691,-3.5505662666666744,3.2856699666666596
12.652781500000026,-3.7005677000000077,3.3367342999999927
12.237884000000028,-3.671844000000007,2.867580866666659
11.822986500000027,-3.6431203000000068,2.398427433333326
11.408089000000027,-3.6143966000000063,1.9292739999999924
11.408089000000027,-3.6143966000000063,1.9292739999999924
11.408089000000027,-3.6143966000000063,1.9292739999999924
12.068733666666693,-3.3750326000000066,1.9356569999999926
12.729378333333358,-3.1356686000000074,1.9420399999999927
13.390023000000022,-2.8963046000000077,1.948422999999993
13.390023000000022,-2.8963046000000077,1.948422999999993
11.392131333333358,-2.5516204000000076,1.7952300666666596
9.394239666666692,-2.206936200000007,1.6420371333333261
7.396348000000027,-1.862252000000007,1.4888441999999928
7.010174100000028,-1.622888000000007,1.236714099999993
6.624000200000027,-1.3835240000000073,0.9845839999999931
6.237826300000027,-1.1441600000000074,0.7324538999999932
6.237826300000026,-1.1441600000000074,0.7324538999999932
6.237826300000026,-1.1441600000000074,0.7324538999999932
6.595276533333359,-1.2494801333333407,0.7867097333333266
6.952726766666693,-1.3548002666666739,0.84096556666666
7.310177000000027,-1.4601204000000072,0.8952213999999934
7.310177000000027,-1.4601204000000072,0.8952213999999934
7.99316233333336,-1.4473543333333405,0.9367111333333266
8.676147666666692,-1.434588266666674,0.97820086666666
9.359133000000027,-1.4218222000000074,1.0196905999999932
9.359133000000028,-1.4218222000000074,1.0196905999999935
10.342121333333361,-1.5813982000000075,1.1888411999999935
11.325109666666696,-1.7409742000000075,1.3579917999999935
12.30809800000003,-1.9005502000000076,1.5271423999999936
12.30809800000003,-1.9005502000000078,1.5271423999999936
12.16128800000003,-1.9739552000000078,1.74097426666666
12.01447800000003,-2.0473602000000075,1.954806133333327
11.86766800000003,-2.1207652000000077,2.168637999999994
11.86766800000003,-2.1207652000000072,2.1686379999999943
11.40808900000003,-2.1973617000000076,2.2069361999999946
10.948510000000029,-2.2739582000000076,2.2452343999999944
10.48893100000003,-2.350554700000008,2.2835325999999943
10.48893100000003,-2.3505547000000084,2.2835325999999943
10.62935800000003,-2.385661366666675,2.510130566666661
10.769785000000029,-2.420768033333342,2.736728533333327
10.91021200000003,-2.455874700000009,2.9633264999999938
10.91021200000003,-2.455874700000009,2.9633264999999938
9.269770666666695,-2.2611919666666753,2.861197833333327
7.629329333333359,-2.0665092333333415,2.7590691666666607
5.988888000000027,-1.8718265000000074,2.6569404999999944
5.988888000000027,-1.8718265000000074,2.6569404999999944
5.692076500000027,-2.1079990000000075,2.5388542333333275
5.395265000000028,-2.344171500000008,2.4207679666666606
5.098453500000029,-2.5803440000000077,2.302681699999994
5.098453500000029,-2.5803440000000073,2.3026816999999937
5.826120000000028,-2.564386400000007,2.4048103666666605
6.553786500000027,-2.548428800000007,2.506939033333327
7.281453000000027,-2.532471200000007,2.6090676999999936
7.281453000000027,-2.532471200000007,2.6090676999999936
8.331463000000028,-2.52927973333334,2.819708033333327
9.381473000000028,-2.5260882666666737,3.03034836666666
10.431483000000028,-2.522896800000007,3.2409886999999937
10.431483000000028,-2.522896800000007,3.2409886999999937
11.200639666666696,-2.5356628666666734,3.1548176333333267
11.969796333333363,-2.5484289333333403,3.0686465666666596
12.73895300000003,-2.5611950000000068,2.9824754999999925
12.73895300000003,-2.5611950000000068,2.9824754999999925
12.67831400000003,-3.1165195333333404,2.8420486666666593
12.617675000000032,-3.671844066666674,2.7016218333333257
12.557036000000032,-4.227168600000008,2.5611949999999926
12.557036000000034,-4.227168600000009,2.5611949999999926
12.557036000000034,-4.227168600000009,2.5611949999999926
12.244267000000036,-4.265466733333342,2.0314026333333257
11.931498000000039,-4.3037648666666755,1.501610266666659
11.61872900000004,-4.342063000000009,0.9718178999999924
11.957030333333373,-3.7292911666666755,1.4537374666666587
12.295331666666707,-3.116519333333342,1.9356570333333256
12.63363300000004,-2.5037475000000087,2.4175765999999927
12.63363300000004,-2.5037475000000087,2.4175765999999927
10.839998466666708,-2.340980000000009,2.229276899999993
9.046363933333376,-2.178212500000009,2.040977199999993
7.252729400000043,-2.015445000000009,1.8526774999999926
7.252729400000045,-2.015445000000009,1.8526774999999926
6.78676746666671,-2.194170066666676,1.546291553333326
6.320805533333375,-2.372895133333343,1.2399056066666592
5.854843600000041,-2.5516202000000097,0.9335196599999924
5.854843600000041,-2.5516202000000097,0.9335196599999924
6.53782890000004,-2.3409799000000096,0.9877754733333258
7.220814200000041,-2.1303396000000094,1.0420312866666592
7.903799500000042,-1.919699300000009,1.0962870999999925
7.903799500000043,-1.919699300000009,1.0962870999999923
8.38891066666671,-1.5750151333333424,1.2845867999999923
8.874021833333378,-1.2303309666666757,1.4728864999999924
9.359133000000044,-0.8856468000000093,1.6611861999999924
9.359133000000044,-0.8856468000000093,1.6611861999999924
10.188928000000045,-1.003733066666676,1.7313996333333257
11.018723000000044,-1.1218193333333426,1.8016130666666588
11.848518000000043,-1.2399056000000093,1.871826499999992
11.848518000000043,-1.2399056000000093,1.871826499999992
12.113414333333376,-1.5462915000000095,1.9133162666666588
12.378310666666712,-1.8526774000000092,1.9548060333333253
12.643207000000046,-2.159063300000009,1.9962957999999917
12.643207000000046,-2.159063300000009,1.9962957999999915
11.736815333333377,-2.2101276333333426,2.0218279999999917
10.830423666666709,-2.2611919666666758,2.0473601999999915
9.924032000000041,-2.312256300000009,2.0728923999999918
9.924032000000041,-2.312256300000009,2.0728923999999918
10.626166666666707,-2.0601262333333423,2.293107266666658
11.328301333333371,-1.8079961666666755,2.513322133333325
12.030436000000037,-1.555866100000009,2.7335369999999912
12.030436000000037,-1.555866100000009,2.7335369999999912
12.030436000000037,-1.555866100000009,2.7335369999999912
9.971905200000037,-1.4633120000000088,2.650557466666658
7.913374400000038,-1.3707579000000087,2.567577933333324
5.854843600000038,-1.2782038000000087,2.4845983999999905
5.433562900000038,-1.6611862000000084,2.2452343999999904
5.0122822000000395,-2.0441686000000083,2.0058703999999907
4.59100150000004,-2.4271510000000087,1.7665063999999908
4.59100150000004,-2.4271510000000087,1.7665063999999908
4.59100150000004,-2.4271510000000087,1.7665063999999908
5.478244133333373,-2.478215333333342,2.040977133333324
6.365486766666707,-2.529279666666675,2.315447866666658
7.2527294000000415,-2.5803440000000086,2.589918599999991
7.252729400000042,-2.5803440000000086,2.5899185999999905
8.232526266666708,-2.596301566666675,2.8101335333333233
9.212323133333372,-2.612259133333341,3.030348466666657
10.192120000000038,-2.628216700000008,3.25056339999999
11.057021666666705,-2.6633234666666743,3.244180266666657
11.921923333333373,-2.6984302333333416,3.2377971333333235
12.786825000000041,-2.7335370000000077,3.2314139999999902
12.786825000000041,-2.7335370000000077,3.2314139999999902
12.911294500000041,-2.9856671000000077,3.1548175333333233
13.035764000000041,-3.2377972000000077,3.078221066666656
13.16023350000004,-3.4899273000000073,3.001624599999989
13.160233500000038,-3.4899273000000073,3.001624599999989
13.160233500000038,-3.4899273000000073,3.001624599999989
12.151713000000038,-3.426096933333341,2.634599799999989
11.14319250000004,-3.3622665666666744,2.267574999999989
10.134672000000041,-3.298436200000008,1.900550199999989
10.13467200000004,-3.298436200000007,1.900550199999989
11.25170400000004,-3.1867329666666735,1.8431028666666556
12.36873600000004,-3.07502973333334,1.785655533333322
13.485768000000038,-2.9633265000000066,1.7282081999999885
11.912349000000036,-2.69843033333334,1.6643777666666553
10.338930000000035,-2.4335341666666737,1.6005473333333218
8.765511000000034,-2.168638000000007,1.5367168999999885
8.765511000000034,-2.168638000000007,1.5367168999999885
8.765511000000034,-2.168638000000007,1.5367168999999885
7.8463528666667,-2.0058704666666745,1.4345882999999884
6.9271947333333665,-1.8431029333333406,1.3324596999999885
6.008036600000033,-1.680335400000007,1.2303310999999884
6.008036600000033,-1.680335400000007,1.2303310999999884
6.336763200000033,-1.6579947333333405,1.185649766666655
6.665489800000032,-1.635654066666674,1.1409684333333219
6.994216400000032,-1.6133134000000073,1.0962870999999887
7.712308600000032,-1.5941643000000074,1.131393833333322
8.430400800000031,-1.5750152000000075,1.1665005666666552
9.14849300000003,-1.5558661000000076,1.2016072999999883
9.148493000000032,-1.5558661000000076,1.2016072999999883
9.148493000000032,-1.5558661000000076,1.2016072999999883
9.831478333333367,-1.597355866666674,1.3867154999999884
10.514463666666702,-1.6388456333333405,1.5718236999999886
11.197449000000034,-1.680335400000007,1.7569318999999888
11.197449000000034,-1.680335400000007,1.756931899999989
11.621921000000036,-1.721825166666674,1.7696979333333225
12.046393000000036,-1.7633149333333407,1.782463966666656
12.470865000000034,-1.8048047000000074,1.7952299999999894
11.564473333333368,-1.8750181333333409,1.7952299999999894
10.6580816666667,-1.9452315666666742,1.7952299999999894
9.751690000000034,-2.0154450000000073,1.7952299999999894
9.751690000000034,-2.0154450000000073,1.7952299999999894
9.751690000000034,-2.0154450000000073,1.7952299999999894
10.4729736666667,-2.1590634333333405,1.910124766666656
11.194257333333368,-2.302681866666674,2.0250195333333227
11.915541000000033,-2.446300300000008,2.139914299999989
11.915541000000033,-2.4463003000000083,2.1399142999999894
10.6261666666667,-2.1016161000000086,2.2133191999999893
9.336792333333369,-1.7569319000000085,2.286724099999989
8.047418000000036,-1.4122477000000087,2.360128999999989
8.047418000000036,-1.4122477000000087,2.3601289999999886
7.045280666666703,-1.565440633333342,2.2643834666666556
6.043143333333371,-1.7186335666666752,2.168637933333322
5.041006000000038,-1.8718265000000087,2.0728923999999886
5.041006000000038,-1.8718265000000087,2.0728923999999886
5.548457666666704,-2.063317766666675,2.1111905999999885
6.055909333333371,-2.2548090333333417,2.1494887999999883
6.563361000000039,-2.4463003000000083,2.187786999999988
6.563361000000039,-2.4463003000000083,2.187786999999988
7.361241333333372,-2.5133222000000086,2.3824697666666546
8.159121666666707,-2.580344100000009,2.577152533333321
8.95700200000004,-2.647366000000009,2.7718352999999873
8.95700200000004,-2.647366000000009,2.7718352999999873
9.655944666666706,-2.615450733333343,2.800558933333321
10.354887333333371,-2.5835354666666763,2.8292825666666546
11.053830000000035,-2.5516202000000097,2.858006199999988
11.053830000000035,-2.5516202000000097,2.858006199999988
11.692134000000037,-2.625025233333343,2.771835233333322
12.330438000000036,-2.698430266666676,2.6856642666666555
12.968742000000036,-2.7718353000000087,2.5994932999999887
12.968742000000036,-2.7718353000000087,2.599493299999989
13.010231666666705,-3.0335399000000094,2.6345999333333228
13.051721333333374,-3.2952445000000097,2.669706566666657
13.093211000000041,-3.55694910000001,2.704813199999991
13.093211000000045,-3.55694910000001,2.704813199999991
12.933635333333376,-3.3048190666666764,2.2835325999999907
12.774059666666707,-3.0526890333333427,1.862251999999991
12.614484000000038,-2.800559000000009,1.440971399999991
12.614484000000038,-2.800559000000009,1.440971399999991
11.57085700000004,-2.551620366666676,1.5430999999999908
10.52723000000004,-2.3026817333333427,1.6452285999999905
9.483603000000043,-2.0537431000000095,1.7473571999999902
9.483603000000043,-2.0537431000000095,1.7473571999999902
8.35380466666671,-1.8750180333333428,1.5941642666666571
7.224006333333375,-1.696292966666676,1.440971333333324
6.094208000000042,-1.517567900000009,1.287778399999991
6.3527210000000425,-1.4250138000000092,1.255863199999991
6.611234000000043,-1.3324597000000094,1.223947999999991
6.869747000000044,-1.2399056000000097,1.1920327999999911
6.869747000000044,-1.2399056000000097,1.1920327999999911
6.869747000000044,-1.2399056000000097,1.1920327999999911
7.581456000000045,-1.1186278333333428,1.1888412666666575
8.293165000000046,-0.997350066666676,1.185649733333324
9.004874000000047,-0.8760723000000095,1.1824581999999906
9.004874000000049,-0.8760723000000095,1.1824581999999904
9.470836000000048,-1.1058617666666761,1.2143733999999904
9.936798000000048,-1.3356512333333426,1.2462885999999902
10.402760000000049,-1.5654407000000095,1.2782037999999902
11.092128333333383,-1.5845898000000094,1.3579918333333234
11.781496666666717,-1.6037389000000093,1.4377798666666566
12.470865000000051,-1.6228880000000092,1.5175678999999898
12.470865000000051,-1.6228880000000092,1.5175678999999898
12.470865000000051,-1.6228880000000092,1.5175678999999898
12.14533000000005,-1.7441657666666757,1.6739523666666567
11.819795000000047,-1.8654435333333421,1.8303368333333234
11.494260000000045,-1.9867213000000088,1.9867212999999904
10.587868166666711,-2.082466933333342,1.9643806333333236
9.681476333333377,-2.178212566666675,1.942039966666657
8.775084500000045,-2.2739582000000085,1.9196992999999904
8.775084500000046,-2.2739582000000085,1.9196992999999907
9.719774666666714,-1.9962959333333414,2.159063333333324
10.664464833333382,-1.7186336666666746,2.3984273666666573
11.60915500000005,-1.4409714000000078,2.6377913999999905
11.60915500000005,-1.4409714000000076,2.6377913999999905
9.841052666666714,-1.5207594000000075,2.5292796999999907
8.072950333333381,-1.6005474000000077,2.4207679999999905
6.304848000000047,-1.6803354000000077,2.3122562999999907
6.304848000000047,-1.6803354000000077,2.3122562999999907
6.304848000000047,-1.6803354000000077,2.3122562999999907
5.886758833333379,-2.050551733333341,2.171829433333324
5.4686696666667105,-2.420768066666675,2.031402566666658
5.050580500000043,-2.790984400000008,1.8909756999999914
5.701650666666711,-2.6920472666666746,2.3186394666666583
6.352720833333378,-2.593110133333341,2.746303233333325
7.003791000000045,-2.494173000000008,3.173966999999991
7.003791000000045,-2.4941730000000084,3.1739669999999904
8.111248333333378,-2.4494916666666753,3.3590750666666573
9.218705666666713,-2.404810333333342,3.5441831333333247
10.326163000000045,-2.360129000000009,3.7292911999999916
10.326163000000045,-2.360129000000009,3.7292911999999916
10.326163000000045,-2.360129000000009,3.7292911999999916
11.420854666666713,-2.634599766666675,3.3750324666666582
12.515546333333381,-2.9090705333333418,3.020773733333325
13.610238000000047,-3.1835413000000083,2.6665149999999915
13.709175000000046,-3.276095400000008,2.503747466666658
13.808112000000046,-3.3686495000000076,2.3409799333333243
13.907049000000045,-3.4612036000000077,2.1782123999999907
13.907049000000045,-3.461203600000007,2.1782123999999907
12.920869333333378,-3.435671400000006,1.9611890666666578
11.934689666666712,-3.4101392000000055,1.7441657333333243
10.948510000000043,-3.384607000000005,1.5271423999999907
10.948510000000043,-3.384607000000005,1.5271423999999907
10.948510000000043,-3.384607000000005,1.5271423999999907
10.875105000000042,-3.0080076666666713,1.3739494333333242
10.801700000000045,-2.631408333333338,1.2207564666666577
10.728295000000045,-2.2548090000000047,1.0675634999999912
9.324026000000044,-2.005870400000005,1.1377769333333243
7.919757000000046,-1.756931800000005,1.2079903666666576
6.515488000000047,-1.507993200000005,1.278203799999991
6.515488000000047,-1.507993200000005,1.278203799999991
6.5091051000000455,-1.6069303666666717,1.166500599999991
6.502722200000044,-1.7058675333333386,1.054797399999991
6.496339300000044,-1.8048047000000054,0.9430941999999908
6.496339300000044,-1.8048047000000054,0.9430941999999908
6.496339300000044,-1.8048047000000054,0.9430941999999908
7.147409533333377,-1.7569318666666722,1.070754999999991
7.79847976666671,-1.7090590333333389,1.1984157999999911
8.449550000000043,-1.6611862000000057,1.3260765999999913
8.449550000000043,-1.6611862000000057,1.3260765999999913
9.161259000000042,-1.6548032000000055,1.3260765999999913
9.872968000000041,-1.6484202000000054,1.3260765999999913
10.58467700000004,-1.6420372000000052,1.3260765999999913
11.072979333333373,-1.7920386333333385,1.4058646333333245
11.561281666666707,-1.9420400666666717,1.4856526666666576
12.049584000000038,-2.092041500000005,1.5654406999999908
12.049584000000038,-2.0920415000000046,1.5654406999999908
12.049584000000038,-2.0920415000000046,1.5654406999999908
12.429375000000041,-1.894167233333338,1.6516116999999906
12.809166000000042,-1.696292966666671,1.7377826999999906
13.188957000000045,-1.4984187000000044,1.8239536999999906
13.188957000000045,-1.4984187000000044,1.8239536999999906
12.084691000000044,-1.6069303666666708,1.788847033333324
10.980425000000045,-1.7154420333333373,1.7537403666666573
9.876159000000044,-1.823953700000004,1.7186336999999907
10.125097333333377,-1.5016101866666707,1.7409742999999906
10.374035666666709,-1.1792666733333375,1.7633148999999906
10.622974000000042,-0.8569231600000041,1.7856554999999907
10.622974000000042,-0.8569231600000041,1.7856554999999907
10.622974000000042,-0.8569231600000041,1.7856554999999907
9.135725866666709,-0.8856468400000042,1.852677433333324
7.648477733333375,-0.9143705200000042,1.9196993666666575
6.161229600000041,-0.9430942000000041,1.986721299999991
5.96973840000004,-1.1218193333333375,2.0282110666666577
5.778247200000038,-1.300544466666671,2.0697008333333247
5.586756000000037,-1.4792696000000045,2.111190599999992
5.586756000000037,-1.4792696000000045,2.111190599999992
6.103782333333371,-1.8175707333333377,2.3952358999999923
6.620808666666705,-2.1558718666666707,2.6792811999999926
7.137835000000039,-2.494173000000004,2.9633264999999924
7.137835000000038,-2.494173000000004,2.9633264999999924
7.97401333333337,-2.711196400000004,3.0399229999999924
8.810191666666702,-2.928219800000004,3.116519499999992
9.646370000000033,-3.1452432000000035,3.1931159999999914
9.646370000000033,-3.1452432000000035,3.1931159999999914
10.565527666666702,-3.3335428333333375,3.129285533333325
11.484685333333369,-3.521842466666671,3.065455066666658
12.403843000000037,-3.7101421000000046,3.001624599999991
12.403843000000037,-3.7101421000000046,3.001624599999991
12.576185000000036,-3.767589466666671,3.011199166666658
12.748527000000037,-3.8250368333333378,3.020773733333325
12.920869000000037,-3.8824842000000044,3.0303482999999916
12.920869000000039,-3.8824842000000044,3.0303482999999916
12.432566333333375,-3.7069506000000043,2.5803439999999918
11.944263666666709,-3.5314170000000042,2.130339699999992
11.455961000000045,-3.3558834000000037,1.6803353999999924
11.455961000000045,-3.3558834000000037,1.6803353999999924
11.74000666666671,-3.145243100000004,1.740974266666659
12.024052333333378,-2.934602800000004,1.8016131333333256
12.308098000000044,-2.723962500000004,1.8622519999999925
12.308098000000044,-2.723962500000004,1.8622519999999925
10.769785000000043,-2.411193500000004,1.7505487999999925
9.231472000000045,-2.098424500000004,1.6388455999999925
7.693159000000044,-1.785655500000004,1.5271423999999925
7.693159000000044,-1.785655500000004,1.5271423999999925
7.121877000000043,-1.5845897333333374,1.4282052999999924
6.550595000000041,-1.3835239666666708,1.3292681999999925
5.97931300000004,-1.1824582000000043,1.2303310999999926
5.97931300000004,-1.1824582000000043,1.2303310999999926
6.550595000000041,-1.2016073333333377,1.1920328333333259
7.121877000000043,-1.220756466666671,1.1537345666666592
7.693159000000044,-1.2399056000000044,1.1154362999999925
7.693159000000044,-1.2399056000000044,1.1154362999999925
8.39210216666671,-1.2367141000000041,1.1792666666666591
9.091045333333376,-1.2335226000000041,1.243097033333326
9.789988500000042,-1.2303311000000041,1.3069273999999929
9.789988500000042,-1.2303311000000041,1.3069273999999929
10.54637866666671,-1.255863200000004,1.431396733333326
11.302768833333376,-1.2813953000000042,1.555866066666659
12.059159000000044,-1.3069274000000044,1.6803353999999924
12.059159000000044,-1.3069274000000044,1.6803353999999924
11.972988000000043,-1.4186306666666708,1.7282081666666589
11.886817000000043,-1.5303339333333374,1.7760809333333256
11.800646000000043,-1.642037200000004,1.8239536999999924
11.09212866666671,-1.855869000000004,1.8048045999999924
10.383611333333377,-2.069700800000004,1.7856554999999925
9.675094000000044,-2.283532600000004,1.7665063999999926
9.675094000000044,-2.283532600000004,1.7665063999999926
9.675094000000044,-2.283532600000004,1.7665063999999926
10.607017666666712,-2.299490200000004,1.9324654666666594
11.538941333333378,-2.3154478000000043,2.098424533333326
12.470865000000046,-2.3314054000000044,2.2643835999999924
10.772976233333381,-2.069700766666671,2.3601291333333254
9.075087466666714,-1.8079961333333383,2.455874666666659
7.377198700000047,-1.5462915000000053,2.551620199999992
7.377198700000047,-1.5462915000000053,2.551620199999992
6.541020466666713,-1.5654406333333384,2.4143848999999915
5.7048422333333795,-1.5845897666666715,2.277149599999991
4.868664000000045,-1.6037389000000044,2.1399142999999907
4.868664000000045,-1.6037389000000044,2.1399142999999907
5.350583533333379,-1.855868933333338,2.2835326999999905
5.832503066666711,-2.107998966666672,2.4271510999999903
6.314422600000044,-2.3601290000000055,2.5707694999999906
6.314422600000043,-2.3601290000000055,2.5707694999999906
7.335709066666709,-2.551620233333338,2.730345533333324
8.356995533333375,-2.743111466666671,2.889921566666658
9.378282000000041,-2.934602700000004,3.0494975999999916
9.378282000000041,-2.934602700000004,3.0494975999999916
10.195311333333374,-2.838857133333337,3.0526890666666584
11.012340666666708,-2.74311156666667,3.0558805333333248
11.82937000000004,-2.647366000000003,3.0590719999999916
11.82937000000004,-2.6473660000000034,3.0590719999999916
12.445333000000039,-2.8165165333333366,2.9409857333333247
13.061296000000036,-2.98566706666667,2.8228994666666583
13.677259000000035,-3.154817600000003,2.7048131999999914
13.677259000000035,-3.154817600000003,2.7048131999999914
13.677259000000035,-3.154817600000003,2.7048131999999914
13.032572000000036,-3.3207766333333364,2.7016217333333246
12.387885000000034,-3.48673566666667,2.698430266666658
11.743198000000035,-3.652694700000003,2.6952387999999914
11.8453266666667,-3.537800000000003,2.3441715999999917
11.947455333333368,-3.422905300000003,1.9931043999999918
12.049584000000037,-3.308010600000003,1.6420371999999919
12.049584000000038,-3.308010600000003,1.6420371999999919
11.39851400000004,-2.99205006666667,1.702676033333325
10.747444000000039,-2.676089533333337,1.7633148666666585
10.096374000000038,-2.360129000000004,1.8239536999999917
10.096374000000038,-2.360129000000004,1.8239536999999917
8.752744000000039,-2.136722633333337,1.6675692333333252
7.409114000000039,-1.9133162666666703,1.5111847666666585
6.06548400000004,-1.6899099000000035,1.354800299999992
6.0654840000000405,-1.6899099000000035,1.354800299999992
6.183570200000041,-1.7984216000000035,1.1728836666666587
6.3016564000000415,-1.9069333000000033,0.9909670333333255
6.419742600000042,-2.0154450000000033,0.8090503999999922
6.419742600000042,-2.0154450000000033,0.8090503999999922
7.147409066666708,-1.8941672333333368,0.917562066666659
7.8750755333333755,-1.7728894666666701,1.0260737333333256
8.602742000000042,-1.6516117000000037,1.1345853999999924
8.602742000000042,-1.6516117000000037,1.1345853999999926
8.969767000000042,-1.6484202000000037,1.2430970666666594
9.336792000000044,-1.6452287000000034,1.3516087333333262
9.703817000000043,-1.6420372000000034,1.460120399999993
9.703817000000043,-1.6420372000000034,1.460120399999993
10.629357666666712,-1.6611863000000033,1.5143762666666598
11.554898333333378,-1.6803354000000033,1.5686321333333266
12.480439000000047,-1.6994845000000032,1.6228879999999934
12.480439000000047,-1.699484500000003,1.6228879999999937
12.231500500000047,-1.7473573000000027,1.8048046666666604
11.98256200000005,-1.7952301000000024,1.9867213333333271
11.73362350000005,-1.8431029000000023,2.168637999999994
11.73362350000005,-1.8431029000000023,2.168637999999994
11.507025666666715,-1.823953766666669,2.104807566666661
11.280427833333382,-1.8048046333333356,2.0409771333333278
11.053830000000048,-1.7856555000000023,1.9771466999999945
11.053830000000048,-1.7856555000000023,1.9771466999999945
10.801700000000048,-1.2941614000000021,2.111190533333328
10.54957000000005,-0.8026673000000022,2.245234366666661
10.297440000000051,-0.3111732000000021,2.379278199999994
10.297440000000051,-0.3111732000000021,2.379278199999994
8.51338016666672,-0.6654319333333355,2.1877870333333274
6.729320333333386,-1.019690666666669,1.9962958666666608
4.945260500000054,-1.3739494000000023,1.804804699999994
4.945260500000054,-1.3739494000000023,1.804804699999994
5.21653966666672,-1.823953766666669,1.868635066666661
5.487818833333385,-2.2739581333333354,1.9324654333333278
5.759098000000051,-2.723962500000002,1.9962957999999944
5.759098000000051,-2.7239625000000025,1.9962957999999944
6.719745666666718,-2.733537000000003,2.4814068666666613
7.6803933333333845,-2.7431115000000035,2.966517933333328
8.641041000000051,-2.752686000000004,3.4516289999999947
8.641041000000051,-2.752686000000004,3.4516289999999947
9.29849400000005,-2.736728400000004,3.5569491999999947
9.95594700000005,-2.720770800000004,3.6622693999999947
10.613400000000048,-2.704813200000004,3.767589599999995
10.613400000000048,-2.704813200000004,3.767589599999995
11.286811000000048,-2.886729933333337,3.5760983999999945
11.96022200000005,-3.068646666666671,3.3846071999999943
12.633633000000051,-3.2505634000000043,3.193115999999994
12.633633000000051,-3.2505634000000043,3.193115999999994
12.490014333333383,-3.2026905333333375,3.132477066666661
12.346395666666714,-3.154817666666671,3.0718381333333276
12.202777000000046,-3.1069448000000044,3.0111991999999943
12.202777000000046,-3.1069448000000044,3.0111991999999943
11.874050666666712,-3.189924333333338,2.7048132999999943
11.545324333333378,-3.2729038666666717,2.3984273999999943
11.216598000000046,-3.355883400000005,2.092041499999995
11.216598000000046,-3.355883400000005,2.092041499999995
11.787880000000046,-3.078221200000005,2.1143820999999945
12.359162000000047,-2.800559000000005,2.136722699999994
12.93044400000005,-2.522896800000005,2.159063299999994
12.93044400000005,-2.522896800000005,2.159063299999994
11.312343000000048,-2.1367228333333386,1.9994873333333274
9.694242000000047,-1.7505488666666718,1.8399113666666604
8.076141000000048,-1.364374900000005,1.6803353999999935
8.076141000000048,-1.364374900000005,1.6803353999999935
7.294218766666713,-1.4952272333333383,1.3803324866666602
6.512296533333379,-1.6260795666666716,1.0803295733333271
5.730374300000045,-1.756931900000005,0.7803266599999938
5.730374300000045,-1.756931900000005,0.7803266599999938
6.266549733333378,-1.731399733333338,0.7675605733333272
6.802725166666712,-1.7058675666666712,0.7547944866666606
7.338900600000046,-1.6803354000000041,0.7420283999999939
7.338900600000046,-1.6803354000000041,0.7420283999999939
7.999545066666713,-1.597355866666671,0.9271365666666606
8.660189533333382,-1.5143763333333375,1.1122447333333272
9.32083400000005,-1.4313968000000044,1.2973528999999935
9.32083400000005,-1.4313968000000044,1.2973528999999935
9.799562333333384,-1.4537374333333377,1.5303338666666602
10.278290666666718,-1.4760780666666713,1.763314833333327
10.757019000000051,-1.4984187000000047,1.996295799999994
10.757019000000051,-1.4984187000000047,1.996295799999994
11.305960333333386,-1.5750152000000046,2.0792753666666606
11.85490166666672,-1.6516117000000046,2.1622549333333274
12.403843000000053,-1.7282082000000045,2.245234499999994
12.403843000000053,-1.7282082000000045,2.245234499999994
12.040010000000054,-1.906933333333338,2.2675750999999935
11.676177000000054,-2.085658466666671,2.2899156999999932
11.312344000000055,-2.2643836000000044,2.312256299999993
11.229364333333388,-2.3377885333333377,2.3441715333333266
11.146384666666725,-2.4111934666666706,2.37608676666666
11.06340500000006,-2.4845984000000034,2.408001999999993
11.06340500000006,-2.4845984000000034,2.408001999999993
9.98467110000006,-2.3218308666666707,2.3984273999999934
8.905937200000059,-2.1590633333333376,2.3888527999999933
7.8272033000000585,-1.9962958000000046,2.3792781999999932
7.8272033000000585,-1.9962958000000046,2.3792781999999932
6.774001600000059,-2.1271481333333377,2.2675750333333267
5.720799900000059,-2.258000466666671,2.15587186666666
4.667598200000058,-2.3888528000000044,2.0441686999999935
4.667598200000058,-2.3888528000000044,2.0441686999999935
5.4176053666667245,-2.618642200000004,2.0920414666666605
6.167612533333391,-2.8484316000000045,2.139914233333327
6.917619700000057,-3.0782210000000045,2.1877869999999935
6.917619700000057,-3.078221000000005,2.1877869999999935
7.942097800000057,-2.851623166666672,2.51651366666666
8.966575900000057,-2.625025333333339,2.845240333333327
9.991054000000059,-2.3984275000000053,3.173966999999994
9.99105400000006,-2.3984275000000053,3.173966999999994
10.147438333333396,-2.5324713333333384,2.956943599999994
10.303822666666731,-2.6665151666666715,2.7399201999999945
10.460207000000066,-2.8005590000000047,2.522896799999994
10.8176573333334,-2.956943466666671,2.564386533333327
11.175107666666733,-3.1133279333333377,2.6058762666666606
11.532558000000066,-3.2697124000000044,2.647365999999994
11.532558000000066,-3.2697124000000044,2.647365999999994
11.794262666666732,-3.397373166666671,2.7686437333333274
12.055967333333399,-3.525033933333338,2.8899214666666606
12.317672000000066,-3.6526947000000045,3.0111991999999943
12.317672000000066,-3.6526947000000045,3.0111991999999943
13.163425000000066,-3.4101392333333376,2.455874699999994
14.009178000000064,-3.1675837666666706,1.9005501999999943
14.854931000000065,-2.925028300000004,1.3452256999999943
14.854931000000065,-2.9250283000000032,1.3452256999999943
14.854931000000065,-2.9250283000000032,1.3452256999999943
13.287894333333398,-2.439917200000003,1.523950866666661
11.720857666666731,-1.9548061000000034,1.7026760333333275
10.153821000000065,-1.4696950000000033,1.881401199999994
8.838914866666732,-1.4952271666666703,1.6579947666666606
7.524008733333399,-1.5207593333333371,1.4345883333333271
6.209102600000065,-1.5462915000000041,1.2111818999999937
6.209102600000065,-1.5462915000000041,1.2111818999999937
6.209102600000065,-1.5462915000000041,1.2111818999999937
6.247400733333397,-1.5335254000000038,1.0420313233333272
6.28569886666673,-1.5207593000000035,0.8728807466666607
6.3239970000000625,-1.5079932000000031,0.7037301699999942
7.319751333333396,-1.5048017000000034,0.7899012133333274
8.315505666666729,-1.5016102000000036,0.8760722566666607
9.311260000000063,-1.4984187000000038,0.962243299999994
9.311260000000063,-1.4984187000000038,0.962243299999994
9.521900333333395,-1.5494830333333371,0.975009399999994
9.732540666666727,-1.6005473666666703,0.987775499999994
9.943181000000061,-1.6516117000000037,1.000541599999994
9.943181000000061,-1.6516117000000037,1.000541599999994
10.42190900000006,-1.657994733333337,1.0611804666666609
10.90063700000006,-1.6643777666666704,1.1218193333333275
