accx,accy,accz
-9.598496,-3.7675896,1.9005502
-9.598496,-3.7675896,1.9005502
-9.598496,-3.7675895999999995,1.9005502000000003
-9.598496,-3.7675895999999995,1.9005502000000003
-9.426154166666667,-3.8888674,1.8111876333333334
-9.253812333333332,-4.0101452,1.7218250666666666
-9.081470499999998,-4.131423000000001,1.6324624999999997
-9.122960333333332,-3.965463866666667,1.6260794666666663
-9.164450166666663,-3.799504733333333,1.619696433333333
-9.205939999999996,-3.6335455999999993,1.6133133999999998
-9.205939999999996,-3.6335455999999993,1.6133133999999998
-9.205939999999996,-3.6335455999999993,1.6133133999999998
-9.33040933333333,-3.3686494666666658,1.6452285999999996
-9.454878666666664,-3.1037533333333323,1.6771437999999996
-9.579347999999996,-2.838857199999999,1.7090589999999997
-9.579347999999994,-2.838857199999999,1.7090589999999997
-9.467644666666661,-2.6473659999999994,1.7377826666666663
-9.355941333333329,-2.4558747999999997,1.766506333333333
-9.244237999999994,-2.2643836,1.7952299999999999
-9.28253633333333,-2.248426,1.7154420333333331
-9.320834666666665,-2.2324683999999997,1.6356540666666666
-9.359132999999998,-2.2165107999999996,1.5558661
-9.359133,-2.2165107999999996,1.5558661
-9.359133,-2.2165107999999996,1.5558661
-9.525092,-2.337788533333333,1.4026730999999997
-9.691051000000002,-2.459066266666666,1.2494800999999998
-9.857010000000002,-2.5803439999999997,1.0962870999999998
-9.991054,-2.558003333333333,1.0867125666666666
-10.125098,-2.5356626666666666,1.0771380333333334
-10.259141999999997,-2.513322,1.0675634999999999
-10.259141999999995,-2.513322,1.0675634999999997
-9.601688666666663,-2.3792782,1.2047988666666665
-8.944235333333328,-2.2452343999999997,1.342034233333333
-8.286781999999993,-2.1111906,1.4792695999999996
-8.286781999999993,-2.1111906,1.4792695999999996
-8.264441333333325,-1.849485933333333,1.6133134666666662
-8.242100666666659,-1.5877812666666664,1.7473573333333328
-8.219759999999992,-1.3260765999999997,1.8814011999999993
-8.219759999999992,-1.3260765999999997,1.8814011999999993
-8.392102333333325,-1.4473543666666664,1.8462944666666663
-8.564444666666658,-1.5686321333333328,1.811187733333333
-8.73678699999999,-1.6899098999999993,1.7760809999999998
-8.73678699999999,-1.6899098999999993,1.7760810000000002
-8.889979666666656,-1.9228908666666662,1.7665064000000001
-9.043172333333324,-2.155871833333333,1.7569318000000003
-9.196364999999991,-2.3888528,1.7473572000000004
-9.196364999999991,-2.3888528,1.7473572000000004
-9.177215999999992,-2.4143849666666664,1.7377827000000003
-9.158066999999994,-2.4399171333333327,1.7282082000000003
-9.138917999999995,-2.465449299999999,1.7186337000000005
-9.138917999999995,-2.465449299999999,1.7186337000000005
-9.138917999999995,-2.465449299999999,1.7186337000000005
-9.113385999999995,-2.283532633333332,1.8494860000000006
-9.087853999999995,-2.1016159666666656,1.9803383000000008
-9.062321999999993,-1.9196992999999989,2.111190600000001
-9.020831999999993,-1.8494858666666658,2.1494888000000008
-8.979341999999995,-1.7792724333333325,2.1877870000000006
-8.937851999999994,-1.7090589999999992,2.2260852000000004
-8.937851999999994,-1.7090589999999992,2.2260852000000004
-8.918702666666658,-1.890975666666666,2.114382033333334
-8.899553333333321,-2.0728923333333324,2.0026788666666673
-8.880403999999986,-2.2548089999999994,1.890975700000001
-8.880403999999984,-2.2548089999999994,1.890975700000001
-8.880403999999984,-2.2548089999999994,1.890975700000001
-8.928276999999985,-2.372895233333333,1.7984216000000008
-8.976149999999985,-2.4909814666666663,1.7058675000000008
-9.024022999999985,-2.6090677,1.6133134000000007
-9.06232133333332,-2.6026846666666668,1.6292710000000008
-9.100619666666654,-2.5963016333333333,1.645228600000001
-9.13891799999999,-2.5899186000000003,1.661186200000001
-9.138917999999991,-2.5899186000000003,1.661186200000001
-9.145300999999991,-2.5516203999999996,1.6867183666666674
-9.15168399999999,-2.5133221999999997,1.7122505333333338
-9.15806699999999,-2.475024,1.7377827000000001
-9.158066999999988,-2.4750240000000003,1.7377826999999997
-9.158066999999988,-2.4750240000000003,1.7377826999999997
-9.212322666666653,-2.4654494333333337,1.7345911999999999
-9.26657833333332,-2.4558748666666665,1.7313997
-9.320833999999984,-2.4463003,1.7282082000000003
-9.301685333333317,-2.551620433333334,1.6835269333333338
-9.282536666666651,-2.6569405666666674,1.6388456666666669
-9.263387999999985,-2.762260700000001,1.5941644000000001
-9.263387999999985,-2.762260700000001,1.5941643999999997
-9.247429999999985,-2.6952388000000007,1.6228880666666665
-9.231471999999984,-2.6282169000000004,1.6516117333333333
-9.215513999999985,-2.561195,1.6803354
-9.215513999999985,-2.561195,1.6803354
-9.215513999999985,-2.561195,1.6803354
-9.231471999999984,-2.516513666666667,1.7250166666666669
-9.247429999999985,-2.471832333333334,1.7696979333333338
-9.263387999999985,-2.4271510000000007,1.8143792000000005
-9.263387999999985,-2.4271510000000007,1.8143792000000005
-9.244238666666652,-2.4271510000000007,1.8143792000000005
-9.225089333333317,-2.4271510000000007,1.8143792000000005
-9.205939999999984,-2.4271510000000007,1.8143792000000005
-9.164450166666652,-2.382469766666667,1.852677466666667
-9.12296033333332,-2.3377885333333333,1.8909757333333337
-9.081470499999988,-2.2931072999999995,1.9292740000000004
-9.081470499999988,-2.2931072999999995,1.9292740000000006
-9.081470499999988,-2.2931072999999995,1.9292740000000006
-9.097427999999987,-2.2835327333333333,1.916507900000001
-9.113385499999985,-2.273958166666667,1.9037418000000013
-9.129342999999984,-2.264383600000001,1.8909757000000014
-9.15806666666665,-2.2484260000000007,1.8845926333333347
-9.186790333333319,-2.2324684000000006,1.878209566666668
-9.215513999999985,-2.2165108000000004,1.8718265000000012
-9.215513999999985,-2.2165108000000004,1.8718265000000012
-9.180407333333319,-2.1941702000000003,1.855868900000001
-9.145300666666651,-2.1718296000000006,1.839911300000001
-9.110193999999986,-2.149489000000001,1.8239537000000008
-9.110193999999986,-2.1494890000000013,1.8239537000000008
-9.110193999999986,-2.1494890000000013,1.8239537000000008
-9.049555333333318,-2.1367228666666684,1.8143791333333343
-8.988916666666652,-2.1239567333333356,1.8048045666666679
-8.928277999999985,-2.1111906000000027,1.7952300000000012
-8.886787999999983,-2.120765166666669,1.7601233000000012
-8.845297999999984,-2.130339733333335,1.7250166000000011
-8.803807999999982,-2.1399143000000023,1.689909900000001
-8.80380799999998,-2.1399143000000023,1.689909900000001
-8.822957333333315,-2.1814040666666688,1.6803353333333348
-8.842106666666648,-2.2228938333333352,1.6707607666666686
-8.861255999999981,-2.2643836000000017,1.6611862000000024
-8.861255999999983,-2.2643836000000017,1.6611862000000024
-8.861255999999983,-2.2643836000000017,1.6611862000000024
-8.880404999999984,-2.251617466666668,1.6931014333333356
-8.899553999999986,-2.2388513333333346,1.7250166666666689
-8.918702999999987,-2.2260852000000013,1.7569319000000023
-8.953809666666652,-2.2420428666666674,1.798421666666669
-8.98891633333332,-2.258000533333334,1.8399114333333355
-9.024022999999985,-2.2739582000000005,1.881401200000002
-9.024022999999985,-2.2739582,1.881401200000002
-9.049554999999986,-2.2867242333333335,1.900550300000002
-9.075086999999987,-2.299490266666667,1.9196994000000018
-9.100618999999988,-2.3122563000000005,1.9388485000000018
-9.100618999999988,-2.312256300000001,1.9388485000000018
-9.100618999999988,-2.312256300000001,1.9388485000000018
-9.097427666666654,-2.3377884666666677,1.942040000000002
-9.09423633333332,-2.3633206333333345,1.945231500000002
-9.091044999999987,-2.3888528000000018,1.948423000000002
-9.091044999999987,-2.3888528000000018,1.948423000000002
-9.087853499999987,-2.3792782000000017,1.9611891000000021
-9.084661999999987,-2.3697036000000016,1.9739552000000022
-9.081470499999988,-2.360129000000002,1.9867213000000021
-9.065512999999987,-2.360129000000002,1.983529766666669
-9.049555499999984,-2.360129000000002,1.9803382333333355
-9.033597999999984,-2.360129000000002,1.977146700000002
-9.033597999999984,-2.360129000000002,1.9771467000000016
-9.033597999999984,-2.360129000000002,1.9771467000000016
-9.052746999999984,-2.3314054000000013,1.983529733333335
-9.071895999999986,-2.3026818000000007,1.9899127666666683
-9.091044999999987,-2.2739582000000005,1.9962958000000015
-9.091044999999987,-2.2739582,1.9962958000000015
-9.113385666666654,-2.2899158,1.9739552000000014
-9.135726333333322,-2.3058734000000003,1.951614600000001
-9.158066999999988,-2.3218310000000004,1.9292740000000006
-9.154875666666655,-2.302681866666667,1.9228909333333342
-9.151684333333321,-2.283532733333334,1.9165078666666677
-9.148492999999988,-2.264383600000001,1.9101248000000013
-9.14849299999999,-2.264383600000001,1.9101248000000013
-9.11338599999999,-2.2420429666666677,1.9165078666666677
-9.078278999999991,-2.219702333333334,1.9228909333333342
-9.043171999999993,-2.1973617000000005,1.9292740000000006
-9.043171999999993,-2.1973617000000005,1.9292740000000006
-9.03998066666666,-2.187787133333334,1.9292740000000006
-9.036789333333326,-2.178212566666667,1.9292740000000006
-9.033597999999992,-2.168638,1.9292740000000006
-9.033597999999992,-2.168638,1.9292740000000006
-9.036789333333326,-2.162255,1.9196994000000007
-9.03998066666666,-2.1558720000000005,1.9101248000000008
-9.043171999999993,-2.149489000000001,1.9005502000000007
-9.043171999999993,-2.1494890000000013,1.9005502000000007
-9.020831499999995,-2.1526804333333347,1.8941672000000007
-8.998490999999996,-2.155871866666668,1.8877842000000005
-8.976150499999997,-2.159063300000002,1.8814012000000002
-8.976150499999997,-2.159063300000002,1.8814012000000002
-8.963384333333332,-2.1718294333333357,1.8782096333333336
-8.950618166666667,-2.184595566666669,1.875018066666667
-8.937852000000001,-2.1973617000000023,1.8718265000000003
-8.937852000000003,-2.1973617000000023,1.8718265000000003
-8.950618166666668,-2.2037447333333358,1.8877841000000002
-8.963384333333334,-2.210127766666669,1.9037417000000003
-8.9761505,-2.2165108000000022,1.9196993000000004
-8.976150499999997,-2.2165108000000022,1.9196993000000007
-9.033597999999998,-2.2133192333333356,1.9228908666666673
-9.091045499999998,-2.210127666666669,1.926082433333334
-9.148492999999997,-2.2069361000000023,1.9292740000000006
-9.148492999999998,-2.2069361000000023,1.9292740000000006
-9.148492999999998,-2.2069361000000023,1.9292740000000006
-9.151684333333332,-2.222893733333336,1.926082433333334
-9.154875666666666,-2.238851366666669,1.9228908666666673
-9.158066999999999,-2.254809000000002,1.9196993000000007
-9.122960333333332,-2.2771496666666686,1.9228908666666673
-9.087853666666666,-2.299490333333335,1.926082433333334
-9.052746999999997,-2.3218310000000018,1.9292740000000006
-9.052746999999995,-2.3218310000000018,1.9292740000000006
-9.020831999999997,-2.312256433333335,1.951614600000001
-8.988916999999999,-2.3026818666666684,1.9739552000000014
-8.957002000000001,-2.2931073000000013,1.9962958000000015
-8.957002000000003,-2.2931073000000013,1.9962958000000015
-8.957002000000003,-2.2931073000000013,1.9962958000000015
-8.982534000000001,-2.3058733333333348,1.9962958000000015
-9.008066,-2.3186393666666683,1.9962958000000015
-9.033597999999998,-2.3314054000000017,1.9962958000000015
-9.059129999999998,-2.3186393666666683,2.0186364666666683
-9.084662,-2.3058733333333348,2.040977133333335
-9.110194,-2.2931073000000013,2.0633178000000014
-9.110194,-2.2931073000000013,2.0633178000000014
-9.1006195,-2.277149700000002,2.072892366666668
-9.091045000000001,-2.2611921000000024,2.0824669333333348
-9.081470500000002,-2.2452345000000027,2.092041500000002
-9.081470500000002,-2.2452345000000027,2.092041500000002
-9.081470500000002,-2.2452345000000027,2.092041500000002
-9.071896000000002,-2.235659933333336,2.0888499333333352
-9.062321500000003,-2.2260853666666693,2.0856583666666686
-9.052747000000004,-2.2165108000000022,2.082466800000002
-9.030406333333337,-2.219702266666669,2.0760838000000015
-9.00806566666667,-2.222893733333336,2.0697008000000015
-8.985725000000004,-2.226085200000002,2.0633178000000014
-8.985725000000002,-2.226085200000002,2.0633178000000014
-8.950618,-2.2165107000000024,2.0665093333333346
-8.915511,-2.2069362000000026,2.0697008666666683
-8.880403999999999,-2.1973617000000023,2.072892400000002
-8.880403999999999,-2.1973617000000023,2.072892400000002
-8.880403999999999,-2.1973617000000023,2.072892400000002
-8.905936666666667,-2.200553166666669,2.0665093000000017
-8.931469333333334,-2.203744633333336,2.0601262000000014
-8.957002000000003,-2.2069361000000023,2.0537431000000015
-8.957002000000003,-2.2069361000000023,2.0537431000000015
-8.972959333333336,-2.2292768000000023,2.0441686000000012
-8.988916666666668,-2.251617500000002,2.0345941000000014
-9.004874000000001,-2.2739582000000014,2.0250196000000016
-8.992108000000002,-2.286724233333335,2.0314026333333346
-8.979342000000003,-2.2994902666666683,2.037785666666668
-8.966576000000003,-2.312256300000002,2.0441687000000015
-8.966576000000005,-2.312256300000002,2.0441687000000015
-8.966576000000005,-2.312256300000002,2.0441687000000015
-8.94742666666667,-2.3345969333333354,2.0505517333333345
-8.928277333333337,-2.356937566666669,2.056934766666668
-8.909128000000004,-2.379278200000002,2.0633178000000014
-8.909128000000004,-2.379278200000002,2.0633178000000014
-8.944235000000006,-2.3728951333333357,2.0792754000000016
-8.979342000000008,-2.3665120666666692,2.0952330000000017
-9.014449000000008,-2.360129000000003,2.111190600000002
-9.017640333333341,-2.363320600000003,2.1175736000000014
-9.020831666666675,-2.3665122000000025,2.123956600000001
-9.024023000000009,-2.369703800000002,2.1303396000000006
-9.024023000000009,-2.369703800000002,2.1303396
-9.024023000000009,-2.369703800000002,2.1303396
-9.014448333333343,-2.3601292000000025,2.114382
-9.004873666666677,-2.3505546000000024,2.0984244
-8.995299000000012,-2.3409800000000023,2.0824667999999997
-8.995299000000012,-2.3409800000000023,2.0824667999999993
-8.982533333333345,-2.344171566666669,2.066509199999999
-8.969767666666678,-2.3473631333333356,2.050551599999999
-8.957002000000012,-2.350554700000002,2.034593999999999
-8.957002000000012,-2.350554700000002,2.034593999999999
-8.95061866666668,-2.353746133333336,2.0058703333333323
-8.944235333333348,-2.3569375666666694,1.9771466666666655
-8.937852000000015,-2.360129000000003,1.948422999999999
-8.937852000000017,-2.360129000000003,1.948422999999999
-8.902745333333348,-2.363320600000003,1.906933233333332
-8.86763866666668,-2.3665122000000025,1.8654434666666653
-8.832532000000011,-2.369703800000002,1.8239536999999986
-8.822957333333344,-2.382469866666669,1.7984215333333318
-8.813382666666678,-2.3952359333333355,1.7728893666666652
-8.803808000000013,-2.408002000000002,1.7473571999999986
-8.803808000000014,-2.408002000000002,1.7473571999999986
-8.816574333333348,-2.3697037666666687,1.7760808999999986
-8.829340666666683,-2.331405533333335,1.8048045999999989
-8.842107000000016,-2.2931073000000013,1.8335282999999991
-8.842107000000018,-2.2931073000000013,1.8335282999999991
-8.835723666666686,-2.222893800000002,1.8654435333333323
-8.829340333333354,-2.1526803000000023,1.8973587666666658
-8.822957000000022,-2.082466800000003,1.9292739999999993
-8.822957000000022,-2.082466800000003,1.9292739999999995
-8.822957000000022,-2.082466800000003,1.9292739999999995
-8.87721300000002,-2.002678833333336,1.9484230999999994
-8.931469000000021,-1.922890866666669,1.9675721999999993
-8.985725000000022,-1.8431029000000023,1.9867212999999992
-9.09742800000002,-2.0377856000000025,1.9867212999999992
-9.209131000000019,-2.2324683000000025,1.9867212999999992
-9.320834000000017,-2.4271510000000025,1.9867212999999992
-9.320834000000017,-2.4271510000000025,1.9867212999999992
-9.28572733333335,-2.3058732666666693,2.449491766666666
-9.250620666666684,-2.184595533333336,2.9122622333333332
-9.215514000000018,-2.0633178000000023,3.3750327
-9.215514000000018,-2.0633178000000023,3.3750327
-9.215514000000018,-2.0633178000000023,3.3750327
-8.864446833333352,-2.5260882000000024,3.0271569333333335
-8.513379666666685,-2.9888586000000026,2.6792811666666663
-8.162312500000018,-3.4516290000000027,2.3314053999999995
-8.025077166666685,-3.662269333333336,1.8207621999999997
-7.8878418333333515,-3.8729096666666685,1.3101189999999996
-7.750606500000018,-4.083550000000002,0.7994757999999996
-7.750606500000018,-4.083550000000002,0.7994757999999996
-8.018694333333352,-3.556949166666668,1.096287166666666
-8.286782166666685,-3.0303483333333348,1.3930985333333326
-8.554870000000017,-2.5037475000000016,1.6899098999999993
-8.554870000000015,-2.5037475000000016,1.6899098999999993
-8.554870000000015,-2.5037475000000016,1.6899098999999993
-8.988916666666682,-2.5675779333333355,1.753740333333333
-9.42296333333335,-2.631408366666669,1.8175707666666667
-9.857010000000017,-2.6952388000000025,1.8814012000000002
-9.857010000000017,-2.6952388000000025,1.8814012000000002
-10.278290500000017,-2.784601366666669,1.8399114333333335
-10.699571000000015,-2.8739639333333353,1.798421666666667
-11.120851500000015,-2.9633265000000013,1.7569319000000005
-11.692134000000015,-3.110136366666668,2.0314026000000003
-12.263416500000014,-3.2569462333333354,2.3058733000000005
-12.834699000000015,-3.4037561000000025,2.5803440000000006
-12.834699000000015,-3.4037561000000025,2.5803440000000006
-12.834699000000015,-3.4037561000000025,2.5803440000000006
-11.787880166666682,-3.253754666666669,2.730345433333334
-10.741061333333349,-3.1037532333333355,2.880346866666667
-9.694242500000016,-2.9537518000000023,3.0303483000000004
-9.694242500000016,-2.9537518000000027,3.0303483000000004
-9.65275266666668,-2.8292825333333362,2.7207708666666672
-9.611262833333347,-2.70481326666667,2.411193433333334
-9.569773000000012,-2.5803440000000033,2.1016160000000004
-9.924031666666679,-2.36332066666667,1.8016131000000006
-10.278290333333345,-2.1462973333333366,1.5016102000000007
-10.632549000000012,-1.929274000000003,1.2016073000000007
-10.632549000000012,-1.929274000000003,1.2016073000000007
-10.632549000000012,-1.929274000000003,1.2016073000000007
-10.214460000000011,-1.4856526666666696,1.5303338666666673
-9.796371000000013,-1.0420313333333364,1.859060433333334
-9.378282000000013,-0.5984100000000031,2.1877870000000006
-9.378282000000013,-0.5984100000000031,2.1877870000000006
-8.727211900000015,-0.7388368666666699,1.8750180333333342
-8.076141800000016,-0.8792637333333366,1.5622490666666675
-7.425071700000015,-1.0196906000000034,1.249480100000001
-7.437837800000015,-1.3484171666666702,0.9271365800000009
-7.450603900000014,-1.6771437333333372,0.6047930600000008
-7.463370000000013,-2.005870300000004,0.28244954000000067
-7.463370000000013,-2.0058703000000047,0.28244954000000067
-7.463370000000013,-2.0058703000000047,0.28244954000000067
-7.75060666666668,-1.9899127333333382,0.38457819333333393
-8.037843333333347,-1.9739551666666717,0.4867068466666673
-8.325080000000014,-1.9579976000000052,0.5888355000000006
-8.325080000000014,-1.9579976000000052,0.5888355000000006
-9.183599000000015,-1.7313996666666718,0.7005386900000007
-10.042118000000016,-1.5048017333333383,0.8122418800000007
-10.900637000000017,-1.2782038000000047,0.9239450700000008
-10.900637000000017,-1.2782038000000047,0.9239450700000008
-10.839998000000017,-1.664377733333338,1.0356482800000009
-10.779359000000019,-2.050551666666671,1.1473514900000008
-10.718720000000019,-2.436725600000005,1.2590547000000007
-10.718720000000019,-2.436725600000005,1.2590547000000007
-10.457015333333352,-2.5165136666666714,1.702676000000001
-10.195310666666686,-2.5963017333333385,2.146297300000001
-9.933606000000019,-2.6760898000000055,2.589918600000001
-9.933606000000019,-2.6760898000000055,2.589918600000001
-9.88573350000002,-2.254809100000006,2.7622606666666676
-9.83786100000002,-1.8335284000000058,2.9346027333333335
-9.789988500000021,-1.412247700000006,3.1069447999999995
-9.789988500000021,-1.412247700000006,3.1069447999999995
-8.902745666666688,-1.1728836766666726,3.2314140666666664
-8.015502833333356,-0.9335196533333393,3.3558833333333333
-7.128260000000022,-0.6941556300000059,3.4803526000000002
-7.128260000000022,-0.6941556300000059,3.4803526000000002
-6.815491100000021,-0.9813924533333394,3.0111992000000005
-6.502722200000021,-1.2686292766666727,2.542045800000001
-6.18995330000002,-1.5558661000000062,2.072892400000001
-6.18995330000002,-1.5558661000000062,2.072892400000001
-6.847406366666687,-1.9962958333333394,1.836719900000001
-7.504859433333354,-2.4367255666666727,1.6005474000000006
-8.16231250000002,-2.8771553000000067,1.3643749000000003
-8.16231250000002,-2.8771553000000067,1.3643749000000003
-8.672955833333354,-2.97290093333334,1.3516088000000004
-9.183599166666689,-3.0686465666666733,1.3388427000000007
-9.694242500000023,-3.1643922000000066,1.3260766000000008
-9.694242500000023,-3.1643922000000066,1.3260766000000006
-10.635741000000023,-3.2601378000000065,1.463311966666667
-11.57723950000002,-3.355883400000007,1.6005473333333338
-12.51873800000002,-3.451629000000007,1.7377827000000003
-12.51873800000002,-3.451629000000007,1.7377827000000003
-12.375119666666686,-3.419713800000007,1.667569266666667
-12.231501333333354,-3.3877986000000067,1.597355833333334
-12.08788300000002,-3.3558834000000064,1.5271424000000007
-12.08788300000002,-3.3558834000000064,1.5271424000000007
-11.874051000000021,-3.5505661333333394,1.7250166666666675
-11.660219000000021,-3.745248866666673,1.9228909333333342
-11.446387000000023,-3.939931600000006,2.120765200000001
-11.446387000000023,-3.939931600000006,2.1207652000000015
-11.360216000000023,-3.6846100666666732,1.8431029333333344
-11.274045000000022,-3.42928853333334,1.5654406666666676
-11.187874000000022,-3.1739670000000064,1.2877784000000008
-11.187874000000022,-3.173967000000006,1.2877784000000008
-10.460207333333356,-2.6026848000000062,1.5494830666666672
-9.732540666666688,-2.031402600000006,1.811187733333334
-9.004874000000022,-1.460120400000006,2.0728924000000006
-9.004874000000022,-1.460120400000006,2.0728924000000006
-8.609125466666688,-1.006924560000006,2.034594133333334
-8.213376933333356,-0.553728720000006,1.9962958666666673
-7.8176284000000225,-0.10053288000000597,1.9579976000000006
-7.8176284000000225,-0.10053288000000597,1.9579976000000006
-7.913373933333356,-0.2281936866666726,1.795230066666667
-8.00911946666669,-0.35585449333333924,1.6324625333333334
-8.104865000000023,-0.4835153000000059,1.4696949999999998
-8.104865000000023,-0.48351530000000587,1.4696949999999998
-8.682530333333357,-0.8505401000000058,1.2494801333333332
-9.260195666666691,-1.217564900000006,1.0292652666666668
-9.837861000000023,-1.584589700000006,0.8090504
-9.837861000000023,-1.5845897000000058,0.8090504
-9.87935066666669,-1.769697900000006,0.5058559733333334
-9.920840333333356,-1.954806100000006,0.20266154666666678
-9.962330000000021,-2.1399143000000063,-0.1005328799999999
-9.962330000000021,-2.139914300000006,-0.1005328799999999
-10.048501000000021,-1.935657000000006,0.18351241333333346
-10.134672000000021,-1.7313997000000059,0.4675577066666668
-10.220843000000022,-1.5271424000000058,0.7516030000000001
-10.220843000000022,-1.5271424000000058,0.7516029999999999
-10.220843000000022,-1.5271424000000058,0.7516029999999999
-10.661272666666688,-1.5622491000000058,1.2877783333333335
-11.101702333333355,-1.5973558000000059,1.8239536666666665
-11.542132000000022,-1.632462500000006,2.3601289999999997
-10.44105800000002,-1.501610200000006,2.6058761333333327
-9.339984000000017,-1.370757900000006,2.851623266666666
-8.238910000000017,-1.2399056000000062,3.097370399999999
-8.238910000000015,-1.2399056000000062,3.097370399999999
-7.7984799000000145,-1.035648300000006,2.9441773999999987
-7.358049800000014,-0.8313910000000059,2.790984399999998
-6.917619700000014,-0.6271337000000059,2.637791399999998
-6.917619700000014,-0.6271337000000058,2.637791399999998
-6.917619700000014,-0.6271337000000058,2.637791399999998
-7.514434133333347,-1.099478700000006,2.117573633333332
-8.11124856666668,-1.571823700000006,1.5973558666666652
-8.708063000000013,-2.044168700000006,1.0771380999999987
-9.311260000000011,-2.398427400000006,1.2845868999999988
-9.914457000000011,-2.7526861000000054,1.4920356999999986
-10.51765400000001,-3.106944800000005,1.6994844999999985
-10.51765400000001,-3.106944800000005,1.699484499999998
-10.839997666666676,-3.0303483000000053,1.6420371333333315
-11.162341333333343,-2.953751800000006,1.5845897666666648
-11.484685000000008,-2.877155300000006,1.5271423999999982
-11.484685000000008,-2.877155300000006,1.5271423999999982
-11.484685000000008,-2.877155300000006,1.5271423999999982
-11.727240666666674,-3.1229024000000063,1.4313967999999984
-11.96979633333334,-3.3686495000000067,1.3356511999999985
-12.212352000000005,-3.6143966000000067,1.2399055999999986
-12.904911666666672,-4.383552900000008,1.3452257666666654
-13.59747133333334,-5.152709200000007,1.4505459333333321
-14.290031000000008,-5.921865500000007,1.5558660999999987
-14.290031000000008,-5.921865500000007,1.5558660999999987
-13.696408333333343,-4.571852500000008,1.163309113333332
-13.102785666666676,-3.2218395000000086,0.7707521266666651
-12.50916300000001,-1.871826500000009,0.3781951399999985
-12.50916300000001,-1.871826500000009,0.37819513999999854
-12.50916300000001,-1.871826500000009,0.37819513999999854
-11.69213400000001,-1.0292652000000089,1.0133076266666652
-10.87510500000001,-0.1867039000000088,1.648420113333332
-10.058076000000009,0.6558573999999912,2.2835325999999987
-10.058076000000009,0.6558573999999912,2.2835325999999987
-9.521900666666676,0.6175591466666579,2.4526831999999987
-8.985725333333344,0.5792608933333246,2.6218337999999988
-8.449550000000011,0.5409626399999913,2.7909843999999993
-8.005928566666677,0.07180919333332465,2.4080019999999993
-7.562307133333344,-0.397344253333342,2.0250195999999994
-7.11868570000001,-0.8664977000000086,1.6420371999999992
-7.11868570000001,-0.8664977000000086,1.6420371999999992
-7.11868570000001,-0.8664977000000086,1.6420371999999992
-7.0516637000000095,-1.2973529000000088,1.338842766666666
-6.984641700000009,-1.7282081000000087,1.0356483333333328
-6.917619700000009,-2.1590633000000086,0.7324538999999998
-6.917619700000009,-2.1590633000000086,0.7324538999999998
-7.243154800000009,-2.136722700000009,0.547345723333333
-7.568689900000009,-2.114382100000009,0.3622375466666663
-7.8942250000000085,-2.0920415000000094,0.17712936999999962
-8.803808000000009,-2.0569347666666755,0.43564251333333287
-9.713391000000009,-2.021828033333342,0.6941556566666662
-10.622974000000008,-1.9867213000000081,0.9526687999999996
-10.622974000000008,-1.9867213000000081,0.9526687999999996
-10.622974000000008,-1.9867213000000081,0.9526687999999996
-11.280427333333343,-2.2580005333333415,1.4409713999999998
-11.937880666666677,-2.5292797666666744,1.9292740000000002
-12.59533400000001,-2.8005590000000082,2.4175766000000003
-12.59533400000001,-2.8005590000000082,2.4175766000000003
-11.832560666666678,-2.481406966666675,2.5707695000000004
-11.069787333333345,-2.1622549333333416,2.7239624
-10.307014000000011,-1.843102900000008,2.8771553
-10.307014000000011,-1.843102900000008,2.8771553
-9.493176466666677,-1.4696950333333414,2.6537489
-8.679338933333343,-1.0962871666666747,2.4303425
-7.865501400000009,-0.7228793000000081,2.2069361
-7.865501400000009,-0.7228793000000081,2.2069361
-7.839969266666675,-0.8377740333333416,2.085658366666667
-7.8144371333333424,-0.9526687666666751,1.9643806333333333
-7.7889050000000095,-1.0675635000000085,1.8431028999999999
-7.7889050000000095,-1.0675635000000085,1.8431028999999999
-8.558061333333342,-1.578206766666675,1.7505488333333332
-9.327217666666675,-2.0888500333333417,1.6579947666666666
-10.096374000000006,-2.599493300000008,1.5654407
-10.096374000000006,-2.5994933000000082,1.5654407
-9.952755666666672,-2.7877929333333413,1.4537375
-9.809137333333338,-2.9760925666666744,1.3420343
-9.665519000000005,-3.1643922000000075,1.2303311
-9.665519000000005,-3.1643922000000075,1.2303311
-10.488931333333337,-3.4005647333333413,1.0516059433333333
-11.312343666666669,-3.6367372666666746,0.8728807866666667
-12.135756,-3.872909800000008,0.69415563
-12.135756,-3.872909800000008,0.69415563
-12.537887333333336,-4.220785533333342,0.9111789866666667
-12.940018666666669,-4.568661266666675,1.1282023433333335
-13.342150000000004,-4.916537000000008,1.3452257000000003
-13.342150000000004,-4.916537000000008,1.3452257000000003
-12.901720333333335,-4.610151000000008,1.4122476333333338
-12.461290666666665,-4.303765000000008,1.479269566666667
-12.020860999999996,-3.997379000000009,1.5462915000000006
-12.020860999999996,-3.997379000000009,1.5462915000000006
-11.829369666666665,-3.0718381333333418,1.2973529333333338
-11.637878333333333,-2.1462972666666746,1.0484143666666672
-11.446387000000001,-1.2207564000000075,0.7994758000000005
-11.446387000000001,-1.2207564000000075,0.7994758000000005
-11.021915000000002,-0.978200883333341,1.2558632000000005
-10.597443000000004,-0.7356453666666746,1.7122506000000006
-10.172971000000004,-0.49308985000000805,2.168638000000001
-10.172971000000006,-0.49308985000000805,2.168638000000001
-9.777222333333338,-0.6941556000000081,2.0250195666666677
-9.38147366666667,-0.895221350000008,1.8814011333333347
-8.985725000000004,-1.096287100000008,1.7377827000000015
-8.985725000000002,-1.096287100000008,1.7377827000000015
-8.593168,-1.1218192666666746,1.6484201333333346
-8.200611,-1.1473514333333414,1.5590575666666677
-7.8080539999999985,-1.172883600000008,1.4696950000000009
-7.8080539999999985,-1.172883600000008,1.4696950000000009
-7.517625666666665,-1.1760751333333412,1.3579918000000009
-7.227197333333332,-1.1792666666666745,1.2462886000000009
-6.936768999999998,-1.1824582000000077,1.1345854000000009
-6.936768999999998,-1.1824582000000075,1.1345854000000009
-7.2782616666666655,-1.469695033333341,0.9750094000000011
-7.619754333333333,-1.7569318666666742,0.8154334000000011
-7.961247,-2.0441687000000077,0.655857400000001
-7.961247,-2.0441687000000073,0.6558574000000011
-8.963384333333332,-2.2643835333333406,0.7292623666666679
-9.965521666666666,-2.484598366666674,0.8026673333333346
-10.967658999999998,-2.7048132000000074,0.8760723000000014
-10.967658999999998,-2.7048132000000074,0.8760723000000014
-11.500642666666664,-2.5197051333333405,1.389907066666668
-12.03362633333333,-2.334597066666673,1.9037418333333347
-12.566609999999997,-2.149489000000006,2.417576600000001
-12.566609999999997,-2.1494890000000058,2.4175766000000007
-12.129371999999998,-1.9005503666666728,2.050551766666667
-11.692134000000001,-1.6516117333333395,1.683526933333334
-11.254896000000002,-1.4026731000000063,1.3165021000000008
-11.254896000000002,-1.4026731000000066,1.3165021000000008
-10.032543666666669,-1.1154362800000066,1.7473573000000007
-8.810191333333336,-0.8281994600000067,2.1782125000000003
-7.587839000000002,-0.5409626400000067,2.6090677
-7.587839000000002,-0.5409626400000067,2.6090677
-7.587839000000002,-0.5409626400000067,2.6090677
-7.412305433333336,-0.8792637933333399,2.1654464
-7.236771866666669,-1.2175649466666734,1.7218250999999996
-7.061238300000003,-1.5558661000000067,1.2782037999999996
-7.843160533333337,-2.05055173333334,1.128202366666666
-8.62508276666667,-2.545237366666673,0.9782009333333329
-9.407005000000003,-3.0399230000000066,0.8281994999999996
-9.407005000000003,-3.0399230000000066,0.8281994999999996
-9.646369000000002,-3.1260940666666737,0.8760722999999996
-9.885733000000002,-3.21226513333334,0.9239450999999995
-10.125097000000002,-3.2984362000000065,0.9718178999999995
-10.125097,-3.298436200000006,0.9718178999999995
-10.125097,-3.298436200000006,0.9718178999999995
-10.887870666666666,-3.419713933333339,1.0484143666666659
-11.650644333333332,-3.5409916666666716,1.1250108333333324
-12.413417999999998,-3.6622694000000044,1.201607299999999
-12.043201666666663,-3.7165252666666717,1.2399055666666656
-11.67298533333333,-3.770781133333339,1.2782038333333323
-11.302768999999996,-3.8250370000000067,1.316502099999999
-11.302768999999996,-3.8250370000000067,1.316502099999999
-11.321917999999997,-4.089933000000006,1.4633120333333325
-11.341066999999997,-4.354829000000005,1.610121966666666
-11.360216,-4.619725000000003,1.7569318999999994
-11.360216,-4.619725000000003,1.7569318999999997
-11.360216,-4.619725000000003,1.7569318999999997
-11.312343333333331,-3.971846600000004,1.4282053099999998
-11.264470666666663,-3.3239682000000044,1.0994787199999998
-11.216597999999996,-2.6760898000000046,0.7707521299999999
-10.926169333333329,-1.999487483333338,1.0994787199999998
-10.635740666666663,-1.3228851666666714,1.4282053099999998
-10.345311999999998,-0.6462828500000047,1.7569318999999997
-10.345311999999998,-0.6462828500000047,1.7569318999999997
-10.093182166666665,-0.5313881233333381,1.8399113666666664
-9.841052333333332,-0.41649339666667146,1.922890833333333
-9.5889225,-0.3015986700000048,2.0058702999999998
-9.5889225,-0.3015986700000048,2.0058702999999998
-9.5889225,-0.3015986700000048,2.0058702999999998
-9.509134333333334,-0.4101103466666714,1.8750179999999996
-9.429346166666667,-0.5186220233333381,1.7441656999999993
-9.349558,-0.6271337000000047,1.6133133999999991
-9.349558,-0.6271337000000047,1.6133133999999991
-9.180407666666666,-0.9654348666666713,1.4569289333333326
-9.011257333333331,-1.3037360333333379,1.300544466666666
-8.842106999999997,-1.6420372000000045,1.1441599999999994
-8.736786666666665,-1.6292711000000046,0.885646856666666
-8.63146633333333,-1.6165050000000045,0.6271337133333327
-8.526145999999997,-1.6037389000000044,0.3686205699999992
-8.526145999999995,-1.6037389000000044,0.3686205699999992
-8.526145999999995,-1.6037389000000044,0.3686205699999992
-8.672955999999996,-1.8845927000000045,0.4133018633333325
-8.819765999999996,-2.1654465000000047,0.4579831566666659
-8.966575999999995,-2.4463003000000043,0.5026644499999993
-8.966575999999995,-2.4463003000000048,0.5026644499999993
-9.132534999999995,-2.6856642666666715,1.003733066666666
-9.298493999999996,-2.925028233333338,1.5048016833333326
-9.464452999999997,-3.1643922000000053,2.0058702999999993
-9.844243999999998,-2.8037504000000055,1.8590604333333325
-10.224034999999999,-2.4431086000000057,1.7122505666666659
-10.603825999999998,-2.082466800000006,1.5654406999999992
-10.603825999999998,-2.082466800000006,1.5654406999999992
-10.603825999999998,-2.082466800000006,1.5654406999999992
-10.351695666666666,-2.0728922333333393,1.9548061333333326
-10.099565333333336,-2.063317666666672,2.3441715666666663
-9.847435000000004,-2.0537431000000055,2.7335369999999997
-9.847435000000006,-2.0537431000000055,2.7335369999999997
-9.196365000000005,-1.7250165666666721,2.522896666666666
-8.545295000000007,-1.396290033333339,2.3122563333333326
-7.894225000000007,-1.0675635000000057,2.1016159999999995
-7.894225000000007,-1.0675635000000057,2.1016159999999995
-8.353804000000009,-1.3899070000000056,1.683526866666666
-8.813383000000009,-1.7122505000000057,1.2654377333333329
-9.272962000000009,-2.0345940000000056,0.8473485999999996
-9.272962000000009,-2.0345940000000056,0.8473485999999996
-9.611263333333342,-2.5197051000000052,0.8122418666666663
-9.949564666666676,-3.0048162000000054,0.7771351333333332
-10.28786600000001,-3.489927300000005,0.7420284
-11.018723666666675,-3.722908333333338,0.80585882
-11.74958133333334,-3.9558893666666717,0.8696892399999999
-12.480439000000006,-4.188870400000005,0.9335196599999999
-12.480439000000004,-4.188870400000006,0.9335196599999999
-11.979370666666668,-4.188870400000006,1.2462886066666663
-11.478302333333332,-4.188870400000006,1.559057553333333
-10.977233999999996,-4.188870400000006,1.8718264999999998
-10.977233999999996,-4.188870400000006,1.8718264999999998
-11.031489666666664,-4.15057213333334,1.7218250666666666
-11.08574533333333,-4.112273866666674,1.5718236333333333
-11.140000999999998,-4.073975600000008,1.4218222
-11.140000999999998,-4.073975600000008,1.4218222
-11.140000999999998,-4.073975600000008,1.4218222
-11.526175,-3.6271627333333414,1.0356482733333332
-11.912349,-3.1803498666666754,0.6494743466666667
-12.298523000000003,-2.733537000000009,0.26330042
-11.621920666666668,-1.8303368006666758,0.8856468133333332
-10.945318333333333,-0.9271366013333425,1.5079932066666666
-10.268716,-0.02393640200000909,2.1303395999999997
-10.268716,-0.02393640200000909,2.1303396
-9.908074000000001,-0.08457528133334241,2.159063333333333
-9.547432000000002,-0.14521416066667572,2.187787066666666
-9.186790000000004,-0.20585304000000904,2.216510799999999
-9.186790000000004,-0.205853040000009,2.2165107999999987
-9.186790000000004,-0.205853040000009,2.2165107999999987
-8.937851666666669,-0.4994728933333423,1.8335283666666655
-8.688913333333337,-0.7930927466666757,1.4505459333333324
-8.439975000000004,-1.0867126000000091,1.0675634999999992
-8.40167666666667,-1.294161400000009,0.9271366166666658
-8.363378333333335,-1.5016102000000089,0.7867097333333325
-8.325080000000002,-1.7090590000000088,0.6462828499999992
-8.32508,-1.7090590000000088,0.6462828499999991
-8.32508,-1.7090590000000088,0.6462828499999991
-8.688913333333332,-1.7888470000000087,0.6622404433333324
-9.052746666666664,-1.868635000000009,0.6781980366666658
-9.416579999999996,-1.948423000000009,0.6941556299999991
-9.416579999999994,-1.948423000000009,0.6941556299999991
-9.45487833333333,-2.018636433333342,0.649474339999999
-9.493176666666665,-2.0888498666666755,0.604793049999999
-9.531474999999999,-2.1590633000000086,0.560111759999999
-9.531475,-2.1590633000000086,0.560111759999999
-9.668710333333332,-2.4814068666666755,1.1696921066666655
-9.805945666666664,-2.803750433333342,1.7792724533333324
-9.943180999999996,-3.126094000000009,2.388852799999999
-9.943180999999994,-3.126094000000009,2.388852799999999
-9.834669333333327,-2.8005590000000087,2.264383533333332
-9.72615766666666,-2.4750240000000088,2.1399142666666653
-9.617645999999992,-2.1494890000000093,2.0154449999999984
-9.617645999999992,-2.1494890000000093,2.0154449999999984
-9.298493999999991,-1.8016132666666762,1.977146733333332
-8.97934199999999,-1.453737533333343,1.9388484666666652
-8.660189999999991,-1.10586180000001,1.9005501999999985
-8.660189999999991,-1.10586180000001,1.9005501999999985
-8.621891666666656,-1.25267170000001,1.8462943666666654
-8.58359333333332,-1.3994816000000103,1.7920385333333322
-8.545294999999987,-1.5462915000000106,1.7377826999999992
-8.545294999999985,-1.5462915000000106,1.7377826999999992
-8.842106333333318,-1.7122505666666772,1.782463966666666
-9.138917666666652,-1.8782096333333438,1.827145233333333
-9.435728999999984,-2.0441687000000104,1.8718264999999998
-9.435728999999984,-2.0441687000000104,1.8718264999999998
-9.46445266666665,-2.0314025666666766,1.9420399333333334
-9.493176333333318,-2.0186364333333433,2.0122533666666667
-9.521899999999984,-2.00587030000001,2.0824667999999997
-9.521899999999983,-2.00587030000001,2.0824667999999993
-10.415525666666648,-2.4718322333333433,1.7920384999999992
-11.309151333333313,-2.937794166666677,1.501610199999999
-12.202776999999978,-3.403756100000011,1.2111818999999986
-12.202776999999978,-3.403756100000011,1.2111818999999988
-12.400651333333313,-3.805887733333344,1.192032799999999
-12.598525666666646,-4.208019366666677,1.172883699999999
-12.796399999999979,-4.61015100000001,1.153734599999999
-12.796399999999979,-4.61015100000001,1.153734599999999
-11.740006666666646,-4.447383333333343,1.3899070666666657
-10.683613333333314,-4.284615666666675,1.6260795333333322
-9.627219999999982,-4.121848000000008,1.862251999999999
-9.627219999999982,-4.121848000000007,1.862251999999999
-10.147437999999982,-3.604821833333341,1.482461099999999
-10.667655999999981,-3.087795666666674,1.1026701999999988
-11.187873999999981,-2.570769500000008,0.7228792999999989
-11.187873999999981,-2.5707695000000084,0.7228792999999989
-10.69637966666665,-1.9165078666666753,1.0420313333333322
-10.204885333333316,-1.262246233333342,1.3611833666666655
-9.713390999999982,-0.6079846000000085,1.6803353999999988
-9.713390999999982,-0.6079846000000085,1.6803353999999988
-9.557006666666647,-0.5250050666666753,1.8048046333333323
-9.400622333333311,-0.442025533333342,1.9292738666666658
-9.244237999999976,-0.35904600000000864,2.0537430999999993
-9.244237999999976,-0.35904600000000864,2.053743099999999
-9.119768999999975,-0.6781980333333418,1.7377826666666654
-8.995299999999975,-0.9973500666666751,1.421822233333332
-8.870830999999976,-1.3165021000000083,1.1058617999999985
-8.870830999999976,-1.3165021000000083,1.1058617999999982
-8.797425999999978,-1.530333933333342,0.9622433666666649
-8.72402099999998,-1.7441657666666754,0.8186249333333314
-8.65061599999998,-1.9579976000000088,0.6750064999999981
-8.65061599999998,-1.9579976000000088,0.6750064999999981
-8.701679999999982,-2.0122534666666754,0.6494743333333314
-8.752743999999984,-2.0665093333333417,0.6239421666666648
-8.803807999999984,-2.1207652000000086,0.5984099999999981
-8.803807999999986,-2.1207652000000086,0.5984099999999981
-9.671901666666653,-2.107999066666675,0.5633032833333315
-10.53999533333332,-2.0952329333333415,0.5281965666666649
-11.408088999999984,-2.082466800000008,0.4930898499999983
-11.408088999999984,-2.0824668000000077,0.4930898499999983
-10.820849333333319,-2.0760838000000077,0.8984128999999984
-10.23360966666665,-2.0697008000000072,1.3037359499999985
-9.646369999999985,-2.063317800000007,1.7090589999999988
-9.646369999999985,-2.063317800000007,1.7090589999999988
-9.81552033333332,-1.9260824333333406,1.6931013999999989
-9.984670666666654,-1.7888470666666738,1.677143799999999
-10.153820999999988,-1.6516117000000072,1.6611861999999993
-10.153820999999988,-1.6516117000000072,1.6611861999999993
-9.505942666666655,-1.552674566666674,1.7154420333333322
-8.858064333333322,-1.4537374333333404,1.7696978666666654
-8.210185999999988,-1.354800300000007,1.8239536999999986
-8.210185999999988,-1.354800300000007,1.8239536999999986
-7.562307199999989,-1.6101219333333405,2.114382066666665
-6.914428399999989,-1.8654435666666738,2.4048104333333318
-6.26654959999999,-2.1207652000000072,2.695238799999998
-6.26654959999999,-2.1207652000000072,2.695238799999998
-6.786767499999989,-2.184595566666674,1.910124833333331
-7.306985399999989,-2.248425933333341,1.1250108666666645
-7.827203299999989,-2.3122563000000076,0.3398968999999978
-7.827203299999989,-2.312256300000008,0.3398968999999978
-8.893170866666656,-2.570769433333341,0.4164933833333311
-9.959138433333322,-2.829282566666674,0.4930898666666644
-11.025105999999989,-3.0877957000000076,0.5696863499999977
-11.025105999999989,-3.0877957000000067,0.5696863499999977
-11.48149333333332,-2.9282197000000068,0.6590489133333309
-11.937880666666656,-2.768643700000007,0.7484114766666642
-12.39426799999999,-2.609067700000007,0.8377740399999974
-12.394267999999991,-2.6090677000000064,0.8377740399999972
-12.407034333333323,-2.9154536000000064,1.1633090933333305
-12.419800666666655,-3.2218395000000064,1.488844146666664
-12.432566999999986,-3.528225400000006,1.8143791999999974
-12.432566999999986,-3.528225400000006,1.8143791999999974
-11.404897333333322,-4.00057043333334,1.8909756999999974
-10.377227666666656,-4.472915466666674,1.9675721999999973
-9.34955799999999,-4.945260500000007,2.044168699999997
-9.34955799999999,-4.945260500000006,2.044168699999997
-9.805945333333321,-4.441000300000005,1.6739523533333305
-10.262332666666653,-3.9367401000000046,1.3037360066666637
-10.718719999999985,-3.432479900000004,0.933519659999997
-10.718719999999985,-3.432479900000004,0.933519659999997
-10.450632333333319,-2.640982900000004,1.1760751733333306
-10.182544666666653,-1.8494859000000037,1.418630686666664
-9.914456999999986,-1.0579889000000036,1.6611861999999975
-9.914456999999986,-1.0579889000000036,1.6611861999999975
-9.914456999999986,-1.0579889000000036,1.6611861999999975
-9.70062533333332,-0.6207506466666703,1.9292738999999974
-9.486793666666655,-0.183512393333337,2.1973615999999976
-9.272961999999987,0.25372585999999636,2.4654492999999973
-9.174024833333322,-0.07500072666667033,2.200553133333331
-9.075087666666656,-0.40372731333333706,1.935656966666664
-8.97615049999999,-0.7324539000000038,1.6707607999999976
-8.97615049999999,-0.7324539000000035,1.6707607999999976
-9.062321666666657,-1.1569260333333367,1.3548002999999975
-9.148492833333323,-1.58139816666667,1.0388397999999974
-9.23466399999999,-2.0058703000000038,0.7228792999999974
-9.23466399999999,-2.0058703000000038,0.7228792999999974
-9.23466399999999,-2.0058703000000038,0.7228792999999974
-9.904882999999991,-1.8973586666666702,0.4707492133333307
-10.575101999999989,-1.7888470333333366,0.21861912666666403
-11.245320999999988,-1.680335400000003,-0.03351096000000264
-10.833614999999986,-1.6899099333333363,-0.3303223300000027
-10.421908999999987,-1.6994844666666697,-0.6271337000000027
-10.010202999999986,-1.7090590000000032,-0.9239450700000026
-10.010202999999986,-1.7090590000000032,-0.9239450700000026
-10.010202999999986,-1.7090590000000032,-0.9239450700000026
-9.544240999999987,-2.2707665666666697,-0.2569173466666692
-9.078278999999986,-2.8324741333333368,0.4101103766666642
-8.612316999999987,-3.394181700000004,1.0771380999999975
-8.612316999999988,-3.394181700000004,1.0771380999999975
-8.692104999999989,-3.20588196666667,1.453737433333331
-8.77189299999999,-3.017582233333336,1.8303367666666643
-8.85168099999999,-2.829282500000003,2.206936099999998
-8.270824433333324,-2.360129066666669,2.222893733333331
-7.689967866666659,-1.8909756333333358,2.238851366666664
-7.109111299999992,-1.4218222000000023,2.2548089999999976
-7.109111299999992,-1.4218222000000023,2.2548089999999976
-7.109111299999992,-1.4218222000000023,2.2548089999999976
-7.153792533333326,-1.2462886000000022,2.385661333333331
-7.198473766666659,-1.070755000000002,2.5165136666666643
-7.243154999999992,-0.8952214000000017,2.6473659999999977
-7.243154999999992,-0.8952214000000017,2.6473659999999977
-7.900607999999991,-1.4313967666666683,2.2548089999999976
-8.55806099999999,-1.9675721333333351,1.8622519999999974
-9.21551399999999,-2.503747500000002,1.4696949999999973
-9.21551399999999,-2.5037475000000025,1.4696949999999973
-9.847435333333323,-2.704813266666669,1.5143762999999975
-10.479356666666655,-2.9058790333333353,1.5590575999999974
-11.11127799999999,-3.106944800000002,1.6037388999999973
-11.11127799999999,-3.106944800000002,1.6037388999999973
-11.459153333333324,-3.161200666666669,1.6452286666666642
-11.807028666666659,-3.215456533333336,1.686718433333331
-12.154903999999993,-3.2697124000000026,1.7282081999999976
-12.154903999999993,-3.2697124000000026,1.7282081999999976
-12.786825333333326,-3.540991600000003,1.8814011333333311
-13.418746666666658,-3.8122708000000025,2.0345940666666644
-14.050667999999993,-4.0835500000000025,2.187786999999998
-14.050667999999993,-4.0835500000000025,2.187786999999998
-12.898528999999991,-3.8984418000000027,2.3697036666666644
-11.746389999999991,-3.7133336000000035,2.551620333333331
-10.594250999999991,-3.5282254000000037,2.733536999999998
-10.594250999999991,-3.5282254000000037,2.733536999999998
-10.721911999999989,-2.9122620666666705,2.165446433333331
-10.849572999999987,-2.2962987333333373,1.5973558666666647
-10.977233999999987,-1.6803354000000041,1.029265299999998
-10.977233999999987,-1.6803354000000041,1.0292652999999983
-10.575102333333321,-1.1760752033333377,1.188841266666665
-10.172970666666654,-0.6718150066666709,1.3484172333333315
-9.770838999999986,-0.1675548100000043,1.5079931999999978
-9.770838999999986,-0.1675548100000043,1.5079931999999978
-9.400622666666651,-0.1962784933333377,1.747357199999998
-9.030406333333318,-0.22500217666667108,1.986721199999998
-8.660189999999984,-0.25372586000000447,2.226085199999998
-8.660189999999984,-0.25372586000000447,2.226085199999998
-8.44316666666665,-0.8888383400000045,1.6452285666666644
-8.226143333333317,-1.5239508200000047,1.0643719333333308
-8.009119999999982,-2.1590633000000046,0.4835152999999974
-8.00911999999998,-2.159063300000005,0.4835152999999974
-7.760181433333314,-2.1654463333333385,0.28244952999999745
-7.511242866666648,-2.1718293666666715,0.08138375999999743
-7.262304299999982,-2.178212400000005,-0.11968201000000256
-7.262304299999982,-2.178212400000005,-0.11968201000000256
-7.342092199999981,-2.0314025000000053,0.017553359999997447
-7.4218800999999806,-1.8845926000000055,0.15478872999999746
-7.50166799999998,-1.7377827000000057,0.29202409999999746
-7.50166799999998,-1.7377827000000057,0.2920240999999975
-8.325080333333313,-1.8909757000000056,0.33351386666666416
-9.148492666666645,-2.0441687000000055,0.3750036333333308
-9.971904999999976,-2.1973617000000054,0.4164933999999974
-9.971904999999976,-2.1973617000000054,0.4164933999999974
-10.166587666666643,-2.360129200000005,0.8824553333333306
-10.36127033333331,-2.5228967000000053,1.348417266666664
-10.55595299999998,-2.685664200000005,1.8143791999999974
-10.55595299999998,-2.685664200000005,1.8143791999999974
-10.999574333333312,-2.5420458000000052,2.0824668999999973
-11.443195666666645,-2.398427400000005,2.3505545999999975
-11.886816999999978,-2.254809000000005,2.618642299999997
-11.886816999999978,-2.254809000000005,2.6186422999999976
-10.961275999999977,-2.069700833333339,2.5580033999999974
-10.035734999999976,-1.8845926666666724,2.497364499999998
-9.110193999999977,-1.6994845000000058,2.4367255999999986
-9.110193999999977,-1.6994845000000058,2.4367255999999986
-8.369761499999976,-1.3771409666666727,2.497364499999999
-7.629328999999977,-1.0547974333333394,2.558003399999999
-6.888896499999977,-0.7324539000000061,2.618642299999999
-6.888896499999977,-0.732453900000006,2.6186422999999994
-7.220814566666644,-1.0452228666666725,2.2580004999999996
-7.552732633333311,-1.3579918333333392,1.8973586999999998
-7.884650699999978,-1.6707608000000056,1.5367169
-7.884650699999978,-1.6707608000000056,1.5367169
-8.433592133333311,-2.0824668666666724,1.6931013666666666
-8.982533566666644,-2.494172933333339,1.8494858333333333
-9.531474999999977,-2.905879000000006,2.0058702999999998
-9.531474999999977,-2.905879000000006,2.0058702999999998
-9.76126433333331,-2.988858533333339,1.8750179999999996
-9.991053666666645,-3.071838066666672,1.7441656999999993
-10.220842999999979,-3.1548176000000048,1.6133133999999991
-10.220842999999979,-3.1548176000000048,1.6133133999999991
-11.890007999999979,-3.6207795333333386,1.5239508333333325
-13.559172999999978,-4.086741466666672,1.434588266666666
-15.228337999999978,-4.552703400000007,1.3452256999999994
-15.228337999999978,-4.552703400000007,1.3452256999999994
-13.910240333333311,-4.319722433333339,1.6835267999999992
-12.592142666666645,-4.086741466666672,2.0218278999999995
-11.274044999999978,-3.8537605000000066,2.3601289999999993
-11.274044999999978,-3.8537605000000066,2.3601289999999993
-11.283619666666644,-3.180349766666673,2.0122533666666658
-11.29319433333331,-2.5069390333333392,1.6643777333333325
-11.302768999999975,-1.8335283000000058,1.316502099999999
-11.302768999999975,-1.8335283000000058,1.316502099999999
-10.932552666666643,-1.587781233333339,1.243097099999999
-10.562336333333311,-1.3420341666666724,1.1696920999999991
-10.19211999999998,-1.0962871000000058,1.0962870999999994
-10.19211999999998,-1.096287100000006,1.0962870999999994
-9.617646166666647,-1.0164991200000058,1.5175677333333326
-9.043172333333313,-0.9367111400000058,1.9388483666666663
-8.468698499999979,-0.8569231600000058,2.360129
-8.468698499999979,-0.8569231600000058,2.360129
-8.082524666666645,-1.1345854066666723,1.9324653666666667
-7.696350833333312,-1.4122476533333386,1.5048017333333334
-7.310176999999979,-1.689909900000005,1.0771381000000002
-7.310176999999979,-1.6899099000000046,1.0771381000000002
-7.310176999999979,-1.6899099000000046,1.0771381000000002
-7.032514666666646,-1.7313996666666718,0.8696892800000002
-6.7548523333333135,-1.772889433333339,0.6622404600000001
-6.47718999999998,-1.8143792000000059,0.45479164000000005
-6.64314899999998,-1.801613133333339,0.54096268
-6.80910799999998,-1.7888470666666725,0.62713372
-6.975066999999979,-1.7760810000000058,0.7133047600000001
-6.975066999999979,-1.776081000000006,0.7133047600000001
-8.417634333333313,-1.9196993666666728,0.5760693966666668
-9.860201666666645,-2.06331773333334,0.43883403333333343
-11.302768999999978,-2.2069361000000067,0.3015986700000001
-11.302768999999978,-2.2069361000000067,0.3015986700000001
-11.590005666666647,-2.38246973333334,0.5792609133333334
-11.877242333333314,-2.5580033666666733,0.8569231566666667
-12.16447899999998,-2.7335370000000068,1.1345854
-12.16447899999998,-2.7335370000000068,1.1345854
-11.800645666666648,-2.2931072333333398,1.6452286000000003
-11.436812333333316,-1.8526774666666732,2.1558718000000003
-11.072978999999984,-1.4122477000000064,2.666515
-11.072978999999984,-1.4122477000000064,2.666515
-11.072978999999984,-1.4122477000000064,2.666515
-10.511271499999983,-1.504801766666673,2.360129066666666
-9.949563999999985,-1.5973558333333397,2.0537431333333327
-9.387856499999986,-1.6899099000000064,1.747357199999999
-8.57721043333332,-1.4345882900000066,2.0697007999999992
-7.766564366666654,-1.179266680000007,2.392044399999999
-6.955918299999989,-0.9239450700000069,2.714387999999999
-6.955918299999989,-0.9239450700000068,2.714387999999999
-7.134643399999988,-1.4728865466666734,2.1526804333333325
-7.313368499999989,-2.02182802333334,1.5909728666666663
-7.492093599999989,-2.570769500000006,1.0292652999999998
-7.492093599999989,-2.5707695000000057,1.0292652999999998
-7.492093599999989,-2.5707695000000057,1.0292652999999998
-8.216568733333322,-2.7973674666666724,1.022882233333333
-8.941043866666655,-3.023965433333339,1.0164991666666663
-9.665518999999987,-3.2505634000000057,1.0101160999999996
-10.255949999999988,-3.234605733333339,0.9973500333333328
-10.846380999999989,-3.2186480666666726,0.9845839666666661
-11.436811999999989,-3.2026904000000065,0.9718178999999996
-11.436811999999989,-3.2026904000000065,0.9718178999999996
-11.436811999999989,-3.2026904000000065,0.9718178999999996
-11.787879333333322,-3.5218425000000066,1.0803295666666661
-12.138946666666655,-3.840994600000007,1.188841233333333
-12.490013999999988,-4.1601467000000065,1.2973528999999997
-12.490013999999988,-4.160146700000007,1.2973529
-11.921923666666652,-4.042060366666674,1.4792695666666666
-11.353833333333318,-3.923974033333341,1.6611862333333332
-10.785742999999982,-3.805887700000007,1.8431028999999999
-10.785742999999982,-3.805887700000007,1.8431028999999999
-11.041064333333315,-3.8665266000000074,1.8048046666666666
-11.296385666666646,-3.9271655000000076,1.7665064333333333
-11.551706999999979,-3.9878044000000075,1.7282082
-11.551706999999979,-3.9878044000000075,1.7282082
-11.497451333333311,-3.304819100000008,1.4696950666666666
-11.443195666666645,-2.621833800000008,1.2111819333333331
-11.388939999999977,-1.9388485000000084,0.9526687999999996
-11.388939999999977,-1.9388485000000084,0.9526687999999996
-11.076170999999976,-1.255863185333342,1.3835240333333332
-10.763401999999978,-0.5728778706666752,1.814379266666667
-10.45063299999998,0.11010744399999146,2.2452345000000005
-10.45063299999998,0.11010744399999146,2.2452345000000005
-9.895308333333315,-0.027127927333341868,2.044168733333334
-9.33998366666665,-0.1643632986666752,1.8431029666666674
-8.784658999999982,-0.30159867000000856,1.6420372000000008
-8.784658999999984,-0.30159867000000856,1.6420372000000008
-8.596359333333318,-0.7228793466666752,1.227139553333334
-8.408059666666652,-1.1441600233333418,0.8122419066666673
-8.219759999999987,-1.5654407000000086,0.3973442600000006
-8.219759999999987,-1.5654407000000086,0.39734426000000056
-8.51018833333332,-1.9037418000000086,0.2218106533333339
-8.800616666666654,-2.2420429000000084,0.046277046666667244
-9.091044999999987,-2.5803440000000086,-0.1292565599999994
-9.091044999999987,-2.5803440000000086,-0.1292565599999994
-9.458069999999985,-2.4111934666666754,-0.22819368999999942
-9.825094999999983,-2.2420429333333423,-0.3271308199999994
-10.192119999999981,-2.072892400000009,-0.42606794999999936
-10.19211999999998,-2.072892400000009,-0.42606794999999936
-10.089991333333312,-2.232468333333342,-0.046277046666666065
-9.987862666666645,-2.3920442666666752,0.3335138566666673
-9.885733999999976,-2.5516202000000088,0.7133047600000006
-9.885733999999976,-2.5516202000000088,0.7133047600000006
-10.211268999999975,-2.548428733333342,1.6867183733333342
-10.536803999999975,-2.545237266666675,2.6601319866666677
-10.862338999999976,-2.542045800000009,3.633545600000001
-10.862338999999976,-2.542045800000009,3.633545600000001
-9.75488153333331,-1.8239537666666752,3.3367342666666677
-8.647424066666643,-1.1058617333333418,3.039922933333335
-7.539966599999976,-0.3877697000000085,2.743111600000002
-7.539966599999976,-0.3877697000000085,2.743111600000002
-7.3676243999999755,-0.48989834333334187,2.7750268000000013
-7.195282199999975,-0.5920269866666751,2.806942000000001
-7.022939999999974,-0.6941556300000086,2.838857200000001
-7.022939999999974,-0.6941556300000086,2.838857200000001
-7.811245499999974,-1.4505459200000086,2.2484259666666677
-8.599550999999975,-2.2069362100000087,1.6579947333333347
-9.387856499999975,-2.963326500000008,1.0675635000000014
-9.387856499999975,-2.963326500000008,1.0675635000000012
-9.965521499999975,-3.269712400000008,0.9494772533333343
-10.543186499999976,-3.5760983000000075,0.8313910066666675
-11.120851499999977,-3.8824842000000075,0.7133047600000006
-11.120851499999977,-3.8824842000000075,0.7133047600000006
-11.14957533333331,-3.662269366666674,0.6750065066666672
-11.178299166666642,-3.4420545333333408,0.6367082533333338
-11.207022999999976,-3.2218397000000074,0.5984100000000006
-11.207022999999976,-3.2218397000000074,0.5984100000000007
-11.73681533333331,-3.3590750000000074,0.7324538666666673
-12.266607666666642,-3.496310300000007,0.866497733333334
-12.796399999999975,-3.633545600000007,1.0005416000000007
-12.796399999999975,-3.633545600000007,1.0005416000000007
-12.170861999999977,-3.8665265666666735,1.3324596666666675
-11.545323999999978,-4.09950753333334,1.6643777333333343
-10.919785999999979,-4.332488500000008,1.996295800000001
-10.919785999999979,-4.332488500000007,1.996295800000001
-11.312342999999977,-4.080358466666674,1.5399084333333342
-11.704899999999975,-3.82822843333334,1.0835210666666675
-12.097456999999975,-3.5760984000000064,0.6271337000000008
-12.097456999999975,-3.5760984000000064,0.6271337000000008
-11.574047666666642,-2.8388572333333397,0.7771351666666675
-11.050638333333309,-2.1016160666666734,0.9271366333333342
-10.527228999999975,-1.3643749000000067,1.0771381000000009
-10.527228999999975,-1.3643749000000067,1.0771381000000009
-10.14743816666664,-0.9016044660000065,1.501610300000001
-9.767647333333308,-0.4388340320000066,1.9260825000000013
-9.387856499999975,0.0239364019999934,2.3505547000000013
-9.387856499999975,0.0239364019999934,2.3505547000000018
-9.161258666666642,-0.2824495320000066,2.088850033333335
-8.93466083333331,-0.5888354660000066,1.8271453666666684
-8.70806299999998,-0.8952214000000066,1.5654407000000017
-8.70806299999998,-0.8952214000000066,1.5654407000000017
-8.404868533333312,-1.1696921666666733,1.3452257800000016
-8.101674066666645,-1.4441629333333401,1.1250108600000015
-7.798479599999976,-1.718633700000007,0.9047959400000014
-7.798479599999976,-1.718633700000007,0.9047959400000014
-8.005928399999975,-1.8814011666666737,0.7675605766666681
-8.213377199999975,-2.0441686333333404,0.6303252133333347
-8.420825999999975,-2.206936100000007,0.4930898500000014
-8.420825999999975,-2.206936100000007,0.4930898500000014
-9.09742833333331,-2.232468266666674,0.448408566666668
-9.774030666666645,-2.258000433333341,0.4037272833333347
-10.45063299999998,-2.283532600000008,0.3590460000000013
-10.45063299999998,-2.2835326000000085,0.3590460000000013
-10.316588999999981,-2.356937566666675,0.6239422000000013
-10.18254499999998,-2.430342533333342,0.8888384000000015
-10.048500999999979,-2.5037475000000087,1.1537346000000015
-10.048500999999979,-2.5037475000000087,1.1537346000000015
-10.568718999999978,-2.2165107333333425,1.322885133333335
-11.088936999999978,-1.9292739666666765,1.4920356666666683
-11.609154999999978,-1.6420372000000096,1.661186200000002
-11.609154999999978,-1.6420372000000096,1.661186200000002
-10.696380333333309,-1.571823733333343,1.7537403000000016
-9.78360566666664,-1.5016102666666764,1.8462944000000014
-8.870830999999972,-1.4313968000000097,1.9388485000000013
-8.870830999999972,-1.4313968000000097,1.9388485000000013
-8.098482933333306,-1.3548003000000097,2.0505517333333345
-7.3261348666666395,-1.2782038000000098,2.162254966666668
-6.5537867999999735,-1.2016073000000098,2.2739582000000014
-6.5537867999999735,-1.2016073000000098,2.2739582000000014
-6.5537867999999735,-1.2016073000000098,2.2739582000000014
-6.9878335333333075,-1.5941642666666764,1.8877842333333346
-7.421880266666641,-1.9867212333333433,1.5016102666666677
-7.855926999999974,-2.37927820000001,1.115436300000001
-8.360187333333307,-2.5133220333333437,1.1952243000000011
-8.86444766666664,-2.647365866666677,1.275012300000001
-9.368707999999971,-2.78140970000001,1.354800300000001
-9.368707999999971,-2.7814097000000095,1.354800300000001
-10.102757333333306,-3.017582233333343,1.3069275000000011
-10.83680666666664,-3.253754766666676,1.259054700000001
-11.570855999999972,-3.48992730000001,1.2111819000000008
-11.570855999999972,-3.48992730000001,1.2111819000000008
-11.570855999999972,-3.48992730000001,1.2111819000000008
-12.094265666666642,-3.81546220000001,1.1888412666666677
-12.617675333333308,-4.14099710000001,1.1665006333333345
-13.141084999999974,-4.46653200000001,1.1441600000000014
-12.113415333333307,-4.134614066666676,1.5271424333333348
-11.08574566666664,-3.802696133333343,1.910124866666668
-10.058075999999973,-3.47077820000001,2.2931073000000013
-10.058075999999971,-3.47077820000001,2.2931073000000013
-10.058075999999971,-3.47077820000001,2.2931073000000013
-10.28467366666664,-3.438863033333343,2.171829533333335
-10.511271333333307,-3.406947866666677,2.0505517666666684
-10.737868999999975,-3.3750327000000104,1.929274000000002
-10.737868999999975,-3.3750327000000104,1.929274000000002
-10.894253666666643,-3.055880666666677,1.7186336333333354
-11.05063833333331,-2.736728633333344,1.5079932666666689
-11.207022999999978,-2.4175766000000105,1.2973529000000021
-10.859147333333311,-1.8335284000000105,1.5654406000000023
-10.511271666666644,-1.2494802000000107,1.8335283000000022
-10.163395999999977,-0.6654320000000106,2.101616000000002
-10.163395999999977,-0.6654320000000106,2.101616000000002
-10.163395999999977,-0.6654320000000106,2.101616000000002
-9.885733666666646,-0.6622404666666771,1.977146733333336
-9.608071333333312,-0.6590489333333438,1.8526774666666694
-9.330408999999976,-0.6558574000000105,1.7282082000000027
-9.330408999999976,-0.6558574000000105,1.7282082000000027
-8.960192666666645,-0.8377740333333438,1.4952272333333363
-8.589976333333313,-1.0196906666666772,1.2622462666666694
-8.219759999999981,-1.2016073000000105,1.0292653000000025
-8.219759999999981,-1.2016073000000107,1.0292653000000025
-8.050609466666648,-1.453737400000011,0.805858866666669
-7.881458933333314,-1.705867500000011,0.5824524333333355
-7.712308399999981,-1.9579976000000112,0.35904600000000214
-7.712308399999981,-1.9579976000000112,0.35904600000000214
-8.02507759999998,-2.2165107333333443,0.3750036066666688
-8.337846799999982,-2.4750238666666777,0.3909612133333355
-8.650615999999982,-2.7335370000000108,0.4069188200000022
-8.650615999999983,-2.7335370000000108,0.4069188200000022
-9.314451999999983,-2.3952359000000105,0.6622404133333354
-9.978287999999985,-2.0569348000000107,0.9175620066666688
-10.642123999999987,-1.7186337000000105,1.172883600000002
-10.642123999999987,-1.7186337000000105,1.172883600000002
-10.897445666666654,-1.811187733333344,1.4696950000000022
-11.152767333333317,-1.9037417666666776,1.766506400000002
-11.408088999999983,-1.996295800000011,2.063317800000002
-11.40808899999998,-1.996295800000011,2.063317800000002
-10.881487999999981,-1.8750180333333446,2.2707666000000017
-10.35488699999998,-1.753740266666678,2.4782154000000016
-9.82828599999998,-1.6324625000000115,2.6856642000000015
-9.828285999999983,-1.6324625000000115,2.6856642000000015
-9.036789133333315,-1.4856526000000114,2.545237333333335
-8.245292266666647,-1.3388427000000116,2.4048104666666688
-7.45379539999998,-1.192032800000012,2.264383600000002
-7.45379539999998,-1.192032800000012,2.264383600000002
-7.606988399999981,-1.4856526666666785,1.9324655000000022
-7.76018139999998,-1.7792725333333455,1.6005474000000024
-7.91337439999998,-2.0728924000000126,1.2686293000000022
-7.913374399999978,-2.0728924000000126,1.2686293000000024
-8.494230933333311,-2.4111935000000124,1.2335225666666692
-9.075087466666643,-2.7494946000000127,1.1984158333333361
-9.655943999999975,-3.087795700000013,1.1633091000000029
-9.655943999999975,-3.087795700000013,1.1633091000000029
-10.080415999999977,-3.122902466666679,1.3675664000000027
-10.504887999999978,-3.1580092333333454,1.5718237000000028
-10.92935999999998,-3.193116000000012,1.776081000000003
-10.92935999999998,-3.193116000000012,1.7760810000000031
-11.487876333333311,-3.2409887666666783,1.7473573000000033
-12.046392666666643,-3.288861533333345,1.7186336000000033
-12.604908999999976,-3.336734300000012,1.6899099000000035
-12.604908999999976,-3.336734300000012,1.6899099000000035
-12.349587333333309,-3.4835442000000114,1.737782700000004
-12.094265666666642,-3.630354100000011,1.7856555000000043
-11.838943999999975,-3.777164000000011,1.8335283000000047
-11.838943999999975,-3.777164000000011,1.8335283000000047
-10.916594666666642,-3.968655333333345,1.868635033333338
-9.99424533333331,-4.160146666666679,1.903741766666671
-9.07189599999998,-4.351638000000013,1.9388485000000042
-9.07189599999998,-4.351638000000013,1.9388485000000042
-10.070841666666645,-3.837803166666679,1.5654406333333375
-11.069787333333311,-3.323968333333345,1.1920327666666708
-12.068732999999979,-2.810133500000011,0.8186249000000041
-12.068732999999979,-2.810133500000011,0.8186249000000041
-11.979370666666645,-2.127148180000011,0.9845839666666708
-11.890008333333311,-1.4441628600000112,1.1505430333333373
-11.800645999999977,-0.7611775400000113,1.316502100000004
-11.800645999999977,-0.7611775400000113,1.3165021000000037
-11.315534666666643,-0.6111760933333444,1.5079933000000036
-10.830423333333309,-0.4611746466666778,1.6994845000000038
-10.345311999999977,-0.31117320000001114,1.8909757000000038
-10.345311999999977,-0.31117320000001114,1.8909757000000038
-9.914456999999977,-0.6207506666666778,1.5845897666666702
-9.483601999999978,-0.9303281333333445,1.2782038333333368
-9.05274699999998,-1.239905600000011,0.9718179000000031
-9.05274699999998,-1.239905600000011,0.9718179000000031
-8.574018999999982,-1.469695066666678,0.7196878000000031
-8.095290999999984,-1.6994845333333444,0.4675577000000031
-7.616562999999982,-1.9292740000000108,0.21542760000000305
-7.616562999999982,-1.9292740000000108,0.21542760000000305
-7.635712099999982,-1.9994874333333439,0.2345767266666697
-7.654861199999982,-2.0697008666666776,0.25372585333333636
-7.674010299999982,-2.1399143000000116,0.27287498000000304
-7.674010299999982,-2.139914300000012,0.2728749800000031
-8.39529386666665,-2.1526803333333455,0.40372732000000305
-9.116577433333317,-2.165446366666679,0.534579660000003
-9.837860999999982,-2.1782124000000125,0.665432000000003
-9.83786099999998,-2.1782124000000125,0.665432000000003
-9.777221999999982,-2.3026816666666794,1.0516059000000029
-9.716582999999982,-2.4271509333333463,1.4377798000000028
-9.655943999999982,-2.551620200000013,1.8239537000000026
-9.655943999999984,-2.551620200000013,1.8239537000000026
-10.118714333333317,-2.3345968666666796,2.219702200000003
-10.581484666666652,-2.117573533333346,2.615450700000003
-11.044254999999986,-1.9005502000000127,3.0111992000000023
-11.044254999999986,-1.9005502000000127,3.0111992000000023
-10.552760999999984,-1.5079932333333457,2.7941758000000028
-10.061266999999985,-1.115436266666679,2.577152400000003
-9.569772999999984,-0.7228793000000123,2.360129000000003
-9.569772999999984,-0.7228793000000125,2.360129000000003
-8.97295876666665,-0.6686234533333458,2.5707694000000028
-8.376144533333317,-0.6143676066666791,2.7814098000000023
-7.779330299999984,-0.5601117600000125,2.9920502000000018
-7.779330299999984,-0.5601117600000126,2.9920502000000018
-7.974013199999985,-1.0771380400000128,2.526088266666669
-8.168696099999986,-1.594164320000013,2.060126333333336
-8.363378999999988,-2.1111906000000134,1.5941644000000028
-8.363378999999988,-2.1111906000000134,1.5941644000000028
-8.363378999999988,-2.1111906000000134,1.5941644000000028
-8.73359533333332,-2.45906626666668,1.6484202333333358
-9.103811666666651,-2.8069419333333463,1.702676066666669
-9.474027999999983,-3.1548176000000123,1.756931900000002
-9.643178666666648,-3.052689000000013,1.811187700000002
-9.812329333333315,-2.950560400000013,1.865443500000002
-9.981479999999982,-2.848431800000013,1.919699300000002
-9.981479999999983,-2.848431800000013,1.919699300000002
-10.945318666666651,-2.9729011000000134,1.8431028333333355
-11.909157333333319,-3.0973704000000133,1.766506366666669
-12.872995999999986,-3.221839700000013,1.6899099000000024
-12.872995999999986,-3.221839700000013,1.6899099000000024
-12.872995999999986,-3.221839700000013,1.6899099000000024
-12.742143666666655,-3.3718411333333465,1.747357266666669
-12.611291333333321,-3.5218425666666797,1.8048046333333356
-12.48043899999999,-3.671844000000013,1.8622520000000022
-11.688941999999988,-3.7069506666666796,1.7218251333333356
-10.897444999999985,-3.742057333333346,1.5813982666666693
-10.105947999999985,-3.777164000000012,1.440971400000003
-10.105947999999985,-3.777164000000012,1.440971400000003
-10.105947999999985,-3.777164000000012,1.440971400000003
-10.182544666666653,-3.3558833333333453,1.0899041666666693
-10.25914133333332,-2.9346026666666787,0.7388369333333361
-10.335737999999987,-2.513322000000012,0.3877697000000029
-10.335737999999987,-2.5133220000000116,0.3877697000000029
-10.086799499999989,-1.9707636000000115,0.7899012666666696
-9.83786099999999,-1.4282052000000114,1.192032833333336
-9.58892249999999,-0.8856468000000114,1.5941644000000028
-9.493176666666656,-0.9143705000000114,1.5494830666666697
-9.397430833333322,-0.9430942000000114,1.5048017333333366
-9.301684999999987,-0.9718179000000114,1.4601204000000034
-9.301684999999987,-0.9718179000000114,1.4601204000000034
-9.301684999999987,-0.9718179000000114,1.4601204000000034
-9.062320999999988,-1.1282024000000115,1.2909698666666698
-8.822956999999988,-1.2845869000000116,1.1218193333333364
-8.583592999999988,-1.4409714000000118,0.9526688000000029
-8.583592999999988,-1.4409714000000118,0.9526688000000029
-8.06337533333332,-1.5303339333333448,0.9399027133333363
-7.543157666666654,-1.619696466666678,0.9271366266666695
-7.022939999999987,-1.7090590000000112,0.9143705400000027
-7.517625666666653,-1.8909756666666777,0.9462857266666692
-8.01231133333332,-2.0728923333333444,0.9782009133333359
-8.506996999999986,-2.254809000000011,1.0101161000000027
-8.506996999999986,-2.254809000000011,1.0101161000000027
-9.445303999999988,-2.254809000000011,1.2271394666666693
-10.383610999999988,-2.254809000000011,1.444162833333336
-11.321917999999988,-2.254809000000011,1.6611862000000028
-11.321917999999988,-2.254809000000011,1.6611862000000028
-11.136809666666656,-2.159063400000011,2.114382133333336
-10.951701333333324,-2.0633178000000107,2.567578066666669
-10.766592999999991,-1.9675722000000107,3.020774000000003
-10.766592999999991,-1.9675722000000107,3.020774000000003
-10.836806666666655,-1.613313446666677,2.7718354000000027
-10.907020333333321,-1.2590546933333435,2.5228968000000025
-10.977233999999987,-0.90479594000001,2.2739582000000023
-10.977233999999987,-0.90479594000001,2.2739582000000023
-10.150629999999987,-1.0930956266666765,2.242042933333336
-9.324025999999987,-1.2813953133333433,2.2101276666666694
-8.49742199999999,-1.4696950000000102,2.1782124000000027
-8.497421999999991,-1.4696950000000102,2.178212400000003
-7.980395799999992,-1.5526745666666768,1.8718265000000034
-7.463369599999992,-1.6356541333333434,1.5654406000000034
-6.946343399999992,-1.7186337000000103,1.2590547000000034
-6.946343399999992,-1.7186337000000103,1.2590547000000036
-7.354857933333324,-2.2388514333333434,0.7994757966666702
-7.763372466666659,-2.7590691666666767,0.3398968933333369
-8.171886999999993,-3.27928690000001,-0.11968200999999645
-8.171886999999993,-3.279286900000011,-0.11968200999999645
-8.570827333333327,-3.1994989333333437,0.1643632933333369
-8.96976766666666,-3.119710966666677,0.44840859666667027
-9.368707999999993,-3.03992300000001,0.7324539000000035
-9.368707999999993,-3.03992300000001,0.7324539000000035
-9.770839333333328,-2.9633265000000097,0.9239450666666702
-10.172970666666663,-2.8867300000000102,1.1154362333333367
-10.575101999999996,-2.8101335000000103,1.3069274000000035
-10.575101999999996,-2.810133500000011,1.3069274000000035
-11.590005333333329,-3.0175823000000115,1.23671396666667
-12.60490866666666,-3.225031100000012,1.1665005333333367
-13.61981199999999,-3.4324799000000126,1.0962871000000034
-13.61981199999999,-3.4324799000000126,1.0962871000000036
-12.92725199999999,-3.5729067666666787,1.4792695666666702
-12.23469199999999,-3.7133336333333453,1.862252033333337
-11.54213199999999,-3.853760500000012,2.245234500000004
-11.54213199999999,-3.853760500000012,2.245234500000004
-11.178298999999988,-3.614396500000012,2.0473602333333374
-10.814465999999989,-3.3750325000000116,1.8494859666666705
-10.45063299999999,-3.1356685000000115,1.6516117000000037
-10.450632999999991,-3.1356685000000115,1.6516117000000037
-10.450632999999991,-3.1356685000000115,1.6516117000000037
-10.41552599999999,-2.596301633333345,1.6196965000000036
-10.380418999999987,-2.056934766666678,1.5877813000000038
-10.345311999999987,-1.5175679000000113,1.5558661000000038
-10.287864999999988,-1.1345854566666782,1.7633148666666705
-10.230417999999988,-0.751603013333345,1.9707636333333374
-10.172970999999988,-0.36862057000001186,2.178212400000004
-10.172970999999986,-0.36862057000001186,2.1782124000000045
-9.917648999999987,-0.6781980133333452,1.8367198000000045
-9.662326999999987,-0.9877754566666784,1.4952272000000046
-9.407004999999987,-1.2973529000000117,1.1537346000000046
-9.40700499999999,-1.2973529000000117,1.1537346000000046
-9.40700499999999,-1.2973529000000117,1.1537346000000046
-8.960192333333323,-1.3707579000000116,1.0803296200000048
-8.513379666666657,-1.4441629000000116,1.0069246400000047
-8.06656699999999,-1.5175679000000113,0.9335196600000047
-7.744223466666656,-1.4441629000000116,0.8792638166666714
-7.421879933333322,-1.3707579000000116,0.8250079733333381
-7.099536399999988,-1.2973529000000117,0.7707521300000048
-7.099536399999988,-1.2973529000000117,0.7707521300000048
-7.099536399999988,-1.2973529000000117,0.7707521300000048
-7.610179599999988,-1.4026730666666785,0.7516030066666713
-8.120822799999987,-1.5079932333333452,0.7324538833333379
-8.631465999999987,-1.6133134000000118,0.7133047600000045
-8.631465999999985,-1.6133134000000118,0.7133047600000045
-9.394239333333319,-1.8335283333333452,0.6686234733333377
-10.15701266666665,-2.0537432666666784,0.6239421866666711
-10.919785999999982,-2.273958200000012,0.5792609000000045
-10.412334333333314,-2.452683300000012,1.2239479333333378
-9.904882666666646,-2.6314084000000117,1.868634966666671
-9.397430999999978,-2.810133500000012,2.5133220000000045
-9.397430999999978,-2.810133500000012,2.513322000000004
-9.397430999999978,-2.810133500000012,2.513322000000004
-9.825094666666645,-2.647366000000012,2.254808900000004
-10.252758333333313,-2.484598500000012,1.996295800000004
-10.68042199999998,-2.3218310000000124,1.737782700000004
-10.68042199999998,-2.3218310000000124,1.737782700000004
-10.000628333333315,-1.8973587666666791,1.8782095666666703
-9.320834666666649,-1.4728865333333456,2.0186364333333366
-8.641040999999982,-1.0484143000000123,2.1590633000000032
-8.641040999999982,-1.0484143000000123,2.1590633000000032
-8.481464833333314,-1.1154362333333456,2.1367227000000035
-8.321888666666647,-1.1824581666666791,2.114382100000004
-8.16231249999998,-1.2494801000000126,2.092041500000004
-8.16231249999998,-1.2494801000000126,2.092041500000004
-8.417634333333313,-1.5590575333333456,1.9037418000000041
-8.672956166666646,-1.868634966666679,1.7154421000000042
-8.92827799999998,-2.1782124000000125,1.5271424000000042
-8.92827799999998,-2.1782124000000125,1.5271424000000042
-8.982533666666647,-2.385661266666679,1.4505459000000043
-9.036789333333315,-2.593110133333346,1.3739494000000043
-9.091044999999982,-2.8005590000000127,1.2973529000000044
-9.091044999999982,-2.8005590000000127,1.2973529000000044
-10.157012666666647,-3.1803498666666794,1.1537345000000043
-11.222980333333313,-3.560140733333346,1.0101161000000045
-12.288947999999978,-3.9399316000000124,0.8664977000000045
-12.288947999999978,-3.9399316000000124,0.8664977000000045
-12.419800333333313,-4.17291256666668,1.0611804333333377
-12.550652666666648,-4.405893533333346,1.255863166666671
-12.681504999999982,-4.6388745000000124,1.4505459000000043
-12.681504999999982,-4.638874500000012,1.4505459000000043
-12.333629333333315,-4.214402333333346,1.5431000000000044
-11.985753666666648,-3.7899301666666787,1.6356541000000044
-11.637877999999981,-3.3654580000000123,1.7282082000000045
-11.637877999999981,-3.3654580000000123,1.7282082000000045
-11.39532266666665,-3.0207738000000117,1.3292681666666712
-11.152767333333315,-2.6760896000000116,0.9303281333333379
-10.910211999999982,-2.3314054000000115,0.5313881000000045
-10.910211999999982,-2.3314054000000115,0.5313881000000045
-10.396377333333314,-1.8048046000000113,0.9750094000000044
-9.882542666666646,-1.2782038000000113,1.4186307000000042
-9.368707999999978,-0.7516030000000113,1.8622520000000042
-9.368707999999978,-0.7516030000000112,1.8622520000000042
-9.212323333333314,-0.8154334000000111,1.8079961666666708
-9.055938666666648,-0.879263800000011,1.7537403333333377
-8.899553999999982,-0.943094200000011,1.6994845000000047
-8.899553999999982,-0.943094200000011,1.6994845000000047
-8.784659333333316,-1.1313938666666774,1.4920357000000048
-8.66976466666665,-1.319693533333344,1.2845869000000047
-8.554869999999982,-1.5079932000000105,1.0771381000000049
-8.554869999999982,-1.5079932000000105,1.077138100000005
-8.232526333333317,-1.5335253666666773,1.0133076666666716
-7.91018266666665,-1.559057533333344,0.9494772333333383
-7.587838999999984,-1.584589700000011,0.885646800000005
-7.587838999999984,-1.584589700000011,0.885646800000005
-7.8686929999999835,-1.664377700000011,0.9462857000000051
-8.149546999999986,-1.7441657000000113,1.0069246000000052
-8.430400999999986,-1.8239537000000112,1.0675635000000054
-8.430400999999986,-1.8239537000000112,1.0675635000000054
-9.45807033333332,-1.9388484666666779,1.1569260666666719
-10.485739666666651,-2.053743233333345,1.2462886333333385
-11.513408999999987,-2.1686380000000116,1.3356512000000051
-11.513408999999987,-2.168638000000012,1.3356512000000051
-11.24851266666665,-2.2260853333333457,1.8399114000000052
-10.983616333333316,-2.283532666666679,2.3441716000000055
-10.718719999999982,-2.3409800000000125,2.8484318000000055
-10.718719999999982,-2.3409800000000125,2.8484318000000055
-10.405951333333315,-1.8845926333333456,2.5260882666666724
-10.09318266666665,-1.428205266666679,2.203744733333339
-9.780413999999984,-0.971817900000012,1.881401200000005
-9.780413999999984,-0.971817900000012,1.881401200000005
-9.301685999999982,-1.1409684666666788,1.7473573333333385
-8.822957999999984,-1.3101190333333455,1.613313466666672
-8.344229999999984,-1.479269600000012,1.4792696000000054
-8.344229999999985,-1.479269600000012,1.4792696000000054
-8.178270666666652,-1.6739523333333455,1.3867155000000053
-8.012311333333319,-1.8686350666666787,1.2941614000000052
-7.846351999999985,-2.063317800000012,1.2016073000000052
-7.846351999999985,-2.063317800000012,1.2016073000000052
-8.254866666666652,-2.4558747666666787,1.026073700000005
-8.663381333333318,-2.8484317333333458,0.8505401000000051
-9.071895999999985,-3.240988700000013,0.6750065000000051
-9.071895999999983,-3.240988700000013,0.6750065000000051
-9.292110999999982,-3.1292854666666794,0.9143705333333384
-9.51232599999998,-3.017582233333346,1.1537345666666716
-9.732540999999978,-2.9058790000000125,1.3930986000000047
-9.732540999999978,-2.9058790000000125,1.3930986000000047
-10.208077333333312,-2.7909843333333453,1.4505459666666713
-10.683613666666645,-2.6760896666666785,1.507993333333338
-11.159149999999977,-2.5611950000000117,1.5654407000000046
-11.159149999999977,-2.5611950000000117,1.5654407000000046
-11.733623666666645,-2.9186452000000114,1.626079533333338
-12.308097333333313,-3.2760954000000115,1.6867183666666712
-12.88257099999998,-3.6335456000000117,1.7473572000000044
-12.88257099999998,-3.6335456000000117,1.7473572000000044
-12.218734999999981,-3.7739725000000117,1.964380633333338
-11.554898999999983,-3.9143994000000117,2.1814040666666714
-10.891062999999983,-4.054826300000012,2.3984275000000053
-10.891062999999983,-4.054826300000012,2.3984275000000053
-10.839998333333318,-3.671843866666679,1.9165079333333381
-10.78893366666665,-3.2888614333333455,1.4345883666666712
-10.737868999999984,-2.9058790000000125,0.9526688000000045
-10.737868999999984,-2.9058790000000125,0.9526688000000045
-10.645314999999984,-2.5037475000000122,1.0133076666666712
-10.552760999999984,-2.1016160000000124,1.073946533333338
-10.460206999999984,-1.6994845000000123,1.1345854000000046
-10.460206999999984,-1.6994845000000123,1.1345854000000049
-10.460206999999984,-1.6994845000000123,1.1345854000000049
-10.08999066666665,-1.3707579200000122,1.3899070000000047
-9.719774333333316,-1.042031340000012,1.645228600000005
-9.349557999999982,-0.7133047600000121,1.9005502000000052
-9.241046333333315,-0.9207535733333453,1.654803166666672
-9.132534666666649,-1.1282023866666788,1.4090561333333387
-9.02402299999998,-1.3356512000000123,1.1633091000000053
-9.02402299999998,-1.3356512000000123,1.1633091000000053
-8.816574333333314,-1.3739494333333455,1.0739465333333384
-8.609125666666648,-1.4122476666666788,0.9845839666666715
-8.40167699999998,-1.450545900000012,0.8952214000000049
-8.40167699999998,-1.450545900000012,0.8952214000000049
-8.40167699999998,-1.450545900000012,0.8952214000000049
-8.325080333333313,-1.4377798333333454,0.8058588333333382
-8.248483666666646,-1.4250137666666787,0.7164962666666715
-8.171886999999979,-1.4122477000000122,0.6271337000000048
-8.80380799999998,-1.6452286666666789,0.5345796166666714
-9.43572899999998,-1.8782096333333458,0.4420255333333381
-10.067649999999981,-2.1111906000000125,0.34947145000000485
-10.067649999999981,-2.1111906000000125,0.34947145000000485
-10.067649999999981,-2.1111906000000125,0.34947145000000485
-10.297439666666648,-2.069700833333345,0.6016015666666715
-10.527229333333315,-2.028211066666678,0.8537316833333382
-10.75701899999998,-1.986721300000011,1.105861800000005
-10.75701899999998,-1.986721300000011,1.1058618000000047
-10.457015999999982,-2.098424533333344,1.5590576333333381
-10.157012999999983,-2.2101277666666777,2.0122534666666714
-9.857009999999983,-2.321831000000011,2.465449300000005
-9.758072999999982,-2.2388514666666777,2.2292768333333384
-9.65913599999998,-2.1558719333333447,1.9931043666666717
-9.560198999999978,-2.0728924000000117,1.756931900000005
-9.560198999999978,-2.0728924000000117,1.756931900000005
-9.001682899999976,-1.6771438666666783,2.139914266666672
-8.443166799999975,-1.281395333333345,2.522896633333339
-7.884650699999974,-0.8856468000000116,2.905879000000006
-7.884650699999973,-0.8856468000000116,2.905879000000006
-7.884650699999973,-0.8856468000000116,2.905879000000006
-7.849543899999972,-1.134585366666678,2.573960933333339
-7.814437099999971,-1.383523933333345,2.2420428666666723
-7.77933029999997,-1.6324625000000115,1.9101248000000055
-7.77933029999997,-1.6324625000000115,1.9101248000000055
-8.341037866666637,-1.9484230000000116,1.712250566666672
-8.902745433333303,-2.264383500000011,1.5143763333333389
-9.46445299999997,-2.5803440000000117,1.3165021000000054
-9.448495333333305,-2.6601320000000115,1.3548003333333387
-9.43253766666664,-2.7399200000000117,1.393098566666672
-9.416579999999975,-2.8197080000000114,1.4313968000000052
-9.416579999999977,-2.8197080000000114,1.4313968000000052
-9.416579999999977,-2.8197080000000114,1.4313968000000052
-10.243183666666642,-3.065455033333345,1.4665035000000053
-11.06978733333331,-3.3112020666666786,1.5016102000000053
-11.896390999999975,-3.5569491000000117,1.5367169000000054
-11.896390999999975,-3.5569491000000117,1.5367169000000054
-12.100648333333309,-3.7388658333333447,1.479269566666672
-12.304905666666642,-3.920782566666677,1.4218222333333383
-12.509162999999974,-4.102699300000009,1.364374900000005
-11.538940666666642,-3.86333520000001,1.5718237000000048
-10.568718333333308,-3.6239711000000105,1.7792725000000047
-9.598495999999974,-3.384607000000011,1.9867213000000046
-9.598495999999972,-3.384607000000011,1.9867213000000046
-9.598495999999972,-3.384607000000011,1.9867213000000046
-10.370844333333306,-3.3399258000000116,1.661186233333338
-11.143192666666641,-3.295244600000012,1.3356511666666713
-11.91554099999997,-3.2505634000000128,1.0101161000000047
-11.91554099999997,-3.2505634000000128,1.0101161000000047
-11.653835999999972,-2.596301733333346,1.1409684333333379
-11.392130999999972,-1.9420400666666795,1.2718207666666712
-11.130425999999973,-1.2877784000000128,1.4026731000000046
-11.130425999999973,-1.2877784000000125,1.4026731000000048
-10.935743333333306,-0.9079874966666792,1.6356540666666717
-10.741060666666641,-0.5281965933333459,1.8686350333333384
-10.546377999999976,-0.1484056900000125,2.1016160000000053
-10.546377999999978,-0.1484056900000125,2.1016160000000053
-10.02296883333331,-0.3750036266666792,1.7728894333333385
-9.499559666666643,-0.6016015633333459,1.444162866666672
-8.976150499999976,-0.8281995000000125,1.1154363000000052
-8.976150499999974,-0.8281995000000125,1.1154363000000052
-8.261249999999974,-0.9782009333333458,1.0579889333333385
-7.546349499999972,-1.1282023666666792,1.000541566666672
-6.831448999999971,-1.2782038000000124,0.9430942000000053
-6.831448999999971,-1.2782038000000124,0.9430942000000053
-6.770810099999971,-1.5399084666666791,0.825007966666672
-6.710171199999972,-1.8016131333333458,0.7069217333333387
-6.649532299999972,-2.0633178000000125,0.5888355000000054
-6.649532299999972,-2.0633178000000125,0.5888355000000054
-7.766564199999973,-2.1909786333333456,0.6462828466666721
-8.883596099999973,-2.318639466666679,0.7037301933333389
-10.000627999999974,-2.4463003000000128,0.7611775400000056
-10.000627999999976,-2.4463003000000128,0.7611775400000056
-10.635740666666642,-2.3824698666666797,1.3069275266666722
-11.270853333333308,-2.3186394333333467,1.852677513333339
-11.905965999999976,-2.2548090000000136,2.3984275000000057
-11.905965999999976,-2.254809000000014,2.3984275000000057
-11.931497999999976,-1.795230100000014,2.720771000000006
-11.957029999999977,-1.335651200000014,3.0431145000000055
-11.982561999999978,-0.8760723000000139,3.3654580000000056
-11.982561999999978,-0.8760723000000139,3.3654580000000056
-10.932551999999978,-0.7292623666666805,2.755877633333339
-9.882541999999978,-0.5824524333333473,2.146297266666672
-8.832531999999977,-0.4356425000000139,1.5367169000000054
-8.832531999999977,-0.4356425000000139,1.5367169000000054
-8.513379999999977,-0.8792638000000138,1.389906966666672
-8.194227999999976,-1.3228851000000137,1.2430970333333384
-7.875075999999976,-1.7665064000000135,1.096287100000005
-7.875075999999976,-1.7665064000000135,1.0962871000000047
-8.31869733333331,-2.3186394000000132,0.7962842266666715
-8.762318666666642,-2.8707724000000128,0.49628135333333817
-9.205939999999975,-3.422905400000013,0.1962784800000048
-9.205939999999975,-3.422905400000013,0.1962784800000048
-9.515517333333309,-3.3303513333333465,0.39415274000000483
-9.825094666666644,-3.23779726666668,0.5920270000000049
-10.134671999999979,-3.1452432000000132,0.7899012600000047
-10.134671999999979,-3.1452432000000132,0.7899012600000047
-9.920839999999977,-2.95694346666668,1.1920327733333382
-9.707007999999975,-2.768643733333347,1.5941642866666716
-9.493175999999975,-2.580344000000014,1.9962958000000048
-9.493175999999975,-2.580344000000014,1.9962958000000046
-10.533611999999975,-2.80375046666668,1.8877841333333378
-11.574047999999975,-3.027156933333347,1.779272466666671
-12.614483999999974,-3.2505634000000136,1.6707608000000043
-12.614483999999974,-3.2505634000000136,1.6707608000000043
-12.279374333333308,-3.7324829333333476,1.6101219333333374
-11.944264666666642,-4.214402466666681,1.5494830666666708
-11.609154999999978,-4.696322000000015,1.4888442000000042
-11.609154999999978,-4.6963220000000145,1.4888442000000042
-11.114468999999977,-4.3037650000000145,1.284586900000004
-10.619782999999975,-3.9112080000000145,1.080329600000004
-10.125096999999974,-3.5186510000000144,0.8760723000000038
-10.125096999999972,-3.5186510000000144,0.8760723000000038
-10.702762333333306,-3.1069448666666806,0.5920270006666705
-11.28042766666664,-2.695238733333347,0.3079817013333371
-11.858092999999974,-2.2835326000000133,0.023936402000003725
-11.858092999999974,-2.283532600000013,0.023936402000003725
-11.484684999999976,-1.8622519333333463,0.4867068346666705
-11.111276999999978,-1.4409712666666794,0.9494772673333371
-10.73786899999998,-1.0196906000000128,1.4122477000000035
-10.73786899999998,-1.0196906000000128,1.4122477000000035
-10.73786899999998,-1.0196906000000128,1.4122477000000035
-10.421908833333314,-1.1409684000000129,1.3484172666666698
-10.105948666666645,-1.2622462000000132,1.2845868333333363
-9.78998849999998,-1.3835240000000135,1.2207564000000026
-9.42615499999998,-1.4313968000000135,0.9622432900000027
-9.06232149999998,-1.4792696000000134,0.703730180000003
-8.698487999999982,-1.5271424000000131,0.4452170700000031
-8.698487999999982,-1.5271424000000131,0.4452170700000031
-8.152738099999983,-1.3420342333333464,0.6271337266666698
-7.606988199999982,-1.1569260666666799,0.8090503833333366
-7.061238299999982,-0.9718179000000134,0.9909670400000032
-7.061238299999982,-0.9718179000000134,0.9909670400000032
-7.061238299999982,-0.9718179000000134,0.9909670400000032
-7.019748533333316,-1.1792667333333466,1.0579889600000032
-6.978258766666649,-1.3867155666666797,1.1250108800000034
-6.936768999999981,-1.5941644000000135,1.1920328000000036
-7.699542333333315,-1.8654436000000132,1.3356512000000038
-8.46231566666665,-2.136722800000013,1.4792696000000038
-9.225088999999983,-2.4080020000000126,1.6228880000000039
-9.225088999999981,-2.4080020000000126,1.6228880000000039
-9.872967666666648,-2.3314054666666792,2.0186365000000035
-10.520846333333314,-2.254808933333346,2.4143850000000042
-11.16872499999998,-2.1782124000000125,2.810133500000004
-11.16872499999998,-2.1782124000000125,2.810133500000004
-11.16872499999998,-2.1782124000000125,2.810133500000004
-11.605962999999981,-1.951614500000013,2.9473689000000043
-12.04320099999998,-1.7250166000000131,3.0846043000000045
-12.480438999999977,-1.4984187000000133,3.221839700000005
-11.752772666666644,-1.2430971000000133,2.561195000000005
-11.025106333333312,-0.9877755000000134,1.900550300000005
-10.297439999999979,-0.7324539000000133,1.2399056000000048
-10.297439999999979,-0.7324539000000133,1.2399056000000048
-9.73573233333331,-0.8026673333333466,1.3643748666666715
-9.174024666666641,-0.8728807666666798,1.4888441333333382
-8.612316999999974,-0.943094200000013,1.6133134000000047
-8.612316999999974,-0.943094200000013,1.6133134000000047
-8.612316999999974,-0.943094200000013,1.6133134000000047
-8.481464666666641,-1.4090561333333464,1.1888412333333382
-8.35061233333331,-1.8750180666666798,0.7643690666666716
-8.219759999999978,-2.340980000000013,0.33989690000000494
-8.219759999999978,-2.340980000000013,0.33989690000000494
-8.280398999999976,-2.6697065333333465,0.1324480866666716
-8.341037999999976,-2.9984330666666796,-0.07500072666666173
-8.401676999999976,-3.3271596000000128,-0.28244953999999506
-8.356995499999975,-3.2665208000000128,-0.13883112999999503
-8.312313999999974,-3.2058820000000128,0.004787280000004983
-8.267632499999975,-3.1452432000000123,0.148405690000005
-8.267632499999975,-3.1452432000000123,0.148405690000005
-8.267632499999975,-3.1452432000000123,0.148405690000005
-9.244237999999974,-3.256946333333346,0.4037273066666716
-10.220843499999974,-3.3686494666666795,0.6590489233333383
-11.197448999999976,-3.4803526000000127,0.914370540000005
-11.197448999999976,-3.4803526000000127,0.914370540000005
-12.371927999999976,-4.05801786666668,1.0867126266666716
-13.546406999999975,-4.635683133333347,1.259054713333338
-14.720885999999977,-5.213348400000014,1.4313968000000046
-13.201722666666642,-4.622917100000014,1.664377733333338
-11.682559333333309,-4.032485800000014,1.8973586666666715
-10.163395999999976,-3.442054500000014,2.130339600000005
-10.163395999999976,-3.442054500000014,2.130339600000005
-10.163395999999976,-3.442054500000014,2.130339600000005
-10.511271666666643,-2.816516566666681,2.1175735666666715
-10.85914733333331,-2.190978633333348,2.104807533333338
-11.207022999999976,-1.5654407000000148,2.0920415000000046
-11.207022999999976,-1.5654407000000148,2.092041500000004
-11.226171999999975,-1.4377798666666814,2.0282110666666706
-11.245320999999974,-1.3101190333333481,1.964380633333337
-11.264469999999973,-1.182458200000015,1.9005502000000032
-10.98680766666664,-1.006924600000015,2.063317733333337
-10.709145333333305,-0.8313910000000151,2.2260852666666704
-10.431482999999973,-0.6558574000000151,2.388852800000004
-10.431482999999972,-0.6558574000000151,2.388852800000004
-10.431482999999972,-0.6558574000000151,2.388852800000004
-9.968712666666638,-0.7739436333333486,1.8016131000000037
-9.505942333333303,-0.8920298666666819,1.2143734000000037
-9.04317199999997,-1.0101161000000152,0.6271337000000036
-9.04317199999997,-1.0101161000000152,0.6271337000000036
-8.61869999999997,-1.1282023666666818,0.6718149800000036
-8.194227999999972,-1.2462886333333485,0.7164962600000037
-7.769755999999973,-1.3643749000000154,0.7611775400000038
-7.769755999999973,-1.3643749000000156,0.7611775400000038
-7.664435799999972,-1.3962900666666822,0.7675605800000037
-7.559115599999973,-1.4282052333333486,0.7739436200000037
-7.453795399999972,-1.4601204000000152,0.7803266600000036
-7.453795399999972,-1.4601204000000152,0.7803266600000036
-7.878267599999972,-1.6133133666666817,0.5824524200000036
-8.302739799999971,-1.7665063333333484,0.38457818000000366
-8.72721199999997,-1.9196993000000153,0.1867039400000037
-8.727211999999968,-1.9196993000000155,0.1867039400000037
-9.1772163333333,-2.1941700666666826,0.314364743333337
-9.627220666666632,-2.4686408333333496,0.44202554666667027
-10.077224999999965,-2.7431116000000166,0.5696863500000036
-10.077224999999965,-2.7431116000000166,0.5696863500000036
-10.255949999999965,-2.8356657333333497,1.172883633333337
-10.434674999999965,-2.928219866666683,1.7760809166666707
-10.613399999999965,-3.0207740000000167,2.379278200000004
-10.613399999999965,-3.020774000000017,2.379278200000004
-10.508079999999966,-2.58672723333335,2.1750209333333377
-10.402759999999967,-2.1526804666666837,1.9707636666666708
-10.297439999999968,-1.7186337000000174,1.7665064000000037
-10.297439999999968,-1.7186337000000174,1.7665064000000037
-9.978287999999969,-1.4122477333333505,2.0792753333333374
-9.659135999999968,-1.105861766666684,2.392044266666671
-9.339983999999967,-0.7994758000000172,2.704813200000004
-9.339983999999967,-0.7994758000000172,2.704813200000004
-9.266578999999966,-0.9494772333333507,2.5899184666666706
-9.193173999999965,-1.0994786666666838,2.4750237333333374
-9.119768999999964,-1.249480100000017,2.360129000000004
-9.119768999999964,-1.249480100000017,2.360129000000004
-9.100619999999966,-1.6356540666666837,2.015444866666671
-9.081470999999967,-2.0218280333333505,1.6707607333333374
-9.062321999999968,-2.408002000000017,1.3260766000000042
-9.062321999999968,-2.4080020000000175,1.326076600000004
-9.1453013333333,-2.9888586666666845,0.8154333866666704
-9.228280666666633,-3.569715333333351,0.3047901733333371
-9.311259999999963,-4.150572000000018,-0.20585303999999635
-9.311259999999963,-4.150572000000018,-0.20585303999999635
-10.010202999999963,-4.536746000000019,-0.37181208333332966
-10.709145999999961,-4.922920000000018,-0.537771126666663
-11.408088999999961,-5.309094000000017,-0.7037301699999964
-11.408088999999961,-5.309094000000017,-0.7037301699999964
-11.42723799999996,-5.200582233333351,-0.34627992333332963
-11.446386999999959,-5.0920704666666845,0.011170323333337043
-11.465535999999958,-4.983558700000018,0.36862057000000376
-11.465535999999958,-4.983558700000018,0.36862057000000376
-11.720857666666625,-4.696321800000018,0.3845781800000037
-11.976179333333292,-4.4090849000000185,0.4005357900000037
-12.231500999999959,-4.121848000000019,0.41649340000000373
-12.231500999999959,-4.121848000000019,0.41649340000000373
-12.340012666666626,-3.183541133333352,0.42925948000000375
-12.448524333333294,-2.245234266666685,0.44202556000000376
-12.557035999999961,-1.3069274000000182,0.45479164000000377
-12.557035999999963,-1.3069274000000182,0.45479164000000377
-12.183627999999965,-0.8664976530000184,0.9399026933333371
-11.810219999999967,-0.42606790600001837,1.4250137466666706
-11.43681199999997,0.014361840999981576,1.910124800000004
-11.43681199999997,0.014361840999981576,1.910124800000004
-11.076170333333303,-0.2984071293333518,2.031402600000004
-10.715528666666637,-0.6111760996666851,2.1526804000000044
-10.354886999999971,-0.9239450700000185,2.2739582000000045
-10.354886999999971,-0.9239450700000184,2.273958200000005
-10.007011333333308,-1.1473515133333514,1.8909757333333381
-9.659135666666641,-1.3707579566666848,1.5079932666666716
-9.311259999999974,-1.5941644000000181,1.1250108000000048
-9.311259999999972,-1.5941644000000181,1.1250108000000048
-8.784659233333306,-1.517567900000018,0.9462857000000048
-8.258058466666641,-1.4409714000000176,0.7675606000000048
-7.731457699999975,-1.3643749000000174,0.5888355000000048
-7.731457699999975,-1.3643749000000174,0.5888355000000048
-7.731457699999975,-1.3643749000000174,0.5888355000000048
-7.195282299999975,-1.5750152000000177,0.8345825333333382
-6.659106899999975,-1.7856555000000178,1.0803295666666717
-6.122931499999975,-1.9962958000000182,1.326076600000005
-6.751660999999975,-1.8814011000000181,1.5654406333333384
-7.380390499999975,-1.766506400000018,1.8048046666666717
-8.009119999999974,-1.651611700000018,2.044168700000005
-8.009119999999976,-1.651611700000018,2.044168700000005
-8.162312833333308,-1.7282082000000178,2.018636533333338
-8.315505666666642,-1.8048047000000178,1.993104366666671
-8.468698499999975,-1.8814012000000178,1.9675722000000044
-8.468698499999974,-1.8814012000000178,1.9675722000000044
-8.468698499999974,-1.8814012000000178,1.9675722000000044
-10.086799333333305,-1.9101248666666846,2.123956666666671
-11.704900166666638,-1.9388485333333512,2.2803411333333377
-13.32300099999997,-1.967572200000018,2.436725600000004
-13.16661649999997,-1.9452315333333514,2.1973616333333377
-13.010231999999972,-1.9228908666666849,1.9579976666666712
-12.853847499999972,-1.9005502000000183,1.7186337000000045
-12.853847499999972,-1.9005502000000185,1.7186337000000045
-11.75915599999997,-1.862251966666685,1.760123433333338
-10.664464499999971,-1.8239537333333515,1.8016131666666713
-9.56977299999997,-1.7856555000000178,1.8431029000000045
-9.56977299999997,-1.7856555000000178,1.8431029000000045
-9.56977299999997,-1.7856555000000178,1.8431029000000045
-9.515516999999969,-1.7409742333333513,1.5813982333333378
-9.46126099999997,-1.6962929666666848,1.3196935666666711
-9.40700499999997,-1.6516117000000181,1.0579889000000045
-9.40700499999997,-1.6516117000000181,1.0579889000000045
-9.33040899999997,-2.2133192333333516,1.1824582000000046
-9.25381299999997,-2.775026766666685,1.3069275000000047
-9.17721699999997,-3.336734300000018,1.4313968000000046
-9.646370333333303,-3.793121666666685,0.9782009333333379
-10.115523666666638,-4.249509033333353,0.5250050666666713
-10.58467699999997,-4.705896400000019,0.07180920000000464
-10.58467699999997,-4.705896400000019,0.07180920000000464
-10.58467699999997,-4.705896400000019,0.07180920000000464
-11.031489666666637,-5.187815933333352,0.052660080333337966
-11.478302333333303,-5.669735466666684,0.033510960666671294
-11.92511499999997,-6.151655000000017,0.014361841000004627
-11.92511499999997,-6.151655000000017,0.014361841000004627
-11.382556666666638,-5.213348100000017,0.6079845606666713
-10.839998333333305,-4.275041200000017,1.2016072803333382
-10.297439999999973,-3.336734300000018,1.7952300000000045
-10.974042333333307,-3.509076366666685,1.4856525666666711
-11.650644666666638,-3.6814184333333517,1.176075133333338
-12.327246999999971,-3.853760500000018,0.8664977000000045
-12.327246999999971,-3.853760500000018,0.8664977000000045
-12.327246999999971,-3.853760500000018,0.8664977000000045
-12.560227999999972,-3.1739667333333514,0.6558573766666712
-12.79320899999997,-2.4941729666666848,0.4452170533333379
-13.026189999999971,-1.8143792000000178,0.2345767300000046
-13.026189999999971,-1.8143792000000178,0.2345767300000046
-12.770867999999972,-1.3069275000000176,0.6430912866666713
-12.515545999999972,-0.7994758000000175,1.051605843333338
-12.260223999999972,-0.29202410000001744,1.4601204000000048
-11.708091333333305,-0.46755770000001745,1.3803324000000048
-11.155958666666637,-0.6430913000000175,1.3005444000000048
-10.60382599999997,-0.8186249000000175,1.2207564000000046
-10.60382599999997,-0.8186249000000175,1.2207564000000048
-10.60382599999997,-0.8186249000000175,1.2207564000000048
-9.924032333333303,-0.9111789666666842,1.013307600000005
-9.244238666666638,-1.003733033333351,0.8058588000000051
-8.56444499999997,-1.0962871000000176,0.5984100000000052
-8.56444499999997,-1.0962871000000176,0.5984100000000052
-8.124014999999972,-1.348417233333351,0.5888354500000053
-7.683584999999972,-1.6005473666666845,0.5792609000000053
-7.243154999999973,-1.8526775000000182,0.5696863500000053
-7.243154999999973,-1.8526775000000182,0.5696863500000053
-7.134643233333306,-2.0505517666666844,0.8856468666666718
-7.026131466666638,-2.2484260333333506,1.2016073833333383
-6.917619699999971,-2.4463003000000167,1.5175679000000049
-7.214431133333304,-2.245234500000017,1.7856556000000048
-7.511242566666637,-2.044168700000017,2.0537433000000047
-7.80805399999997,-1.843102900000017,2.321831000000005
-7.80805399999997,-1.843102900000017,2.321831000000005
-7.80805399999997,-1.843102900000017,2.321831000000005
-8.455932666666635,-1.6292710333333504,2.4654493333333387
-9.103811333333303,-1.415439166666684,2.609067666666672
-9.751689999999968,-1.2016073000000171,2.752686000000006
-9.751689999999966,-1.2016073000000171,2.752686000000006
-10.603825999999966,-1.3069275000000171,2.475023766666672
-11.455961999999966,-1.4122477000000169,2.1973615333333387
-12.308097999999967,-1.5175679000000166,1.9196993000000049
-11.819794999999969,-1.5686322000000168,1.9133162666666717
-11.331491999999969,-1.619696500000017,1.9069332333333382
-10.843188999999969,-1.6707608000000171,1.900550200000005
-10.843188999999969,-1.6707608000000171,1.900550200000005
-10.843188999999969,-1.6707608000000171,1.900550200000005
-10.591059333333304,-1.7122505333333506,1.5654406000000047
-10.338929666666637,-1.753740266666684,1.2303310000000045
-10.08679999999997,-1.7952300000000172,0.8952214000000045
-10.086799999999972,-1.7952300000000172,0.8952214000000045
-10.093182666666639,-2.002678866666684,1.064371966666671
-10.099565333333306,-2.210127733333351,1.2335225333333377
-10.105947999999973,-2.4175766000000176,1.4026731000000046
-10.105947999999975,-2.4175766000000176,1.4026731000000048
-9.90488233333331,-2.586727166666684,1.4633119666666718
-9.703816666666645,-2.755877733333351,1.5239508333333387
-9.50275099999998,-2.9250283000000175,1.5845897000000058
-9.50275099999998,-2.9250283000000175,1.5845897000000058
-10.17616199999998,-3.1133279666666844,1.3228850666666723
-10.849572999999978,-3.3016276333333514,1.061180433333339
-11.52298399999998,-3.489927300000018,0.7994758000000058
-11.52298399999998,-3.489927300000018,0.7994758000000058
-11.896391666666647,-3.831419966666685,0.9303281333333392
-12.269799333333312,-4.172912633333351,1.0611804666666724
-12.643206999999977,-4.514405300000019,1.1920328000000058
-12.643206999999975,-4.514405300000019,1.1920328000000058
-12.110222999999976,-4.750577866666686,1.402673100000006
-11.577238999999977,-4.986750433333353,1.6133134000000056
-11.044254999999978,-5.22292300000002,1.8239537000000052
-11.044254999999978,-5.22292300000002,1.8239537000000052
-11.478301833333312,-4.1122739000000195,1.370757856666672
-11.912348666666645,-3.001624800000019,0.9175620133333388
-12.346395499999979,-1.8909757000000187,0.46436617000000546
-12.346395499999979,-1.8909757000000187,0.4643661700000055
-12.119797666666644,-1.303735986666685,0.9526687800000055
-11.89319983333331,-0.7164962733333518,1.4409713900000056
-11.666601999999976,-0.1292565600000184,1.9292740000000055
-11.666601999999976,-0.1292565600000184,1.9292740000000055
-11.213405999999978,-0.2664919200000184,2.021828033333339
-10.76020999999998,-0.40372728000001845,2.1143820666666726
-10.307013999999981,-0.5409626400000185,2.206936100000006
-10.307013999999981,-0.5409626400000184,2.206936100000006
-9.732540333333313,-0.770752126666685,1.7984215466666729
-9.158066666666647,-1.0005416133333516,1.3899069933333397
-8.58359299999998,-1.2303311000000183,0.9813924400000064
-8.58359299999998,-1.2303311000000183,0.9813924400000064
-8.127205766666647,-1.4154392333333516,0.7292623500000063
-7.670818533333313,-1.600547366666685,0.47713226000000636
-7.21443129999998,-1.7856555000000183,0.22500217000000636
-7.21443129999998,-1.7856555000000183,0.22500217000000636
-7.50805119999998,-1.792038566666685,0.2888325800000064
-7.801671099999981,-1.7984216333333516,0.3526629900000064
-8.095290999999982,-1.8048047000000185,0.4164934000000064
-8.09529099999998,-1.8048047000000185,0.4164934000000064
-8.09529099999998,-1.8048047000000185,0.4164934000000064
-8.669764333333315,-1.693101466666685,0.5633033200000065
-9.24423766666665,-1.5813982333333516,0.7101132400000063
-9.818710999999984,-1.4696950000000182,0.8569231600000062
-9.825094333333318,-1.843102866666685,0.847348606666673
-9.83147766666665,-2.2165107333333522,0.8377740533333397
-9.837860999999982,-2.589918600000019,0.8281995000000064
-9.83786099999998,-2.589918600000019,0.8281995000000064
-10.271907666666648,-2.5580034000000187,1.34522573333334
-10.705954333333315,-2.5260882000000184,1.8622519666666733
-11.140000999999979,-2.494173000000018,2.3792782000000066
-11.140000999999979,-2.494173000000018,2.3792782000000066
-11.140000999999979,-2.494173000000018,2.3792782000000066
-10.82084899999998,-1.8016131333333518,1.954806066666673
-10.501696999999979,-1.1090532666666852,1.5303339333333394
-10.182544999999978,-0.4164934000000186,1.105861800000006
-9.767647333333313,-1.351608833333352,2.018636533333339
-9.352749666666647,-2.286724266666685,2.931411266666673
-8.93785199999998,-3.2218397000000185,3.8441860000000063
-8.93785199999998,-3.2218397000000185,3.8441860000000063
-8.625082999999979,-2.7750268666666855,2.88353843333334
-8.312313999999978,-2.3282140333333516,1.9228908666666733
-7.999544999999977,-1.881401200000018,0.9622433000000066
-7.999544999999977,-1.881401200000018,0.9622433000000066
-7.999544999999977,-1.881401200000018,0.9622433000000066
-8.175078666666645,-2.3728952666666845,0.57287785333334
-8.350612333333311,-2.8643893333333517,0.18351240666667323
-8.526145999999978,-3.355883400000019,-0.20585303999999346
-8.526145999999978,-3.355883400000019,-0.20585303999999346
-9.410196999999977,-3.505884833333352,-0.10372439999999344
-10.294247999999977,-3.6558862666666854,-0.0015957599999934513
-11.178298999999976,-3.8058877000000186,0.10053288000000654
-11.998519999999976,-4.096316033333352,0.7994758200000066
-12.818740999999974,-4.386744366666686,1.4984187600000067
-13.638961999999973,-4.6771727000000185,2.1973617000000067
-13.638961999999973,-4.6771727000000185,2.1973617000000067
-13.638961999999973,-4.6771727000000185,2.1973617000000067
-13.064488333333307,-4.128231233333352,2.621833866666673
-12.490014666666639,-3.5792897666666854,3.0463060333333396
-11.91554099999997,-3.030348300000019,3.4707782000000065
-11.91554099999997,-3.030348300000019,3.4707782000000065
-11.41766366666664,-2.6633235333333523,2.953751900000006
-10.919786333333306,-2.2962987666666854,2.436725600000006
-10.421908999999973,-1.9292740000000184,1.919699300000006
-10.798508333333308,-1.9611892000000186,1.5079932333333392
-11.17510766666664,-1.9931044000000189,1.0962871666666725
-11.551706999999974,-2.0250196000000193,0.6845811000000058
-11.551706999999974,-2.0250196000000193,0.6845811000000058
-11.551706999999974,-2.0250196000000193,0.6845811000000058
-11.242129333333308,-1.7728895000000193,1.1505430000000059
-10.93255166666664,-1.5207594000000195,1.6165049000000058
-10.622973999999973,-1.2686293000000195,2.0824668000000055
-10.622973999999973,-1.2686293000000195,2.0824668000000055
-10.188927333333305,-1.447354433333353,1.8239536666666722
-9.754880666666638,-1.6260795666666865,1.565440533333339
-9.320833999999971,-1.8048047000000198,1.3069274000000057
-8.953809333333306,-1.8143792333333533,0.872880693333339
-8.58678466666664,-1.8239537666666867,0.4388339866666722
-8.219759999999974,-1.83352830000002,0.004787280000005574
-8.219759999999974,-1.83352830000002,0.004787280000005574
-7.8623097999999745,-1.6962929333333534,0.11649048666667224
-7.504859599999975,-1.5590575666666868,0.22819369333333892
-7.147409399999975,-1.42182220000002,0.3398969000000056
-7.147409399999975,-1.42182220000002,0.3398969000000056
-7.147409399999975,-1.42182220000002,0.3398969000000056
-7.492093599999975,-1.47926960000002,0.43564250000000554
-7.836777799999974,-1.5367170000000199,0.5313881000000055
-8.181461999999973,-1.5941644000000197,0.6271337000000055
-8.181461999999973,-1.5941644000000192,0.6271337000000056
-8.931468999999973,-1.839911400000019,0.38138665200000554
-9.681475999999973,-2.085658400000019,0.13563960400000555
-10.431482999999975,-2.3314054000000186,-0.1101074439999944
-10.51446266666664,-2.736728500000019,0.697347137333339
-10.597442333333307,-3.1420516000000194,1.5048017186666722
-10.680421999999973,-3.5473747000000198,2.3122563000000054
-10.680421999999973,-3.5473747000000198,2.3122563000000054
-10.680421999999973,-3.5473747000000198,2.3122563000000054
-10.571910333333307,-2.6984303333333526,1.9165078000000058
-10.46339866666664,-1.8494859666666859,1.520759300000006
-10.354886999999971,-1.0005416000000191,1.1250108000000059
-10.354886999999971,-1.000541600000019,1.125010800000006
-9.975095999999972,-1.0867126333333523,1.4633119666666727
-9.595304999999973,-1.1728836666666858,1.8016131333333394
-9.215513999999972,-1.259054700000019,2.139914300000006
-8.64742366666664,-1.2622462333333522,2.2962987666666725
-8.079333333333308,-1.2654377666666854,2.4526832333333393
-7.511242999999975,-1.2686293000000186,2.6090677000000055
-7.511242999999975,-1.2686293000000186,2.6090677000000055
-7.511242999999975,-1.2686293000000186,2.6090677000000055
-7.756989999999973,-2.002678933333352,1.440971333333339
-8.002736999999973,-2.736728566666685,0.27287496666667216
-8.248483999999971,-3.470778200000018,-0.8952213999999946
-8.248483999999971,-3.470778200000018,-0.8952213999999946
-8.883596333333307,-3.7069506333333515,-0.6207506666666612
-9.51870866666664,-3.943123066666685,-0.34627993333332796
-10.153820999999974,-4.179295500000018,-0.07180919999999462
-10.549569666666642,-3.8633350000000175,0.365429066666672
-10.94531833333331,-3.5473745000000174,0.8026673333333387
-11.341066999999976,-3.231414000000017,1.2399056000000053
-11.341066999999976,-3.2314140000000164,1.2399056000000053
-11.341066999999976,-3.2314140000000164,1.2399056000000053
-12.241075666666644,-3.151626066666683,1.549483066666672
-13.141084333333309,-3.0718381333333498,1.8590605333333385
-14.041092999999973,-2.992050200000017,2.168638000000005
-14.04109299999997,-2.992050200000017,2.168638000000005
-13.05810499999997,-2.9888586333333502,2.2835326666666718
-12.075116999999969,-2.9856670666666836,2.398427333333339
-11.092128999999966,-2.982475500000017,2.513322000000006
-11.092128999999966,-2.982475500000017,2.513322000000006
-10.839998666666633,-3.0239652666666834,2.040977033333339
-10.587868333333299,-3.06545503333335,1.568632066666672
-10.335737999999965,-3.1069448000000164,1.0962871000000052
-10.335737999999965,-3.1069448000000164,1.0962871000000052
-10.204885666666634,-2.80375043333335,1.1122447333333383
-10.074033333333302,-2.5005560666666837,1.1282023666666716
-9.943180999999969,-2.1973617000000174,1.144160000000005
-9.94318099999997,-2.1973617000000174,1.1441600000000047
-9.780413666666638,-1.8909757333333506,1.2877784000000048
-9.617646333333306,-1.584589766666684,1.4313968000000046
-9.454878999999973,-1.278203800000017,1.5750152000000046
-9.454878999999975,-1.278203800000017,1.5750152000000046
-9.324026666666642,-1.3069275000000171,1.3835240000000046
-9.19317433333331,-1.335651200000017,1.1920328000000044
-9.062321999999979,-1.3643749000000167,1.0005416000000045
-9.062321999999979,-1.3643749000000167,1.0005416000000045
-8.826149333333312,-1.3771409666666834,0.8760723000000045
-8.589976666666645,-1.38990703333335,0.7516030000000044
-8.35380399999998,-1.4026731000000165,0.6271337000000043
-8.35380399999998,-1.4026731000000165,0.6271337000000043
-8.264441333333314,-1.4920356666666834,0.6016015333333377
-8.175078666666648,-1.5813982333333503,0.5760693666666711
-8.085715999999982,-1.6707608000000171,0.5505372000000044
-8.085715999999984,-1.6707608000000171,0.5505372000000044
-8.921894333333318,-1.830336866666684,0.5122389666666711
-9.758072666666651,-1.9899129333333505,0.4739407333333378
-10.594250999999986,-2.149489000000017,0.43564250000000443
-10.594250999999986,-2.1494890000000164,0.43564250000000443
-10.594250999999986,-2.1494890000000164,0.43564250000000443
-10.891062333333318,-2.1399144000000168,0.5313881000000046
-11.187873666666652,-2.1303398000000167,0.6271337000000046
-11.484684999999985,-2.1207652000000166,0.7228793000000046
-10.907019999999983,-2.028211100000017,1.2909698666666711
-10.329354999999984,-1.9356570000000168,1.8590604333333376
-9.751689999999982,-1.8431029000000168,2.4271510000000043
-9.75168999999998,-1.8431029000000168,2.427151000000004
-9.566581666666648,-1.782464000000017,2.1909785666666703
-9.381473333333316,-1.721825100000017,1.9548061333333369
-9.196364999999984,-1.6611862000000173,1.7186337000000034
-9.196364999999986,-1.6611862000000173,1.7186337000000034
-8.500613766666653,-1.466503500000017,1.8558690000000035
-7.804862533333321,-1.271820800000017,1.9931043000000035
-7.109111299999988,-1.0771381000000169,2.130339600000003
-7.109111299999988,-1.0771381000000169,2.1303396000000037
-7.000599533333322,-1.4282052666666836,2.0792753000000035
-6.892087766666656,-1.7792724333333503,2.0282110000000033
-6.783575999999989,-2.130339600000017,1.9771467000000031
-6.783575999999989,-2.1303396000000165,1.977146700000003
-7.434646333333323,-2.3537460666666834,1.814379200000003
-8.085716666666656,-2.5771525333333503,1.651611700000003
-8.736786999999989,-2.8005590000000176,1.4888442000000033
-8.73678699999999,-2.8005590000000176,1.4888442000000033
-9.138918333333324,-2.730345533333351,1.6133134666666697
-9.541049666666659,-2.660132066666685,1.7377827333333364
-9.943180999999994,-2.5899186000000185,1.8622520000000031
-9.943180999999994,-2.5899186000000185,1.8622520000000031
-10.571910666666662,-2.6377914000000184,2.01863646666667
-11.20064033333333,-2.685664200000018,2.1750209333333363
-11.829369999999997,-2.733537000000018,2.331405400000003
-11.829369999999997,-2.733537000000018,2.331405400000003
-12.122989666666664,-2.7877928666666847,2.3377885000000034
-12.416609333333332,-2.8420487333333515,2.3441716000000032
-12.710228999999998,-2.8963046000000183,2.3505547000000035
-12.710228999999998,-2.8963046000000183,2.3505547000000035
-12.020860666666666,-2.870772400000018,2.5133222000000033
-11.331492333333335,-2.8452402000000183,2.6760897000000035
-10.642124000000003,-2.819708000000018,2.838857200000003
-10.642124000000003,-2.819708000000018,2.838857200000003
-10.642124000000003,-2.819708000000018,2.838857200000003
-10.942126666666669,-3.0494974666666845,2.2803411666666697
-11.242129333333336,-3.279286933333351,1.7218251333333363
-11.542132000000002,-3.5090764000000174,1.163309100000003
-11.162341333333336,-3.065455066666684,1.179266700000003
-10.782550666666667,-2.6218337333333506,1.195224300000003
-10.40276,-2.1782124000000174,1.2111819000000026
-10.40276,-2.1782124000000174,1.2111819000000026
-10.40276,-2.1782124000000174,1.2111819000000026
-10.000628333333333,-1.7218250666666843,1.4026731000000028
-9.598496666666668,-1.265437733333351,1.5941643000000028
-9.196365,-0.8090504000000176,1.7856555000000027
-9.196365,-0.8090504000000176,1.7856555000000027
-8.918703,-0.8920299000000177,1.6005473666666694
-8.641041000000001,-0.9750094000000179,1.415439233333336
-8.363379000000002,-1.057988900000018,1.2303311000000028
-8.0889082,-1.2175649000000182,1.1122448333333361
-7.8144374,-1.3771409000000183,0.9941585666666694
-7.5399666,-1.5367169000000185,0.8760723000000028
-7.5399666,-1.5367169000000185,0.8760723000000028
-7.8942250666666665,-1.7250166000000184,0.786709733333336
-8.248483533333333,-1.9133163000000184,0.6973471666666694
-8.602742,-2.101616000000018,0.6079846000000027
-8.602742,-2.101616000000018,0.6079846000000027
-8.602742,-2.101616000000018,0.6079846000000027
-9.094236333333333,-2.136722700000018,0.582452433333336
-9.585730666666665,-2.1718294000000182,0.5569202666666694
-10.077224999999999,-2.2069361000000183,0.5313881000000027
-10.077224999999999,-2.2069361000000183,0.5313881000000027
-10.450632999999998,-2.219702233333352,0.8154334000000026
-10.824041,-2.2324683666666854,1.0994787000000026
-11.197448999999999,-2.2452345000000187,1.3835240000000029
-11.025106666666666,-2.120765166666686,1.8079961666666697
-10.852764333333333,-1.9962958333333518,2.2324683333333364
-10.680422,-1.8718265000000187,2.656940500000003
-10.680422,-1.8718265000000187,2.6569405000000024
-10.680422,-1.8718265000000187,2.6569405000000024
-10.096373999999999,-1.6133133666666852,2.4526832333333357
-9.512326,-1.354800233333352,2.2484259666666686
-8.928277999999999,-1.096287100000019,2.0441687000000015
-8.928277999999999,-1.096287100000019,2.0441687000000015
-8.248484166666666,-1.0196906333333522,2.139914266666668
-7.5686903333333335,-0.9430941666666856,2.2356598333333344
-6.888896500000001,-0.8664977000000188,2.331405400000001
-6.930386233333334,-1.2271394666666857,2.025019500000001
-6.971875966666668,-1.5877812333333523,1.718633600000001
-7.013365700000001,-1.948423000000019,1.412247700000001
-7.013365700000001,-1.948423000000019,1.412247700000001
-7.013365700000001,-1.948423000000019,1.412247700000001
-7.571881466666667,-2.213319200000019,1.319693600000001
-8.130397233333333,-2.4782154000000194,1.227139500000001
-8.688913,-2.7431116000000197,1.1345854000000009
-8.688913,-2.7431116000000197,1.1345854000000009
-8.771892666666668,-2.6856642333333522,1.303736000000001
-8.854872333333338,-2.628216866666685,1.472886600000001
-8.937852000000007,-2.570769500000018,1.642037200000001
-9.91126566666667,-2.653749000000018,1.6675693666666678
-10.884679333333338,-2.736728500000018,1.6931015333333344
-11.858093000000002,-2.8197080000000185,1.718633700000001
-11.858093000000002,-2.8197080000000185,1.718633700000001
-11.858093000000002,-2.8197080000000185,1.718633700000001
-12.853847333333336,-3.1260939666666854,1.7696979666666677
-13.849601666666672,-3.432479933333352,1.8207622333333344
-14.845356000000008,-3.7388659000000186,1.8718265000000012
-14.845356000000008,-3.7388659000000186,1.8718265000000012
-13.195340166666673,-3.4931188000000186,2.2739580000000013
-11.545324333333339,-3.247371700000018,2.676089500000001
-9.895308500000004,-3.0016246000000177,3.0782210000000005
-9.895308500000004,-3.0016246000000177,3.0782210000000005
