accx,accy,accz
-3.2409887000000004,1.9196993,9.225089
-3.2409887000000004,1.9196993,9.225089
-3.2920530333333335,1.9388484333333331,9.049555333333334
-3.3431173666666667,1.957997566666667,8.874021666666668
-3.3941817000000003,1.9771467000000005,8.698488000000001
-3.3941817000000003,1.9771467000000005,8.698488000000001
-3.4707782,2.0058704000000005,8.532529
-3.5473746999999993,2.0345941,8.36657
-3.6239711999999993,2.0633178,8.200610999999999
-3.6239711999999993,2.0633178,8.200610999999997
-3.6973761333333326,1.9579976,7.750606666666663
-3.7707810666666663,1.8526774,7.300602333333328
-3.844186,1.7473571999999997,6.8505979999999935
-3.939931666666667,1.3867154666666666,6.384635999999993
-4.035677333333334,1.0260737333333332,5.918673999999993
-4.131423000000001,0.6654319999999999,5.452711999999994
-4.131423000000001,0.665432,5.452711999999994
-4.389936133333333,0.1675548333333333,5.618670999999995
-4.648449266666667,-0.33032233333333344,5.7846299999999955
-4.9069624,-0.8281995000000002,5.950588999999996
-4.9069624,-0.8281995000000002,5.950588999999996
-4.9069624,-0.8281995000000002,5.950588999999996
-5.041006266666667,-1.1824582333333336,5.6186709999999955
-5.1750501333333325,-1.536716966666667,5.286752999999995
-5.309093999999998,-1.8909757000000003,4.954834999999995
-5.309093999999997,-1.8909757000000003,4.954834999999995
-5.570798666666664,-2.6154507000000002,4.964409566666661
-5.832503333333331,-3.3399257,4.973984133333328
-6.094207999999997,-4.0644007,4.983558699999995
-6.965492999999998,-4.364403800000001,4.725045566666662
-7.836777999999998,-4.6644069,4.466532433333328
-8.708062999999997,-4.964410000000001,4.208019299999996
-8.708062999999997,-4.964410000000001,4.208019299999996
-9.41658033333333,-4.897388,3.675035433333329
-10.125097666666663,-4.830366000000001,3.1420515666666624
-10.833614999999996,-4.763344,2.6090676999999958
-10.833614999999996,-4.763344,2.6090676999999958
-10.868721666666664,-5.0122825,1.6707607866666627
-10.90382833333333,-5.261221,0.7324538733333292
-10.938934999999995,-5.5101595,-0.20585304000000418
-10.938934999999995,-5.5101595,-0.20585304000000418
-10.824040333333329,-5.819737,-0.5090474600000042
-10.709145666666663,-6.1293144999999996,-0.8122418800000042
-10.594250999999995,-6.438891999999999,-1.1154363000000043
-10.594250999999995,-6.438891999999999,-1.1154363000000043
-10.594250999999995,-6.438891999999999,-1.1154363000000043
-10.09318233333333,-5.688884799999999,-0.8792638066666708
-9.592113666666663,-4.938877599999999,-0.6430913133333375
-9.091044999999996,-4.188870399999999,-0.40691882000000423
-9.14210933333333,-3.990996099999999,-0.6271337133333376
-9.193173666666665,-3.7931217999999993,-0.847348606666671
-9.244237999999998,-3.5952474999999993,-1.0675635000000043
-9.244238,-3.5952474999999993,-1.067563500000004
-9.250621333333333,-3.3367343333333324,-1.0994787000000041
-9.257004666666669,-3.0782211666666655,-1.1313939000000042
-9.263388000000003,-2.8197079999999985,-1.163309100000004
-9.263388000000004,-2.8197079999999985,-1.163309100000004
-9.263388000000004,-2.8197079999999985,-1.163309100000004
-9.218706333333337,-2.7335369999999983,-1.0133076533333372
-9.17402466666667,-2.647365999999998,-0.8633062066666705
-9.129343000000004,-2.561194999999998,-0.7133047600000036
-9.107002666666672,-2.7909844666666648,-0.7994758066666702
-9.08466233333334,-3.020773933333331,-0.8856468533333368
-9.062322000000007,-3.2505633999999977,-0.9718179000000035
-9.062322000000007,-3.250563399999997,-0.9718179000000035
-9.122960666666673,-3.0271569333333304,-0.7579860433333367
-9.18359933333334,-2.8037504666666635,-0.54415418666667
-9.244238000000008,-2.580343999999997,-0.3303223300000034
-9.244238000000008,-2.5803439999999966,-0.3303223300000034
-9.311260000000008,-2.31863933333333,-0.20266152666667006
-9.378282000000008,-2.0569346666666632,-0.07500072333333674
-9.445304000000005,-1.7952299999999966,0.05266007999999659
-9.445304000000005,-1.7952299999999966,0.05266007999999659
-9.445304000000005,-1.7952299999999966,0.05266007999999659
-9.403814000000004,-1.8494858666666634,-0.17393784666667003
-9.362324000000003,-1.9037417333333302,-0.40053577333333673
-9.320834000000003,-1.957997599999997,-0.6271337000000033
-9.27615266666667,-2.002678899999997,-0.7005386666666699
-9.231471333333339,-2.047360199999997,-0.7739436333333366
-9.186790000000007,-2.092041499999997,-0.8473486000000033
-9.186790000000007,-2.092041499999997,-0.8473486000000033
-9.15806633333334,-2.15906343333333,-0.76117756666667
-9.129342666666673,-2.2260853666666627,-0.6750065333333367
-9.100619000000007,-2.2931072999999955,-0.5888355000000034
-9.100619000000007,-2.2931072999999955,-0.5888355000000033
-9.161258166666672,-2.3537461999999962,-0.5441542133333366
-9.221897333333338,-2.414385099999997,-0.4994729266666698
-9.282536500000004,-2.4750239999999977,-0.4547916400000032
-9.282536500000004,-2.475023999999998,-0.4547916400000032
-9.279345000000005,-2.439917266666664,-0.44840859333333655
-9.276153500000005,-2.4048105333333303,-0.4420255466666698
-9.272962000000005,-2.369703799999997,-0.4356425000000031
-9.272962000000005,-2.3697037999999964,-0.4356425000000031
-9.269770666666671,-2.309064866666663,-0.47074921333333647
-9.266579333333338,-2.24842593333333,-0.5058559266666699
-9.263388000000004,-2.1877869999999966,-0.5409626400000033
-9.263388000000004,-2.1877869999999966,-0.5409626400000033
-9.24423866666667,-2.200553066666663,-0.5633032933333366
-9.225089333333337,-2.21331913333333,-0.58564394666667
-9.205940000000004,-2.2260851999999964,-0.6079846000000032
-9.225089333333337,-2.270766466666663,-0.5760694000000033
-9.24423866666667,-2.3154477333333303,-0.5441542000000034
-9.263388000000004,-2.360128999999997,-0.5122390000000033
-9.263388000000004,-2.360128999999997,-0.5122390000000033
-9.247430000000003,-2.372895166666664,-0.5186220333333367
-9.231472000000004,-2.38566133333333,-0.52500506666667
-9.215514000000004,-2.398427499999997,-0.5313881000000032
-9.215514000000004,-2.398427499999997,-0.5313881000000032
-9.215514000000004,-2.363320766666663,-0.5154305000000033
-9.215514000000004,-2.3282140333333294,-0.49947290000000333
-9.215514000000004,-2.2931072999999955,-0.48351530000000337
-9.215514000000004,-2.2931072999999955,-0.48351530000000337
-9.21232266666667,-2.277149699999996,-0.46755770000000335
-9.209131333333337,-2.2611920999999966,-0.4516001000000034
-9.205940000000004,-2.245234499999997,-0.43564250000000343
-9.205940000000004,-2.245234499999997,-0.43564250000000343
-9.19636566666667,-2.2548090666666636,-0.4771322533333367
-9.186791333333337,-2.2643836333333307,-0.5186220066666701
-9.177217000000004,-2.2739581999999974,-0.5601117600000035
-9.177217000000004,-2.273958199999998,-0.5601117600000035
-9.218706333333337,-2.2580005333333313,-0.5633032900000036
-9.26019566666667,-2.2420428666666647,-0.5664948200000036
-9.301685000000004,-2.2260851999999987,-0.5696863500000037
-9.301685000000004,-2.2260851999999987,-0.5696863500000037
-9.30487666666667,-2.2037445666666655,-0.550537233333337
-9.308068333333336,-2.181403933333332,-0.5313881166666704
-9.311260000000003,-2.1590632999999984,-0.5122390000000038
-9.295302666666668,-2.181403933333332,-0.5026644333333371
-9.279345333333335,-2.2037445666666655,-0.4930898666666705
-9.263388000000003,-2.2260851999999987,-0.4835153000000038
-9.263388000000004,-2.2260851999999987,-0.4835153000000038
-9.263388000000004,-2.2260851999999987,-0.4835153000000038
-9.24423866666667,-2.2580004666666653,-0.4962814000000038
-9.225089333333337,-2.289915733333332,-0.5090475000000038
-9.205940000000004,-2.321830999999998,-0.5218136000000038
-9.212323000000003,-2.3282139999999987,-0.5313881333333371
-9.218706000000003,-2.3345969999999987,-0.5409626666666704
-9.225089000000002,-2.3409799999999987,-0.5505372000000037
-9.225089,-2.3409799999999987,-0.5505372000000038
-9.221897333333335,-2.315447866666666,-0.5409626666666704
-9.218705666666668,-2.2899157333333324,-0.531388133333337
-9.215514000000002,-2.264383599999999,-0.5218136000000037
-9.215514000000004,-2.264383599999999,-0.5218136000000035
-9.221897333333338,-2.2388513999999993,-0.5122390166666702
-9.228280666666672,-2.213319199999999,-0.5026644333333368
-9.234664000000008,-2.187786999999999,-0.4930898500000034
-9.234664000000008,-2.187786999999999,-0.4930898500000034
-9.231472333333341,-2.1909785666666655,-0.49947290000000333
-9.228280666666675,-2.194170133333332,-0.5058559500000034
-9.22508900000001,-2.1973616999999988,-0.5122390000000033
-9.22508900000001,-2.1973616999999988,-0.5122390000000033
-9.247429333333342,-2.226085333333332,-0.5186220333333367
-9.269769666666674,-2.254808966666665,-0.52500506666667
-9.292110000000006,-2.283532599999998,-0.5313881000000032
-9.292110000000006,-2.283532599999998,-0.5313881000000032
-9.282536000000006,-2.2675749999999977,-0.5218135500000033
-9.272962000000005,-2.2516173999999975,-0.5122390000000033
-9.263388000000004,-2.2356597999999974,-0.5026644500000034
-9.263388000000004,-2.235659799999997,-0.5026644500000034
-9.257004666666672,-2.216510666666663,-0.5154305133333367
-9.25062133333334,-2.19736153333333,-0.52819657666667
-9.244238000000008,-2.178212399999996,-0.5409626400000033
-9.25062133333334,-2.1909785333333294,-0.5601117600000033
-9.257004666666676,-2.203744666666663,-0.5792608800000032
-9.26338800000001,-2.2165107999999965,-0.5984100000000031
-9.263388000000012,-2.2165107999999965,-0.5984100000000031
-9.276153666666678,-2.203744666666663,-0.5824524000000032
-9.288919333333345,-2.1909785333333294,-0.5664948000000032
-9.301685000000012,-2.178212399999996,-0.5505372000000032
-9.301685000000012,-2.178212399999996,-0.5505372000000032
-9.272961333333344,-2.1718293666666626,-0.5281965666666699
-9.244237666666677,-2.1654463333333296,-0.5058559333333367
-9.215514000000011,-2.159063299999996,-0.48351530000000337
-9.215514000000011,-2.159063299999996,-0.48351530000000337
-9.234663333333344,-2.1558718666666628,-0.49947290000000333
-9.253812666666677,-2.152680433333329,-0.5154305000000033
-9.272962000000012,-2.1494889999999955,-0.5313881000000032
-9.272962000000012,-2.149488999999995,-0.5313881000000032
-9.260196000000013,-2.149488999999995,-0.5473457000000033
-9.247430000000014,-2.149488999999995,-0.5633033000000033
-9.234664000000015,-2.149488999999995,-0.5792609000000032
-9.234664000000015,-2.149488999999995,-0.5792609000000032
-9.24423866666668,-2.1782125999999953,-0.5633033000000033
-9.253813333333346,-2.206936199999995,-0.5473457000000033
-9.263388000000012,-2.2356597999999948,-0.5313881000000032
-9.260196333333345,-2.251617399999995,-0.5218135500000033
-9.25700466666668,-2.267574999999995,-0.5122390000000033
-9.253813000000013,-2.283532599999995,-0.5026644500000034
-9.253813000000013,-2.283532599999995,-0.5026644500000034
-9.253813000000013,-2.283532599999995,-0.5026644500000034
-9.244238333333344,-2.2452343999999953,-0.5122390000000033
-9.234663666666679,-2.2069361999999955,-0.5218135500000033
-9.225089000000013,-2.1686379999999956,-0.5313881000000032
-9.237855333333346,-2.171829466666663,-0.5313881000000032
-9.25062166666668,-2.1750209333333292,-0.5313881000000032
-9.263388000000015,-2.178212399999996,-0.5313881000000032
-9.263388000000015,-2.178212399999996,-0.5313881000000032
-9.257004666666681,-2.2069361333333295,-0.51862201666667
-9.25062133333335,-2.2356598666666634,-0.5058559333333367
-9.244238000000017,-2.264383599999997,-0.4930898500000033
-9.244238000000019,-2.264383599999997,-0.4930898500000033
-9.247429666666685,-2.273958166666663,-0.4930898500000033
-9.250621333333351,-2.2835327333333293,-0.4930898500000033
-9.253813000000017,-2.2931072999999955,-0.4930898500000033
-9.253813000000015,-2.2931072999999955,-0.4930898500000033
-9.263387500000015,-2.267575133333329,-0.5026644333333367
-9.272962000000014,-2.242042966666663,-0.51223901666667
-9.282536500000013,-2.2165107999999965,-0.5218136000000034
-9.282536500000013,-2.2165107999999965,-0.5218136000000035
-9.266579000000014,-2.229276866666663,-0.528196613333337
-9.250621500000015,-2.24204293333333,-0.5345796266666704
-9.234664000000016,-2.2548089999999963,-0.5409626400000038
-9.234664000000016,-2.2548089999999963,-0.5409626400000039
-9.23147233333335,-2.261192066666663,-0.5313880933333373
-9.228280666666684,-2.2675751333333305,-0.5218135466666706
-9.225089000000018,-2.2739581999999974,-0.512239000000004
-9.22508900000002,-2.273958199999998,-0.512239000000004
-9.234663666666686,-2.305873399999997,-0.5090474833333373
-9.244238333333351,-2.337788599999997,-0.5058559666666707
-9.253813000000017,-2.369703799999997,-0.502664450000004
-9.24423833333335,-2.3377885999999966,-0.5218135533333372
-9.234663666666684,-2.305873399999997,-0.5409626566666704
-9.225089000000018,-2.273958199999997,-0.5601117600000037
-9.22508900000002,-2.2739581999999965,-0.5601117600000037
-9.22508900000002,-2.2739581999999965,-0.5601117600000037
-9.244238166666687,-2.2484260333333297,-0.5377711233333371
-9.263387333333354,-2.2228938666666624,-0.5154304866666705
-9.282536500000022,-2.1973616999999956,-0.4930898500000039
-9.26019566666669,-2.216510799999995,-0.5122389666666706
-9.237854833333357,-2.235659899999995,-0.5313880833333372
-9.215514000000022,-2.254808999999995,-0.5505372000000038
-9.215514000000022,-2.254808999999995,-0.5505372000000038
-9.215514000000022,-2.254808999999995,-0.5313880833333372
-9.215514000000022,-2.254808999999995,-0.5122389666666706
-9.215514000000022,-2.254808999999995,-0.4930898500000039
-9.215514000000022,-2.254808999999995,-0.4930898500000039
-9.209131000000022,-2.267575099999995,-0.48989833333333727
-9.202748000000023,-2.2803411999999947,-0.4867068166666706
-9.196365000000023,-2.293107299999994,-0.4835153000000039
-9.196365000000023,-2.293107299999994,-0.4835153000000039
-9.225088833333357,-2.2899157333333284,-0.4579831400000039
-9.25381266666669,-2.2867241666666622,-0.43245098000000387
-9.282536500000022,-2.283532599999996,-0.40691882000000384
-9.282536500000022,-2.2835325999999965,-0.40691882000000384
-9.279345000000022,-2.28991563333333,-0.4516000933333372
-9.276153500000023,-2.296298666666663,-0.49628136666667055
-9.272962000000023,-2.3026816999999964,-0.5409626400000039
-9.266579000000023,-2.2643834666666627,-0.5313880933333373
-9.260196000000024,-2.226085233333329,-0.5218135466666706
-9.253813000000024,-2.1877869999999953,-0.512239000000004
-9.253813000000024,-2.1877869999999953,-0.512239000000004
-9.24104666666669,-2.190978566666662,-0.480323800000004
-9.228280333333357,-2.1941701333333286,-0.44840860000000404
-9.215514000000022,-2.197361699999995,-0.41649340000000407
-9.215514000000022,-2.197361699999995,-0.41649340000000407
-9.234663333333357,-2.2324683666666623,-0.4292594800000041
-9.25381266666669,-2.2675750333333293,-0.4420255600000041
-9.272962000000023,-2.302681699999996,-0.4547916400000041
-9.272962000000023,-2.302681699999996,-0.4547916400000041
-9.27934466666669,-2.2931071999999957,-0.47713229333333745
-9.285727333333357,-2.283532699999995,-0.49947294666667075
-9.292110000000024,-2.2739581999999943,-0.5218136000000041
-9.292110000000024,-2.2739581999999943,-0.5218136000000041
-9.279344333333357,-2.2260853333333275,-0.4867068666666708
-9.26657866666669,-2.1782124666666607,-0.4516001333333375
-9.253813000000024,-2.1303395999999943,-0.4164934000000042
-9.253813000000024,-2.1303395999999943,-0.4164934000000042
-9.247430000000024,-2.1494887333333277,-0.43564251000000415
-9.241047000000025,-2.1686378666666615,-0.45479162000000417
-9.234664000000025,-2.1877869999999953,-0.4739407300000042
-9.237855333333359,-2.1877869999999953,-0.4771322533333375
-9.241046666666692,-2.1877869999999953,-0.48032377666667075
-9.244238000000026,-2.1877869999999953,-0.48351530000000403
-9.244238000000028,-2.1877869999999953,-0.4835153000000039
-9.244238000000028,-2.1877869999999953,-0.4835153000000039
-9.247429666666694,-2.1941700333333287,-0.47074922333333724
-9.25062133333336,-2.200553066666662,-0.45798314666667056
-9.253813000000026,-2.206936099999995,-0.4452170700000038
-9.263387500000027,-2.2165106666666623,-0.45798314666667056
-9.272962000000026,-2.226085233333329,-0.47074922333333724
-9.282536500000026,-2.2356597999999956,-0.4835153000000039
-9.282536500000026,-2.2356597999999956,-0.4835153000000039
-9.279345000000026,-2.222893766666662,-0.4643661833333373
-9.276153500000026,-2.2101277333333287,-0.44521706666667066
-9.272962000000026,-2.197361699999995,-0.426067950000004
-9.272962000000026,-2.197361699999995,-0.426067950000004
-9.257004333333358,-2.1877871333333285,-0.426067950000004
-9.241046666666692,-2.178212566666662,-0.426067950000004
-9.225089000000027,-2.1686379999999947,-0.426067950000004
-9.225089000000029,-2.1686379999999947,-0.426067950000004
-9.237855333333362,-2.165446433333328,-0.43245099000000403
-9.250621666666698,-2.1622548666666614,-0.43883403000000404
-9.263388000000031,-2.159063299999995,-0.44521707000000404
-9.263388000000033,-2.159063299999995,-0.44521707000000404
-9.279345333333366,-2.146297266666662,-0.40372730000000406
-9.295302666666698,-2.133531233333329,-0.362237530000004
-9.311260000000031,-2.120765199999996,-0.320747760000004
-9.31126000000003,-2.1207651999999966,-0.320747760000004
-9.330409333333362,-2.082466899999997,-0.2760664866666707
-9.349558666666697,-2.044168599999997,-0.2313852133333374
-9.36870800000003,-2.005870299999997,-0.18670394000000404
-9.368708000000032,-2.0058702999999976,-0.18670394000000404
-9.378282333333365,-1.9675720999999975,-0.20585306000000403
-9.387856666666698,-1.9292738999999977,-0.22500218000000402
-9.397431000000031,-1.8909756999999978,-0.24415130000000398
-9.349558333333365,-1.9037417999999977,-0.24415130000000398
-9.3016856666667,-1.9165078999999974,-0.24415130000000398
-9.253813000000035,-1.929273999999997,-0.24415130000000398
-9.253813000000035,-1.929273999999997,-0.24415130000000398
-9.180408000000034,-2.028211066666664,-0.26330042333333736
-9.107003000000033,-2.1271481333333306,-0.2824495466666707
-9.033598000000032,-2.2260851999999978,-0.301598670000004
-9.033598000000032,-2.2260851999999978,-0.301598670000004
-8.803808666666697,-2.222893733333331,-0.34627994666667067
-8.574019333333363,-2.219702266666664,-0.3909612233333373
-8.34423000000003,-2.216510799999998,-0.435642500000004
-8.344230000000028,-2.216510799999998,-0.435642500000004
-8.510189000000029,-2.2260853666666645,-0.5952185133333374
-8.67614800000003,-2.235659933333331,-0.7547945266666707
-8.84210700000003,-2.2452344999999982,-0.9143705400000041
-8.842107000000032,-2.2452344999999982,-0.9143705400000041
-9.282536666666699,-2.0920414999999983,-1.1537345266666705
-9.722966333333366,-1.9388484999999982,-1.3930985133333371
-10.163396000000033,-1.7856554999999983,-1.6324625000000037
-10.163396000000033,-1.7856554999999983,-1.6324625000000037
-10.166587666666699,-1.865443533333332,-1.670760733333337
-10.169779333333365,-1.945231566666665,-1.7090589666666702
-10.17297100000003,-2.025019599999998,-1.7473572000000035
-10.172971000000029,-2.025019599999998,-1.7473572000000035
-10.115523333333362,-2.0377856666666645,-1.7122505333333369
-10.058075666666698,-2.050551733333331,-1.6771438666666703
-10.000628000000031,-2.063317799999998,-1.6420372000000036
-10.000628000000033,-2.063317799999998,-1.6420372000000036
-9.678284666666698,-2.0760838666666643,-1.5750152666666706
-9.355941333333364,-2.088849933333331,-1.507993333333337
-9.033598000000032,-2.1016159999999977,-1.4409714000000038
-9.033598000000032,-2.1016159999999977,-1.4409714000000033
-8.51976320000003,-2.133531233333331,-1.367566400000003
-8.00592840000003,-2.165446466666664,-1.2941614000000026
-7.49209360000003,-2.197361699999998,-1.2207564000000024
-7.49209360000003,-2.197361699999998,-1.2207564000000024
-6.879321733333363,-2.203744733333331,-1.0228821666666694
-6.266549866666696,-2.2101277666666643,-0.8250079333333362
-5.653778000000028,-2.216510799999998,-0.627133700000003
-5.653778000000028,-2.216510799999998,-0.627133700000003
-5.730374433333362,-2.1845955999999975,-0.5824524166666697
-5.8069708666666955,-2.1526803999999973,-0.5377711333333365
-5.883567300000029,-2.120765199999997,-0.49308985000000316
-5.883567300000029,-2.1207651999999966,-0.49308985000000316
-6.039951766666696,-2.2771496666666633,-0.5792609000000032
-6.196336233333362,-2.4335341333333296,-0.6654319500000031
-6.352720700000028,-2.5899185999999963,-0.751603000000003
-8.238909133333363,-2.877155399999996,-0.9079874666666695
-10.125097566666696,-3.164392199999996,-1.0643719333333361
-12.011286000000029,-3.4516289999999956,-1.2207564000000024
-12.011286000000029,-3.4516289999999956,-1.2207564000000024
-12.011286000000029,-3.4516289999999956,-1.2207564000000024
-13.090019666666697,-3.789929999999996,-1.0069245666666693
-14.168753333333363,-4.128230999999996,-0.7930927333333361
-15.24748700000003,-4.466531999999996,-0.579260900000003
-15.145358666666697,-3.8473772333333294,-0.8058588333333363
-15.043230333333364,-3.228222466666663,-1.0324567666666697
-14.941102000000031,-2.609067699999996,-1.259054700000003
-14.941102000000031,-2.6090676999999958,-1.259054700000003
-14.22939300000003,-1.744165746999996,-1.6037389000000026
-13.517684000000031,-0.8792637939999962,-1.9484231000000023
-12.805975000000032,-0.014361840999996081,-2.293107300000002
-12.805975000000032,-0.014361840999996081,-2.293107300000002
-11.583622666666699,-0.4164933606666626,-1.9579976666666692
-10.361270333333367,-0.8186248803333291,-1.6228880333333364
-9.138918000000034,-1.2207563999999957,-1.2877784000000034
-9.138918000000034,-1.2207563999999957,-1.2877784000000034
-9.055938333333364,-1.0930956133333292,-1.482461100000003
-8.972958666666695,-0.9654348266666625,-1.6771438000000032
-8.889979000000027,-0.8377740399999959,-1.8718265000000034
-8.889979000000025,-0.8377740399999958,-1.8718265000000034
-8.245292100000027,-0.5792609079999959,-1.7473572333333367
-7.600605200000028,-0.3207477759999959,-1.62288796666667
-6.955918300000029,-0.0622346439999959,-1.4984187000000035
-6.955918300000029,-0.0622346439999959,-1.4984187000000035
-6.247400766666696,-0.20266152933332923,-1.2367140533333367
-5.538883233333363,-0.34308841466666246,-0.9750094066666698
-4.83036570000003,-0.4835152999999958,-0.713304760000003
-4.830365700000031,-0.4835152999999958,-0.713304760000003
-5.650586300000029,-0.7324538999999958,-0.7899012400000031
-6.470806900000028,-0.9813924999999957,-0.8664977200000031
-7.291027500000027,-1.2303310999999957,-0.9430942000000032
-7.291027500000027,-1.2303310999999957,-0.9430942000000032
-9.15487533333336,-1.673952399999996,-1.0771380333333367
-11.018723166666694,-2.1175736999999963,-1.21118186666667
-12.882571000000027,-2.5611949999999966,-1.3452257000000036
-12.882571000000027,-2.5611949999999966,-1.3452257000000036
-13.849601666666695,-2.621833866666664,-1.6707608000000036
-14.816632333333365,-2.6824727333333307,-1.9962959000000033
-15.783663000000033,-2.7431115999999975,-2.321831000000003
-15.783663000000033,-2.7431115999999975,-2.321831000000003
-14.149604666666699,-2.8356657333333306,-2.10161606666667
-12.515546333333367,-2.928219866666664,-1.8814011333333365
-10.881488000000033,-3.0207739999999976,-1.661186200000003
-10.881488000000033,-3.020773999999998,-1.661186200000003
-10.3485041666667,-3.0846043333333313,-1.2941613866666695
-9.815520333333367,-3.1484346666666645,-0.927136573333336
-9.282536500000035,-3.2122649999999973,-0.5601117600000026
-9.282536500000035,-3.2122649999999973,-0.5601117600000026
-8.921894666666702,-3.333542799999997,-0.5824524066666693
-8.56125283333337,-3.4548205999999966,-0.604793053333336
-8.200611000000038,-3.5760983999999962,-0.6271337000000027
-8.200611000000038,-3.5760983999999962,-0.6271337000000027
-7.504859666666704,-3.540991666666663,-0.44202553333333605
-6.80910833333337,-3.50588493333333,-0.25691736666666937
-6.113357000000036,-3.4707781999999967,-0.07180920000000275
-6.113357000000036,-3.4707781999999967,-0.07180920000000275
-6.496339433333369,-3.387798699999997,-0.10053288333333608
-6.879321866666703,-3.304819199999997,-0.1292565666666694
-7.262304300000036,-3.221839699999997,-0.15798025000000274
-7.262304300000036,-3.221839699999997,-0.15798025000000274
-7.865501533333369,-3.4899272999999975,-0.21861913333333605
-8.468698766666702,-3.7580148999999974,-0.2792580166666694
-9.071896000000034,-4.026102499999998,-0.3398969000000027
-9.071896000000033,-4.026102499999998,-0.3398969000000027
-10.2591416666667,-4.383552833333332,-0.3494714566666694
-11.446387333333364,-4.741003166666665,-0.359046013333336
-12.63363300000003,-5.098453499999999,-0.3686205700000027
-12.633633000000026,-5.098453499999999,-0.3686205700000027
-14.312372333333363,-4.973984233333332,-0.7643690800000028
-15.991111666666697,-4.849514966666664,-1.160117590000003
-17.669851000000033,-4.725045699999996,-1.555866100000003
-17.66985100000003,-4.725045699999996,-1.555866100000003
-16.364519333333366,-4.492064633333331,-1.0516059076666695
-15.059187666666697,-4.259083566666664,-0.5473457153333362
-13.75385600000003,-4.026102499999998,-0.043085523000002825
-13.75385600000003,-4.026102499999998,-0.043085523000002825
-12.69746300000003,-3.828228299999998,-0.5728778486666695
-11.64107000000003,-3.630354099999998,-1.1026701743333363
-10.58467700000003,-3.4324798999999984,-1.6324625000000026
-10.58467700000003,-3.4324798999999984,-1.6324625000000026
-8.982533800000033,-2.8867299333333314,-1.2462885766666691
-7.380390600000031,-2.3409799666666644,-0.8601146533333358
-5.778247400000033,-1.7952299999999977,-0.4739407300000025
-5.778247400000033,-1.7952299999999977,-0.4739407300000025
-5.210156800000032,-1.4250136999999976,-0.3175562466666691
-4.6420662000000315,-1.0547973999999976,-0.16117176333333577
-4.073975600000032,-0.6845810999999976,-0.004787280000002447
-4.073975600000032,-0.6845810999999976,-0.0047872800000024465
-4.7505777333333645,-1.0356482999999976,-0.2473428200000025
-5.427179866666697,-1.3867154999999975,-0.4898983600000026
-6.10378200000003,-1.7377826999999977,-0.7324539000000025
-6.10378200000003,-1.7377826999999975,-0.7324539000000024
-8.021885666666696,-1.5367169333333308,-1.5111848333333358
-9.939989333333363,-1.3356511666666642,-2.289915766666669
-11.85809300000003,-1.1345853999999975,-3.068646700000002
-11.85809300000003,-1.1345853999999977,-3.068646700000002
-12.738952333333364,-1.322885099999998,-3.1101364666666687
-13.619811666666697,-1.5111847999999979,-3.151626233333335
-14.50067100000003,-1.6994844999999978,-3.1931160000000016
-14.50067100000003,-1.6994844999999976,-3.1931160000000016
-14.717694666666697,-2.1111905666666644,-2.9569434666666683
-14.934718333333365,-2.5228966333333305,-2.7207709333333345
-15.151742000000032,-2.934602699999997,-2.484598400000001
-15.151742000000032,-2.934602699999997,-2.484598400000001
-14.344287333333364,-3.0814126999999965,-2.175020966666668
-13.536832666666697,-3.2282226999999963,-1.8654435333333346
-12.72937800000003,-3.375032699999996,-1.5558661000000011
-12.72937800000003,-3.375032699999996,-1.5558661000000011
-11.787879333333365,-3.4963104333333295,-1.2143734333333345
-10.846380666666699,-3.6175881666666627,-0.8728807666666677
-9.904882000000033,-3.7388658999999964,-0.531388100000001
-9.904882000000034,-3.7388658999999964,-0.5313881000000009
-9.212322433333368,-3.7803556333333295,-0.5601117766666676
-8.519762866666701,-3.821845366666663,-0.5888354533333343
-7.827203300000034,-3.8633350999999965,-0.617559130000001
-7.638903633333367,-3.4867357333333295,-0.5122389766666676
-7.4506039666667006,-3.1101363666666626,-0.40691882333333435
-7.262304300000033,-2.733536999999996,-0.301598670000001
-7.262304300000033,-2.733536999999996,-0.30159867000000107
-7.306985533333367,-2.7558776666666627,-0.4643662000000011
-7.3516667666667,-2.7782183333333292,-0.6271337300000012
-7.396348000000033,-2.800558999999996,-0.789901260000001
-7.396348000000033,-2.800558999999996,-0.789901260000001
-7.7889048333333655,-3.323968233333329,-0.7643690933333344
-8.181461666666697,-3.8473774666666625,-0.7388369266666678
-8.574018500000031,-4.370786699999996,-0.7133047600000011
-8.57401850000003,-4.370786699999996,-0.7133047600000012
-9.860201333333363,-4.7250454666666615,-0.7962842733333346
-11.146384166666694,-5.079304233333328,-0.879263786666668
-12.432567000000027,-5.433562999999995,-0.9622433000000014
-12.432567000000027,-5.433562999999995,-0.9622433000000014
-13.74109033333336,-4.977175566666662,-0.799475776666668
-15.049613666666694,-4.520788133333329,-0.6367082533333347
-16.358137000000028,-4.064400699999996,-0.4739407300000013
-16.358137000000028,-4.064400699999996,-0.4739407300000013
-15.94962233333336,-4.306956299999996,-0.39415273000000134
-15.541107666666695,-4.549511899999996,-0.31436473000000126
-15.132593000000028,-4.792067499999997,-0.23457673000000123
-15.132593000000028,-4.792067499999997,-0.23457673000000123
-14.618758000000028,-4.058017866666664,-0.6558573866666678
-14.104923000000028,-3.3239682333333307,-1.0771380433333344
-13.591088000000028,-2.5899185999999976,-1.498418700000001
-12.218734666666696,-2.1909785999999976,-1.0994786900000009
-10.846381333333364,-1.7920385999999973,-0.7005386800000011
-9.474028000000033,-1.3930985999999972,-0.3015986700000011
-9.474028000000034,-1.3930985999999972,-0.3015986700000011
-8.6442326666667,-1.3356511999999967,-0.14840569666666778
-7.814437333333365,-1.2782037999999964,0.004787276666665545
-6.984642000000032,-1.2207563999999962,0.15798024999999888
-6.984642000000032,-1.220756399999996,0.15798024999999888
-6.343146466666698,-1.118627779999996,0.1324480883333322
-5.701650933333364,-1.0164991599999962,0.10691592666666554
-5.06015540000003,-0.9143705399999962,0.08138376499999887
-5.06015540000003,-0.9143705399999961,0.08138376499999887
-5.356966600000031,-0.6462828413333294,-0.014361836666667793
-5.653777800000031,-0.3781951426666627,-0.11010743833333446
-5.950589000000032,-0.11010744399999606,-0.20585304000000113
-5.950589000000032,-0.11010744399999606,-0.20585304000000107
-7.591030333333364,-0.6207506959999961,-0.7835181933333345
-9.231471666666698,-1.1313939479999962,-1.3611833466666676
-10.87191300000003,-1.6420371999999963,-1.9388485000000009
-10.87191300000003,-1.6420371999999963,-1.9388485000000009
-12.257032666666696,-2.4654493666666633,-1.8686350666666678
-13.642152333333364,-3.2888615333333298,-1.7984216333333345
-15.027272000000032,-4.112273699999996,-1.7282082000000012
-15.027272000000034,-4.112273699999996,-1.7282082000000012
-14.682588000000033,-3.9303570666666623,-1.6835269333333345
-14.337904000000032,-3.7484404333333288,-1.6388456666666675
-13.993220000000031,-3.5665237999999952,-1.5941644000000006
-13.533641333333364,-3.828228533333329,-1.6069304333333339
-13.074062666666697,-4.0899332666666615,-1.6196964666666673
-12.614484000000028,-4.351637999999995,-1.6324625000000008
-12.614484000000028,-4.351637999999994,-1.6324625000000008
-12.614484000000028,-4.351637999999994,-1.6324625000000008
-11.653836333333361,-4.53993766666666,-1.6675692333333343
-10.693188666666694,-4.728237333333325,-1.7026759666666675
-9.732541000000028,-4.916536999999991,-1.7377827000000006
-9.151684233333363,-4.7729184999999905,-1.1026701966666672
-8.570827466666698,-4.629299999999991,-0.4675576933333339
-7.989970700000032,-4.48568149999999,0.16755480999999936
-7.989970700000032,-4.48568149999999,0.16755480999999936
-7.769755800000031,-3.8441859999999903,0.16436328999999936
-7.5495409000000295,-3.2026904999999903,0.16117176999999935
-7.329326000000029,-2.5611949999999903,0.15798024999999935
-7.329326000000029,-2.5611949999999903,0.15798024999999935
-7.306985433333363,-2.861197866666657,0.1005328863333327
-7.284644866666697,-3.1612007333333234,0.04308552266666604
-7.262304300000031,-3.46120359999999,-0.01436184100000062
-7.262304300000031,-3.461203599999989,-0.01436184100000062
-8.350612533333365,-4.214402399999989,-0.03989400400000063
-9.4389207666667,-4.967601199999989,-0.06542616700000063
-10.527229000000032,-5.720799999999989,-0.09095833000000063
-10.527229000000034,-5.720799999999989,-0.09095833000000064
-12.024052000000033,-5.873992999999988,-0.3111732200000007
-13.520875000000034,-6.027185999999987,-0.5313881100000006
-15.017698000000037,-6.180378999999987,-0.7516030000000007
-15.017698000000038,-6.180378999999985,-0.7516030000000006
-16.02941000000004,-5.829311733333317,-0.6750065333333337
-17.041122000000044,-5.478244466666649,-0.598410066666667
-18.052834000000047,-5.1271771999999824,-0.5218136000000003
-17.037930333333378,-4.1537634999999815,-0.22181068666666692
-16.02302666666671,-3.180349799999982,0.0781922266666664
-15.00812300000004,-2.206936099999982,0.3781951399999997
-15.00812300000004,-2.206936099999982,0.3781951399999997
-13.188956666666707,-1.922890833333315,0.03670247666666641
-11.369790333333375,-1.6388455666666484,-0.3047901866666669
-9.550624000000042,-1.3548002999999815,-0.6462828500000003
-9.550624000000042,-1.3548002999999815,-0.6462828500000003
-8.532529100000042,-1.4760780999999816,-0.7643691000000002
-7.514434200000044,-1.5973558999999815,-0.8824553500000003
-6.496339300000044,-1.7186336999999814,-1.0005416000000003
-6.496339300000044,-1.7186336999999814,-1.0005416000000003
-6.595276333333377,-1.4665035666666482,-0.6654319733333337
-6.69421336666671,-1.214373433333315,-0.330322346666667
-6.7931504000000436,-0.9622432999999816,0.004787279999999654
-6.793150400000042,-0.9622432999999816,0.004787279999999653
-7.051663600000043,-0.9686263466666483,-0.48989834666666704
-7.310176800000043,-0.9750093933333149,-0.9845839733333337
-7.568690000000044,-0.9813924399999817,-1.4792696000000005
-7.568690000000044,-0.9813924399999817,-1.4792696000000005
-8.152738000000044,-1.2016073599999817,-1.3005444666666672
-8.736786000000043,-1.4218222799999818,-1.1218193333333337
-9.320834000000044,-1.6420371999999819,-0.9430942000000003
-9.320834000000046,-1.6420371999999819,-0.9430942000000003
-10.233609000000046,-2.0154450333333154,-0.7037301900000003
-11.146384000000047,-2.388852866666649,-0.46436618000000013
-12.059159000000049,-2.762260699999983,-0.22500217000000014
-12.63363233333338,-2.9186451333333157,-0.7579860133333334
-13.208105666666713,-3.0750295666666485,-1.2909698566666667
-13.782579000000046,-3.2314139999999814,-1.8239537
-13.782579000000046,-3.231413999999981,-1.8239537
-13.782579000000046,-3.231413999999981,-1.8239537
-13.485768000000045,-3.375032466666647,-1.6643777000000002
-13.188957000000045,-3.5186509333333134,-1.5048017000000005
-12.892146000000045,-3.6622693999999796,-1.3452257000000005
-12.78682566666671,-3.8952503666666463,-1.077138013333334
-12.681505333333376,-4.128231333333313,-0.8090503266666671
-12.576185000000043,-4.36121229999998,-0.5409626400000004
-12.576185000000043,-4.361212299999979,-0.5409626400000004
-12.212351666666708,-4.389935999999979,-0.6781980266666671
-11.848518333333374,-4.41865969999998,-0.8154334133333337
-11.48468500000004,-4.44738339999998,-0.9526688000000004
-11.48468500000004,-4.447383399999981,-0.9526688000000004
-10.169778866666705,-4.131422933333314,-0.43564253333333375
-8.854872733333373,-3.8154624666666472,0.08138373333333293
-7.53996660000004,-3.4995019999999806,0.5984099999999996
-7.53996660000004,-3.4995019999999806,0.5984099999999996
-7.083579066666707,-3.3558835666666478,0.5505372133333329
-6.627191533333374,-3.2122651333333145,0.5026644266666662
-6.17080400000004,-3.0686466999999813,0.45479163999999955
-6.17080400000004,-3.0686466999999813,0.45479163999999955
-7.3484750000000405,-3.8920587999999814,-0.15159720666666715
-8.526146000000042,-4.715470899999981,-0.7579860533333339
-9.70381700000004,-5.538882999999982,-1.3643749000000005
-9.703817000000038,-5.538882999999982,-1.3643749000000007
-11.363407666666705,-5.979312899999982,-1.1154363100000009
-13.022998333333371,-6.419742799999983,-0.8664977200000008
-14.682589000000037,-6.860172699999983,-0.6175591300000008
-14.682589000000037,-6.860172699999983,-0.6175591300000008
-15.346425000000037,-5.577181533333317,-0.023936386666667493
-16.010261000000035,-4.29419036666665,0.5696863566666659
-16.674097000000035,-3.0111991999999836,1.1633090999999993
-16.31664700000003,-3.301627533333317,0.5505372333333327
-15.959197000000032,-3.59205586666665,-0.062234633333333934
-15.601747000000032,-3.882484199999984,-0.6750065000000006
-15.601747000000032,-3.882484199999984,-0.6750065000000006
-14.194286333333366,-3.4101392333333167,-0.8505401000000007
-12.7868256666667,-2.93779426666665,-1.0260737000000006
-11.379365000000035,-2.465449299999983,-1.2016073000000007
-11.379365000000035,-2.465449299999983,-1.2016073000000007
-10.578293500000036,-2.12395666666665,-0.949477223333334
-9.777222000000037,-1.7824640333333168,-0.6973471466666673
-8.976150500000038,-1.4409713999999838,-0.4452170700000006
-8.976150500000038,-1.4409713999999838,-0.4452170700000006
-8.289973566666704,-1.268629289999984,-0.47074924666666723
-7.603796633333371,-1.0962871799999838,-0.4962814233333339
-6.917619700000036,-0.9239450699999838,-0.5218136000000007
-6.917619700000036,-0.9239450699999837,-0.5218136000000005
-6.924002800000036,-0.7707521033333169,-0.5505372666666674
-6.9303859000000365,-0.6175591366666502,-0.5792609333333341
-6.936769000000037,-0.46436616999998354,-0.6079846000000008
-6.936769000000038,-0.46436616999998365,-0.6079846000000009
-6.649532166666705,-0.745219913333317,-0.6335167666666676
-6.362295333333371,-1.0260736566666504,-0.6590489333333341
-6.075058500000037,-1.306927399999984,-0.6845811000000008
-6.075058500000037,-1.306927399999984,-0.6845811000000008
-6.981450000000037,-1.6771437999999839,-0.7356454133333342
-7.887841500000037,-2.0473601999999835,-0.7867097266666677
-8.794233000000037,-2.4175765999999834,-0.8377740400000011
-9.911265000000038,-2.78140986666665,-0.9494772266666679
-11.028297000000038,-3.1452431333333166,-1.0611804133333342
-12.145329000000038,-3.509076399999983,-1.1728836000000007
-12.145329000000038,-3.509076399999983,-1.1728836000000007
-13.390022333333372,-3.608013499999983,-1.6069304000000006
-14.634715666666708,-3.706950599999983,-2.040977200000001
-15.879409000000043,-3.805887699999983,-2.475024000000001
-15.879409000000043,-3.805887699999983,-2.4750240000000003
-14.519821333333375,-3.5122678999999835,-1.9899128666666668
-13.160233666666707,-3.218648099999984,-1.5048017333333332
-11.800646000000041,-2.9250282999999846,-1.0196905999999997
-11.800646000000041,-2.9250282999999846,-1.0196905999999997
-11.184682666666708,-3.2473717999999843,-0.8664976533333331
-10.568719333333375,-3.5697152999999844,-0.7133047066666665
-9.952756000000042,-3.8920587999999845,-0.5601117599999997
-9.952756000000042,-3.8920587999999845,-0.5601117599999998
-9.384665333333373,-4.2718497666666515,-0.4356424866666666
-8.816574666666705,-4.651640733333319,-0.3111732133333333
-8.248484000000039,-5.0314316999999855,-0.18670394
-8.248484000000039,-5.0314316999999855,-0.18670394
-8.96019300000004,-4.7058965666666515,-0.13244809400000002
-9.67190200000004,-4.3803614333333165,-0.07819224800000002
-10.383611000000043,-4.054826299999982,-0.023936402000000023
-10.859147666666708,-4.559086533333315,-0.03351096133333336
-11.334684333333373,-5.0633467666666485,-0.04308552066666669
-11.81022100000004,-5.567606999999981,-0.052660080000000026
-11.81022100000004,-5.567606999999981,-0.052660080000000026
-11.81022100000004,-5.567606999999981,-0.052660080000000026
-13.03895600000004,-6.828257333333315,0.07819224666666665
-14.26769100000004,-8.088907666666648,0.2090445733333333
-15.49642600000004,-9.349557999999982,0.3398969
-14.337904333333375,-8.915511333333313,0.6079846000000001
-13.179382666666706,-8.481464666666646,0.8760723000000001
-12.020861000000039,-8.047417999999979,1.14416
-12.020861000000039,-8.047417999999979,1.14416
-13.096403000000038,-6.320805666666646,-0.030319400000000146
-14.171945000000036,-4.594193333333314,-1.2047988000000005
-15.247487000000035,-2.8675809999999804,-2.379278200000001
-15.247487000000035,-2.8675809999999804,-2.3792782000000012
-15.640044000000033,-2.6090678333333144,-2.7526861333333343
-16.032601000000035,-2.350554666666648,-3.1260940666666674
-16.425158000000035,-2.0920414999999815,-3.499502000000001
-16.42515800000004,-2.0920414999999815,-3.499502000000001
-14.612374666666705,-1.7377827666666483,-3.451629133333334
-12.799591333333373,-1.383524033333315,-3.4037562666666674
-10.986808000000039,-1.0292652999999816,-3.355883400000001
-10.986808000000039,-1.0292652999999816,-3.355883400000001
-10.275099000000038,-1.3643748666666482,-3.9495061666666675
-9.56339000000004,-1.6994844333333148,-4.5431289333333345
-8.85168100000004,-2.034593999999981,-5.136751700000001
-8.851681000000042,-2.034593999999981,-5.136751700000002
-8.669764333333376,-1.9452314666666481,-5.005899300000002
-8.48784766666671,-1.855868933333315,-4.875046900000003
-8.305931000000044,-1.766506399999982,-4.744194500000003
-8.305931000000044,-1.766506399999982,-4.744194500000003
-8.16231266666671,-1.680335333333315,-4.361212166666671
-8.018694333333377,-1.5941642666666482,-3.9782298333333372
-7.875076000000043,-1.5079931999999816,-3.595247500000004
-8.041035000000043,-1.431396733333315,-3.1324770333333376
-8.206994000000044,-1.3548002666666485,-2.669706566666671
-8.372953000000045,-1.278203799999982,-2.2069361000000045
-8.372953000000045,-1.278203799999982,-2.206936100000005
-8.39529366666671,-1.5399084666666487,-1.5207592966666714
-8.417634333333375,-1.8016131333333154,-0.8345824933333379
-8.43997500000004,-2.063317799999982,-0.1484056900000046
-8.439975000000038,-2.0633177999999823,-0.1484056900000046
-9.132534666666706,-2.4654493333333156,0.07180920666666209
-9.825094333333373,-2.8675808666666485,0.2920241033333288
-10.517654000000041,-3.2697123999999818,0.5122389999999954
-10.517654000000043,-3.2697123999999818,0.5122389999999953
-10.83999766666671,-2.819708033333315,0.20585305999999537
-11.162341333333375,-2.3697036666666484,-0.10053288000000464
-11.484685000000042,-1.9196992999999818,-0.4069188200000046
-11.484685000000042,-1.9196992999999818,-0.4069188200000046
-11.99213666666671,-1.9962958666666484,-0.595218513333338
-12.499588333333378,-2.072892433333315,-0.7835182066666713
-13.007040000000046,-2.1494889999999818,-0.9718179000000046
-13.007040000000046,-2.149488999999982,-0.9718179000000046
-12.486822333333379,-1.9260825333333156,-0.518622033333338
-11.966604666666711,-1.7026760666666492,-0.06542616666667134
-11.446387000000044,-1.4792695999999825,0.38776969999999533
-11.446387000000044,-1.4792695999999825,0.38776969999999533
-10.712337333333375,-1.4154391999999827,0.37181209999999537
-9.978287666666708,-1.3516087999999826,0.35585449999999536
-9.244238000000038,-1.2877783999999828,0.3398968999999954
-9.244238000000037,-1.287778399999983,0.3398968999999954
-9.231472000000037,-1.5654406666666496,0.3686205833333287
-9.218706000000038,-1.8431029333333164,0.397344266666662
-9.205940000000039,-2.1207651999999833,0.4260679499999953
-9.21870600000004,-2.216510799999983,0.5186220233333286
-9.23147200000004,-2.3122563999999834,0.6111760966666621
-9.244238000000038,-2.4080019999999833,0.7037301699999953
-9.244238000000037,-2.4080019999999838,0.7037301699999953
-9.282536333333372,-2.3441715999999837,0.534579606666662
-9.320834666666707,-2.280341199999984,0.36542904333332865
-9.35913300000004,-2.216510799999984,0.19627847999999526
-9.359133000000043,-2.216510799999984,0.19627847999999526
-9.783605000000042,-2.261192099999984,0.10372439833332858
-10.20807700000004,-2.305873399999984,0.011170316666661914
-10.63254900000004,-2.350554699999984,-0.08138376500000476
-10.63254900000004,-2.350554699999984,-0.08138376500000476
-11.09212800000004,-2.5356627999999843,-0.6526658433333381
-11.551707000000041,-2.7207708999999842,-1.2239479216666715
-12.011286000000041,-2.9058789999999846,-1.7952300000000048
-12.011286000000041,-2.9058789999999846,-1.7952300000000048
-11.61234600000004,-1.686718333333318,-2.2292768000000045
-11.21340600000004,-0.46755766666665116,-2.663323600000004
-10.814466000000039,0.7516030000000157,-3.097370400000004
-10.814466000000039,0.7516030000000157,-3.097370400000004
-11.669793333333374,-0.22819366666665108,-2.8899216000000045
-12.525120666666709,-1.207990333333318,-2.682472800000005
-13.380448000000044,-2.1877869999999846,-2.4750240000000057
-13.380448000000044,-2.1877869999999846,-2.4750240000000057
-12.68469666666671,-2.500555999999985,-2.7143880000000054
-11.988945333333376,-2.8133249999999848,-2.953752000000005
-11.293194000000042,-3.1260939999999846,-3.1931160000000047
-10.689997000000043,-2.162254909999985,-3.228222733333338
-10.086800000000045,-1.1984158199999848,-3.263329466666672
-9.483603000000045,-0.23457672999998472,-3.298436200000006
-9.483603000000045,-0.23457672999998472,-3.298436200000006
-8.78465986666671,-0.6143676199999848,-3.100561866666672
-8.085716733333376,-0.9941585099999849,-2.9026875333333386
-7.386773600000041,-1.373949399999985,-2.704813200000005
-7.386773600000041,-1.373949399999985,-2.704813200000005
-6.643149400000041,-1.3930985333333183,-2.640982800000005
-5.899525200000042,-1.4122476666666517,-2.577152400000005
-5.155901000000043,-1.431396799999985,-2.5133220000000054
-5.155901000000043,-1.431396799999985,-2.5133220000000054
-5.36015816666671,-1.3324596666666517,-1.9388484200000053
-5.564415333333376,-1.2335225333333184,-1.3643748400000053
-5.768672500000044,-1.1345853999999849,-0.7899012600000052
-5.768672500000044,-1.1345853999999849,-0.7899012600000052
-6.323997000000044,-1.3196935666666514,-0.2569173733333386
-6.879321500000043,-1.504801733333318,0.2760665133333281
-7.434646000000043,-1.6899098999999842,0.8090503999999948
-7.434646000000043,-1.689909899999984,0.8090503999999948
-8.503805333333377,-2.028210999999984,0.5377711733333282
-9.572964666666712,-2.366512099999984,0.2664919466666616
-10.642124000000045,-2.7048131999999843,-0.004787280000005056
-10.642124000000045,-2.7048131999999843,-0.0047872800000050555
-12.659165000000044,-3.0877956333333176,-0.6079845866666718
-14.676206000000043,-3.4707780666666506,-1.2111818933333385
-16.693247000000042,-3.853760499999984,-1.814379200000005
-16.693247000000042,-3.853760499999984,-1.814379200000005
-16.571968666666706,-3.6016304666666508,-1.5207593533333383
-16.450690333333373,-3.349500433333317,-1.2271395066666715
-16.329412000000044,-3.0973703999999835,-0.9335196600000047
-16.329412000000044,-3.0973703999999835,-0.9335196600000047
-14.302797000000046,-2.947368933333317,-0.3750036400000047
-12.276182000000047,-2.7973674666666497,0.18351237999999534
-10.249567000000047,-2.647365999999983,0.7420283999999953
-10.249567000000047,-2.6473659999999835,0.7420283999999953
-9.76764733333338,-2.848431799999983,0.5409626399999952
-9.285727666666716,-3.0494975999999827,0.33989687999999524
-8.803808000000052,-3.2505633999999826,0.13883111999999523
-8.803808000000052,-3.2505633999999817,0.13883111999999523
-8.162312533333386,-3.3335429333333146,0.33032233333332855
-7.520817066666719,-3.4165224666666476,0.5218135466666618
-6.879321600000053,-3.4995019999999806,0.7133047599999952
-6.879321600000053,-3.4995019999999806,0.7133047599999953
-6.0176112000000535,-2.835665733333314,0.9016044399999954
-5.155900800000054,-2.1718294666666473,1.0899041199999955
-4.294190400000054,-1.5079931999999807,1.2782037999999956
-4.294190400000054,-1.5079931999999807,1.2782037999999956
-5.072921266666719,-2.0697007999999806,0.7899012199999955
-5.851652133333385,-2.6314083999999807,0.3015986399999955
-6.630383000000051,-3.1931159999999807,-0.18670394000000454
-6.630383000000049,-3.1931159999999807,-0.18670394000000454
-7.82720300000005,-3.8218453333333144,0.2601089066666622
-9.02402300000005,-4.450574666666648,0.706921753333329
-10.22084300000005,-5.079303999999982,1.1537345999999957
-10.22084300000005,-5.079303999999982,1.1537345999999957
-12.017668833333381,-5.238880166666648,0.8664977666666625
-13.814494666666713,-5.398456333333314,0.5792609333333291
-15.611320500000046,-5.558032499999981,0.2920240999999957
-15.611320500000046,-5.558032499999981,0.29202409999999573
-16.26239066666671,-5.561223999999981,0.20266153399999573
-16.913460833333378,-5.56441549999998,0.11329896799999573
-17.56453100000004,-5.56760699999998,0.02393640199999573
-17.56453100000004,-5.56760699999998,0.02393640199999573
-16.33579566666671,-4.418659733333314,0.0750007246666624
-15.107060333333374,-3.269712466666648,0.12606504733332904
-13.878325000000041,-2.120765199999982,0.17712936999999573
-13.878325000000041,-2.120765199999982,0.1771293699999957
-11.947455333333375,-1.8367198999999816,0.11010744599999568
-10.016585666666709,-1.5526745999999816,0.04308552199999568
-8.085716000000042,-1.2686292999999813,-0.023936402000004325
-8.085716000000042,-1.2686292999999813,-0.023936402000004325
-6.978258666666709,-1.326076666666648,-0.06542616466667099
-5.870801333333375,-1.3835240333333145,-0.10691592733333766
-4.763344000000042,-1.4409713999999811,-0.14840569000000434
-4.763344000000043,-1.440971399999981,-0.14840569000000434
-4.7186626666667095,-0.914370559999981,-0.2633004100000043
-4.673981333333376,-0.387769719999981,-0.3781951300000043
-4.629300000000043,0.13883112000001904,-0.4930898500000043
-4.629300000000043,0.13883112000001904,-0.4930898500000043
-5.401647800000043,-0.020744886666647634,-0.6462828333333377
-6.173995600000043,-0.18032089333331427,-0.799475816666671
-6.946343400000043,-0.33989689999998096,-0.9526688000000044
-6.946343400000043,-0.33989689999998096,-0.9526688000000044
-8.711254100000044,-0.7292623333333142,-1.029265266666671
-10.476164800000046,-1.1186277666666478,-1.1058617333333376
-12.241075500000045,-1.507993199999981,-1.1824582000000041
-12.241075500000045,-1.507993199999981,-1.182458200000004
-13.721941000000045,-1.8271452333333145,-1.562249133333337
-15.202806500000046,-2.146297266666648,-1.9420400666666706
-16.683672000000048,-2.4654492999999813,-2.321831000000004
-16.683672000000048,-2.4654492999999813,-2.3218310000000044
-16.683672000000048,-2.4654492999999813,-2.3218310000000044
-16.252816666666718,-3.046305966666648,-1.9675722333333379
-15.821961333333386,-3.627162633333315,-1.6133134666666713
-15.391106000000052,-4.2080192999999815,-1.2590547000000047
-14.538970333333387,-3.9526976999999817,-1.0579889333333379
-13.68683466666672,-3.6973760999999814,-0.8569231666666712
-12.834699000000052,-3.442054499999981,-0.6558574000000045
-12.834699000000052,-3.442054499999981,-0.6558574000000045
-12.834699000000052,-3.442054499999981,-0.6558574000000045
-12.036818666666719,-3.378224133333315,-0.5441541866666713
-11.238938333333385,-3.314393766666648,-0.4324509733333379
-10.44105800000005,-3.2505633999999812,-0.3207477600000045
-10.44105800000005,-3.250563399999981,-0.32074776000000454
-9.518708766666718,-3.4388630666666473,-0.08138375333333786
-8.596359533333384,-3.6271627333333143,0.1579802533333288
-7.6740103000000515,-3.8154623999999813,0.39734425999999545
-7.010174200000051,-3.569715266666648,0.4101103399999954
-6.346338100000051,-3.323968133333315,0.4228764199999954
-5.682502000000052,-3.078220999999982,0.43564249999999544
-5.682502000000052,-3.0782209999999828,0.43564249999999544
-5.682502000000052,-3.0782209999999828,0.43564249999999544
-5.692076500000051,-3.4197137666666486,0.3941527333333288
-5.701651000000051,-3.761206533333315,0.35266296666666214
-5.71122550000005,-4.102699299999981,0.31117319999999554
-5.71122550000005,-4.102699299999981,0.31117319999999554
-7.281453333333384,-4.591001866666648,0.18989543999999556
-8.851681166666717,-5.0793044333333155,0.06861767999999556
-10.421909000000051,-5.567606999999982,-0.05266008000000444
-10.421909000000051,-5.567606999999982,-0.05266008000000444
-12.691080000000051,-5.347392133333316,-0.5154305200000046
-14.960251000000051,-5.12717726666665,-0.9782009600000046
-17.229422000000053,-4.906962399999984,-1.4409714000000047
-17.229422000000053,-4.906962399999984,-1.4409714000000047
-16.840056333333383,-4.520788433333318,-0.8154334333333378
-16.450690666666716,-4.134614466666651,-0.18989546666667115
-16.06132500000005,-3.7484404999999845,0.4356424999999955
-15.19961433333338,-3.0846042999999845,0.11010745333332882
-14.337903666666714,-2.4207680999999845,-0.21542759333333786
-13.476193000000046,-1.7569318999999846,-0.5409626400000046
-13.476193000000046,-1.7569318999999848,-0.5409626400000045
-13.476193000000046,-1.7569318999999848,-0.5409626400000045
-11.912348333333378,-1.7250166666666515,-0.8409655600000044
-10.34850366666671,-1.693101433333318,-1.1409684800000044
-8.784659000000042,-1.6611861999999846,-1.4409714000000047
-8.784659000000042,-1.6611861999999846,-1.4409714000000047
-7.721882866666711,-0.8856467999999845,-1.1218193666666711
-6.659106733333378,-0.11010739999998449,-0.8026673333333378
-5.596330600000047,0.6654320000000156,-0.48351530000000453
-5.596330600000047,0.6654320000000156,-0.48351530000000453
-5.229305733333381,0.19308700000001555,-0.2856410520000045
-4.862280866666714,-0.27925799999998446,-0.08776680400000454
-4.4952560000000465,-0.7516029999999846,0.11010744399999545
-4.4952560000000465,-0.7516029999999846,0.11010744399999545
-5.312285133333379,-0.6143676333333178,-0.49308987066667126
-6.129314266666712,-0.47713226666665115,-1.096287185333338
-6.946343400000045,-0.3398968999999845,-1.6994845000000043
-8.529337600000044,-0.5186220333333178,-1.6548032333333378
-10.112331800000044,-0.6973471666666512,-1.6101219666666708
-11.695326000000042,-0.8760722999999846,-1.5654407000000041
-11.695326000000042,-0.8760722999999846,-1.5654407000000041
-11.695326000000042,-0.8760722999999846,-1.5654407000000041
-12.936827000000042,-1.4952271999999847,-1.5016102666666706
-14.178328000000041,-2.1143820999999847,-1.4377798333333374
-15.41982900000004,-2.7335369999999846,-1.373949400000004
-15.41982900000004,-2.7335369999999846,-1.373949400000004
-15.362381666666707,-3.4324798999999846,-1.2845868666666709
-15.304934333333373,-4.131422799999984,-1.1952243333333377
-15.24748700000004,-4.830365699999985,-1.1058618000000047
-15.24748700000004,-4.830365699999985,-1.1058618000000047
-14.89003700000004,-4.514405199999984,-1.0388398466666715
-14.53258700000004,-4.198444699999984,-0.9718178933333381
-14.17513700000004,-3.882484199999983,-0.9047959400000049
-13.141084333333374,-3.7739724999999833,-0.8473485933333381
-12.107031666666707,-3.6654607999999835,-0.7899012466666714
-11.07297900000004,-3.5569490999999833,-0.7324539000000047
-11.072979000000037,-3.5569490999999833,-0.7324539000000044
-10.364461666666704,-3.57609826666665,-0.5760694066666712
-9.655944333333371,-3.5952474333333164,-0.4196849133333378
-8.947427000000038,-3.6143965999999828,-0.2633004200000044
-8.947427000000038,-3.6143965999999828,-0.2633004200000044
-8.050609666666702,-3.6399287333333157,-0.20585305666667109
-7.153792333333368,-3.665460866666649,-0.14840569333333775
-6.256975000000035,-3.6909929999999824,-0.09095833000000442
-6.256975000000035,-3.6909929999999824,-0.09095833000000442
-6.183570100000034,-3.5377999999999825,-0.30479018666667107
-6.110165200000034,-3.3846069999999817,-0.5186220433333377
-6.036760300000034,-3.2314139999999814,-0.7324539000000044
-6.036760300000036,-3.231413999999981,-0.7324539000000044
-6.036760300000036,-3.231413999999981,-0.7324539000000044
-6.467615533333368,-3.5377999999999807,-0.7324539000000044
-6.8984707666667004,-3.8441859999999806,-0.7324539000000044
-7.329326000000033,-4.15057199999998,-0.7324539000000044
-9.793179333333367,-4.632491533333314,-0.8601147000000043
-12.257032666666698,-5.114411066666647,-0.9877755000000041
-14.72088600000003,-5.5963305999999795,-1.115436300000004
-14.72088600000003,-5.596330599999978,-1.115436300000004
-14.72088600000003,-5.596330599999978,-1.115436300000004
-15.790045333333365,-5.056963666666645,-0.3367054000000041
-16.859204666666702,-4.517596733333312,0.44202549999999574
-17.928364000000037,-3.978229799999978,1.2207563999999955
-17.92836400000004,-3.978229799999978,1.2207563999999953
-18.15496200000004,-3.292052966666645,1.112244733333329
-18.38156000000004,-2.6058761333333114,1.0037330666666624
-18.608158000000042,-1.9196992999999782,0.895221399999996
-16.46664800000004,-0.6909640666666449,0.671814989999996
-14.325138000000038,0.5377711666666883,0.448408579999996
-12.183628000000036,1.7665064000000215,0.22500216999999603
-12.183628000000036,1.7665064000000215,0.22500216999999603
-12.183628000000036,1.7665064000000215,0.22500216999999603
-10.718720333333371,1.5303339000000216,0.0845752866666627
-9.253812666666704,1.2941614000000214,-0.05585159666667064
-7.788905000000038,1.0579889000000213,-0.196278480000004
-7.788905000000038,1.0579889000000213,-0.196278480000004
-5.861226766666704,1.5494830000000217,0.42287641333332937
-3.9335485333333704,2.040977100000022,1.0420313066666627
-2.0058703000000366,2.5324712000000216,1.6611861999999962
-2.0058703000000366,2.5324712000000216,1.6611861999999962
-2.6569404333333697,1.587781243333355,1.0069245766666628
-3.308010566666703,0.6430912866666882,0.3526629533333294
-3.9590807000000363,-0.3015986699999785,-0.30159867000000395
-3.9590807000000363,-0.3015986699999785,-0.30159867000000395
-5.181432900000035,-0.33989691333331185,-0.34308843000000394
-6.403785100000035,-0.3781951566666452,-0.384578190000004
-7.6261373000000345,-0.41649339999997853,-0.42606795000000397
-7.6261373000000345,-0.41649339999997853,-0.42606795000000397
-8.874021533333368,-0.9909670333333119,-0.18032090000000398
-10.121905766666702,-1.5654406666666452,0.06542614999999602
-11.369790000000036,-2.1399142999999783,0.311173199999996
-11.369790000000036,-2.1399142999999787,0.311173199999996
-14.114497333333368,-2.0952329666666456,-0.7452199333333374
-16.859204666666702,-2.0505516333333125,-1.8016130666666708
-19.603912000000033,-2.0058702999999793,-2.858006200000004
-19.287951333333364,-2.5963015333333126,-1.9994873133333375
-18.971990666666702,-3.186732766666646,-1.1409684266666709
-18.656030000000037,-3.7771639999999795,-0.28244954000000416
-18.65603000000004,-3.77716399999998,-0.28244954000000416
-18.65603000000004,-3.77716399999998,-0.28244954000000416
-16.658138666666705,-3.2186479999999804,-0.0047872933333374945
-14.660247333333373,-2.6601319999999804,0.2728749533333292
-12.66235600000004,-2.101615999999981,0.5505371999999958
-10.90702000000004,-2.3920443333333137,0.3111731966666625
-9.15168400000004,-2.6824726666666474,0.0718091933333292
-7.3963480000000414,-2.9729009999999807,-0.16755481000000408
-7.3963480000000414,-2.9729009999999807,-0.16755481000000408
-6.352720900000041,-3.193115866666647,-0.41649338666667074
-5.309093800000042,-3.413330733333314,-0.6654319633333374
-4.265466700000043,-3.63354559999998,-0.9143705400000042
-4.265466700000043,-3.63354559999998,-0.9143705400000041
-3.6048220000000426,-3.4899271999999804,-1.1441599933333373
-2.9441773000000424,-3.34630879999998,-1.3739494466666704
-2.2835326000000427,-3.2026903999999803,-1.6037389000000035
-2.2835326000000427,-3.2026903999999803,-1.6037389000000035
-3.368649400000043,-3.4516290333333135,-2.1175736666666705
-4.453766200000043,-3.7005676666666467,-2.631408433333337
-5.538883000000044,-3.94950629999998,-3.1452432000000035
-5.538883000000044,-3.94950629999998,-3.1452432000000035
-7.750606333333377,-4.227168533333313,-3.167583800000004
-9.962329666666712,-4.504830766666647,-3.189924400000004
-12.174053000000045,-4.78249299999998,-3.2122650000000044
-12.174053000000045,-4.78249299999998,-3.2122650000000044
-14.462373000000047,-4.140997399999981,-2.286724166666671
-16.750693000000044,-3.499501799999981,-1.3611833333333376
-19.039013000000043,-2.8580061999999806,-0.43564250000000443
-19.039013000000043,-2.8580061999999806,-0.43564250000000443
-19.102843666666715,-2.6920471333333142,0.3526629999999955
-19.166674333333386,-2.5260880666666474,1.1409684999999954
-19.230505000000054,-2.360128999999981,1.9292739999999953
-19.230505000000058,-2.360128999999981,1.9292739999999953
-16.951759333333392,-1.8175706333333146,2.2675751333333287
-14.673013666666726,-1.275012266666648,2.6058762666666624
-12.39426800000006,-0.7324538999999812,2.944177399999996
-12.394268000000062,-0.7324538999999811,2.944177399999996
-10.610208333333395,-0.6973471666666476,2.475023899999996
-8.826148666666729,-0.6622404333333142,2.005870399999996
-7.042089000000062,-0.6271336999999807,1.5367168999999958
-7.042089000000062,-0.6271336999999807,1.5367168999999958
-6.154846533333395,-0.4452170549999807,0.8920298466666626
-5.2676040666667285,-0.2633004099999807,0.24734279333332929
-4.380361600000062,-0.08138376499998075,-0.3973442600000041
-4.380361600000062,-0.08138376499998075,-0.3973442600000041
-4.364403900000062,-0.10372440666664744,-0.5664948200000041
-4.348446200000062,-0.1260650483333141,-0.7356453800000041
-4.3324885000000615,-0.1484056899999808,-0.9047959400000041
-4.3324885000000615,-0.1484056899999808,-0.9047959400000041
-5.155900766666728,-0.2856410466666474,-1.1282023600000042
-5.979313033333394,-0.4228764033333141,-1.351608780000004
-6.80272530000006,-0.5601117599999809,-1.5750152000000044
-6.80272530000006,-0.5601117599999809,-1.5750152000000044
-9.525091866666727,-1.7984215066666478,-2.025019566666671
-12.247458433333394,-3.036731253333315,-2.4750239333333375
-14.969825000000062,-4.275040999999982,-2.9250283000000046
-14.969825000000062,-4.275040999999981,-2.9250283000000046
-15.959196333333395,-4.686747166666648,-2.698430366666672
-16.94856766666673,-5.098453333333314,-2.4718324333333386
-17.93793900000006,-5.51015949999998,-2.245234500000005
-17.93793900000006,-5.51015949999998,-2.2452345000000045
-16.92303566666673,-4.948451999999981,-1.6643778166666714
-15.908132333333398,-4.386744499999981,-1.083521133333338
-14.893229000000067,-3.825036999999982,-0.5026644500000049
-14.893229000000067,-3.825036999999982,-0.5026644500000049
-13.185765666666734,-3.7675895666666483,-0.47394076666667156
-11.478302333333403,-3.710142133333315,-0.44521708333333826
-9.77083900000007,-3.6526946999999814,-0.41649340000000495
-9.770839000000068,-3.6526946999999814,-0.41649340000000495
-8.510188666666734,-3.9303569666666482,-0.250534345000005
-7.2495383333334,-4.208019233333315,-0.08457529000000497
-5.988888000000067,-4.4856814999999814,0.08138376499999504
-5.988888000000067,-4.4856814999999814,0.08138376499999504
-5.372924466666734,-3.882484266666648,0.0590431236666617
-4.7569609333334,-3.279287033333315,0.036702482333328366
-4.140997400000067,-2.6760897999999815,0.014361840999995032
-4.140997400000067,-2.6760897999999815,0.014361840999995032
-4.571852600000067,-2.982475699999982,0.12606504399999505
-5.002707800000067,-3.2888615999999815,0.23776824699999502
-5.433563000000067,-3.5952474999999815,0.3494714499999951
-5.433563000000067,-3.5952474999999815,0.3494714499999951
-7.5527323333334,-4.709087999999983,-0.3845782000000049
-9.671901666666734,-5.822928499999982,-1.1186278500000049
-11.791071000000068,-6.936768999999981,-1.8526775000000049
-11.791071000000068,-6.936768999999981,-1.8526775000000046
-13.575131000000068,-6.965492666666648,-1.2303310530000044
-15.359191000000067,-6.994216333333315,-0.6079846060000045
-17.143251000000067,-7.0229399999999815,0.01436184099999549
-17.143251000000067,-7.0229399999999815,0.01436184099999549
-17.143251000000067,-7.0229399999999815,0.01436184099999549
-16.929419000000063,-6.167612666666649,-0.1579802560000045
-16.715587000000063,-5.312285333333317,-0.3303223530000045
-16.501755000000063,-4.456957999999983,-0.5026644500000045
-15.190040000000062,-3.805887833333317,-0.8441571000000044
-13.87832500000006,-3.15481766666665,-1.1856497500000043
-12.56661000000006,-2.503747499999983,-1.5271424000000042
-12.56661000000006,-2.503747499999983,-1.5271424000000042
-12.56661000000006,-2.503747499999983,-1.5271424000000042
-11.171915666666726,-2.3537460333333162,-1.8718266000000041
-9.77722133333339,-2.20374456666665,-2.2165108000000044
-8.382527000000056,-2.0537430999999837,-2.5611950000000046
-8.382527000000056,-2.0537430999999837,-2.561195000000005
-7.575072666666723,-1.3803323866666501,-2.522896766666672
-6.767618333333389,-0.7069216733333169,-2.4845985333333385
-5.960164000000056,-0.03351095999998351,-2.4463003000000048
-5.29313623333339,-0.07500072333331684,-2.0984245666666714
-4.626108466666724,-0.11649048666665018,-1.7505488333333383
-3.959080700000058,-0.1579802499999835,-1.402673100000005
-3.959080700000058,-0.15798024999998347,-1.4026731000000054
-3.959080700000058,-0.15798024999998347,-1.4026731000000054
-5.191007466666725,-0.9909669999999835,-1.9292739000000054
-6.4229342333333905,-1.8239537499999836,-2.4558747000000056
-7.654861000000057,-2.6569404999999837,-2.9824755000000054
-7.654861000000057,-2.6569404999999837,-2.9824755000000054
-10.88467933333339,-3.1707753333333173,-3.879292666666672
-14.114497666666722,-3.68461016666665,-4.776109833333339
-17.344316000000052,-4.198444999999983,-5.672927000000006
-17.344316000000056,-4.198444999999983,-5.672927000000006
-17.344316000000056,-4.198444999999983,-5.672927000000006
-17.344316000000056,-4.198444999999983,-5.672927000000006
-17.344316000000056,-4.198444999999983,-5.672927000000006
-15.745364500000058,-4.144189133333317,-4.07716693333334
-14.14641300000006,-4.089933266666651,-2.481406866666673
-12.547461500000061,-4.035677399999984,-0.8856468000000065
-12.547461500000063,-4.035677399999984,-0.8856468000000065
-11.743198333333396,-3.914399599999984,-0.8154333666666731
-10.93893516666673,-3.793121799999984,-0.7452199333333397
-10.134672000000062,-3.6718439999999837,-0.6750065000000064
-10.13467200000006,-3.6718439999999837,-0.6750065000000064
-9.904882666666728,-3.783547233333317,-0.4962813733333397
-9.675093333333393,-3.8952504666666505,-0.3175562466666731
-9.445304000000059,-4.0069536999999835,-0.1388311200000064
-9.67828500000006,-3.8856758999999834,-0.1547887266666731
-9.91126600000006,-3.7643980999999833,-0.17074633333333977
-10.144247000000059,-3.643120299999983,-0.18670394000000645
-10.144247000000059,-3.643120299999983,-0.18670394000000645
-10.144247000000059,-3.643120299999983,-0.18670394000000645
-10.307014333333392,-3.73248286666665,0.2218106399999936
-10.469781666666725,-3.821845433333317,0.6303252199999937
-10.632549000000056,-3.911207999999984,1.0388397999999937
-10.913403000000057,-4.096315999999983,0.6941556266666602
-11.194257000000057,-4.281423999999983,0.3494714533333268
-11.475111000000057,-4.466531999999982,0.004787279999993436
-11.475111000000057,-4.466531999999982,0.0047872799999934355
-11.988945666666725,-4.3069561333333155,-0.56649481333334
-12.502780333333392,-4.147380266666649,-1.1377769066666732
-13.01661500000006,-3.9878043999999826,-1.7090590000000068
-13.01661500000006,-3.9878043999999826,-1.7090590000000068
-13.01661500000006,-3.9878043999999826,-1.7090590000000068
-12.55703600000006,-2.8867299666666493,-1.9548061000000068
-12.09745700000006,-1.7856555333333162,-2.2005532000000065
-11.63787800000006,-0.6845810999999827,-2.4463003000000065
-12.42299200000006,-0.8633061999999826,-2.605876300000007
-13.20810600000006,-1.0420312999999826,-2.765452300000007
-13.99322000000006,-1.2207563999999822,-2.925028300000007
-13.99322000000006,-1.2207563999999824,-2.925028300000007
-13.153850333333393,-1.6260794666666492,-2.995241700000007
-12.314480666666725,-2.0314025333333157,-3.065455100000007
-11.475111000000057,-2.4367255999999826,-3.135668500000007
-11.475111000000057,-2.436725599999982,-3.135668500000007
-10.945318666666724,-2.0314025333333157,-3.071838133333341
-10.415526333333391,-1.626079466666649,-3.0080077666666742
-9.885734000000058,-1.2207563999999822,-2.9441774000000076
-9.885734000000058,-1.2207563999999824,-2.9441774000000067
-9.521900333333392,-1.0930956133333158,-2.947368866666673
-9.158066666666725,-0.9654348266666491,-2.950560333333339
-8.794233000000057,-0.8377740399999826,-2.953751800000005
-8.794233000000057,-0.8377740399999825,-2.953751800000005
-8.465506666666725,-0.8824553266666492,-2.663323466666672
-8.136780333333391,-0.927136613333316,-2.3728951333333383
-7.808054000000058,-0.9718178999999827,-2.082466800000005
-7.482519000000058,-1.1696921666666493,-1.7377826333333382
-7.156984000000058,-1.367566433333316,-1.3930984666666717
-6.831449000000059,-1.5654406999999828,-1.048414300000005
-6.831449000000059,-1.5654406999999828,-1.0484143000000048
-6.831449000000059,-1.5654406999999828,-1.0484143000000048
-7.3165600000000595,-1.696292999999983,-1.0707549666666714
-7.80167100000006,-1.827145299999983,-1.093095633333338
-8.286782000000061,-1.9579975999999835,-1.1154363000000045
-8.81976600000006,-2.3792782999999833,-1.0835210666666713
-9.352750000000059,-2.8005589999999834,-1.0516058333333378
-9.885734000000058,-3.221839699999983,-1.0196906000000043
-9.885734000000058,-3.221839699999983,-1.0196906000000043
-10.50808033333339,-2.972901133333316,-1.1154362000000047
-11.130426666666724,-2.72396256666665,-1.2111818000000047
-11.752773000000056,-2.4750239999999835,-1.3069274000000048
-11.752773000000056,-2.475023999999984,-1.3069274000000048
-11.720857666666724,-2.3888529333333173,-1.1058616566666715
-11.688942333333392,-2.3026818666666506,-0.9047959133333382
-11.657027000000058,-2.2165107999999845,-0.7037301700000048
-11.657027000000058,-2.2165107999999845,-0.7037301700000048
-11.388939333333392,-2.2707665999999844,-0.4324509653333381
-11.120851666666725,-2.3250223999999844,-0.16117176066667138
-10.85276400000006,-2.3792781999999844,0.1101074439999953
-10.85276400000006,-2.3792781999999844,0.1101074439999953
-10.75382700000006,-2.506939033333318,0.1643632893333286
-10.65489000000006,-2.6345998666666515,0.21861913466666194
-10.555953000000061,-2.762260699999985,0.27287497999999527
-10.555953000000061,-2.762260699999985,0.27287497999999527
-10.074033333333395,-2.676089633333318,0.32713081999999527
-9.592113666666727,-2.589918566666651,0.38138665999999527
-9.110194000000059,-2.503747499999984,0.43564249999999527
-9.110194000000059,-2.503747499999984,0.43564249999999527
-8.992108000000059,-2.637791333333318,0.49308986666666194
-8.874022000000059,-2.7718351666666514,0.5505372333333287
-8.755936000000057,-2.905878999999985,0.6079845999999953
-8.934660666666725,-3.087795666666652,0.5345796333333287
-9.113385333333392,-3.2697123333333185,0.461174666666662
-9.29211000000006,-3.451628999999985,0.38776969999999533
-9.29211000000006,-3.451628999999985,0.38776969999999533
-10.632548666666727,-3.4771611333333183,0.09095831666666199
-11.972987333333393,-3.5026932666666517,-0.20585306666667136
-13.313426000000058,-3.5282253999999846,-0.5026644500000047
-13.313426000000058,-3.5282253999999846,-0.5026644500000046
-12.413417333333392,-2.526088133333318,-0.3015986733333379
-11.513408666666725,-1.5239508666666512,-0.1005328966666712
-10.613400000000057,-0.5218135999999843,0.10053287999999548
-10.613400000000057,-0.5218135999999843,0.10053287999999548
-11.669793000000057,-0.9303281333333177,-0.5792609133333378
-12.726186000000057,-1.338842666666651,-1.259054706666671
-13.782579000000057,-1.7473571999999844,-1.9388485000000044
-13.782579000000057,-1.7473571999999844,-1.9388485000000044
-13.782579000000057,-1.7473571999999844,-1.9388485000000044
-13.185765000000059,-2.1654463333333176,-1.8877841666666713
-12.588951000000058,-2.583535466666651,-1.8367198333333379
-11.992137000000058,-3.001624599999984,-1.7856555000000045
-10.980425333333393,-2.414384933333318,-1.492035646666671
-9.968713666666728,-1.8271452666666512,-1.1984157933333377
-8.957002000000061,-1.2399055999999846,-0.9047959400000044
-8.957002000000061,-1.2399055999999844,-0.9047959400000044
-8.331463866666729,-1.3675663999999845,-1.0707549933333376
-7.705925733333395,-1.4952271999999844,-1.2367140466666708
-7.080387600000059,-1.6228879999999843,-1.4026731000000041
-7.080387600000059,-1.6228879999999843,-1.4026731000000041
-6.799533833333393,-1.5430999999999842,-1.0867126133333376
-6.518680066666726,-1.4633119999999842,-0.7707521266666708
-6.2378263000000596,-1.3835239999999842,-0.4547916400000041
-6.237826300000059,-1.3835239999999842,-0.4547916400000041
-5.797396533333391,-1.1218193333333175,-0.4069188266666708
-5.356966766666723,-0.8601146666666509,-0.35904601333333747
-4.916537000000056,-0.5984099999999842,-0.3111732000000041
-4.916537000000056,-0.5984099999999842,-0.3111732000000041
-5.273987333333388,-0.8441570666666508,-0.33032232333333744
-5.63143766666672,-1.0899041333333173,-0.3494714466666708
-5.988888000000053,-1.3356511999999838,-0.3686205700000041
-5.988888000000053,-1.3356511999999838,-0.3686205700000041
-6.920811666666719,-1.568632133333317,-0.4196849133333374
-7.852735333333386,-1.8016130666666503,-0.4707492566666707
-8.784659000000053,-2.0345939999999834,-0.5218136000000041
-8.784659000000055,-2.034593999999983,-0.5218136000000041
-10.81765766666672,-2.2707665333333167,-0.05904316666667083
-12.850656333333388,-2.50693906666665,0.4037272666666625
-14.883655000000054,-2.7431115999999833,0.8664976999999959
-14.883655000000054,-2.7431115999999833,0.8664976999999959
-15.158125666666722,-2.5835355999999834,0.5090474533333292
-15.432596333333391,-2.4239595999999834,0.15159720666666254
-15.707067000000059,-2.264383599999983,-0.20585304000000412
-15.707067000000059,-2.264383599999983,-0.20585304000000412
-14.886846333333393,-2.3409800666666496,-0.16117176000000413
-14.066625666666726,-2.417576533333316,-0.11649048000000412
-13.24640500000006,-2.4941729999999827,-0.07180920000000413
-13.246405000000061,-2.4941729999999827,-0.07180920000000413
-11.953839333333397,-2.9729009999999825,-0.004787280000004127
-10.661273666666728,-3.4516289999999827,0.06223463999999587
-9.368708000000064,-3.930356999999983,0.12925655999999588
-8.586785333333395,-4.26546666666665,0.055851596666662534
-7.804862666666729,-4.600576333333316,-0.0175533666666708
-7.022940000000062,-4.935685999999983,-0.09095833000000413
-7.022940000000062,-4.935685999999983,-0.09095833000000413
-7.022940000000062,-4.935685999999983,-0.09095833000000413
-6.419742800000063,-4.0580178999999825,0.23457671333332922
-5.816545600000064,-3.180349799999983,0.5601117566666626
-5.213348400000065,-2.302681699999983,0.885646799999996
-5.213348400000065,-2.302681699999983,0.885646799999996
-5.86441836666673,-2.0665092666666496,1.0675634666666625
-6.515488333333397,-1.830336833333316,1.2494801333333292
-7.166558300000062,-1.5941643999999826,1.4313967999999957
-8.644232200000063,-2.1399142666666493,1.4282052666666625
-10.121906100000063,-2.6856641333333164,1.4250137333333293
-11.599580000000062,-3.231413999999983,1.421822199999996
-11.59958000000006,-3.231413999999983,1.421822199999996
-11.59958000000006,-3.231413999999983,1.421822199999996
-13.840026666666725,-3.5473744999999837,0.9111789853333295
-16.08047333333339,-3.8633349999999838,0.4005357706666628
-18.320920000000058,-4.179295499999984,-0.1101074440000039
-17.61559433333339,-3.987804333333317,-0.06861768233333725
-16.910268666666724,-3.7963131666666503,-0.02712792066667058
-16.204943000000057,-3.604821999999984,0.014361840999996087
-16.204943000000057,-3.604821999999984,0.014361840999996087
-15.662385000000057,-3.4452459999999836,-0.1643633060000039
-15.119827000000058,-3.2856699999999837,-0.34308845300000385
-14.577269000000058,-3.1260939999999837,-0.5218136000000039
-14.577269000000058,-3.1260939999999837,-0.5218136000000039
-14.577269000000058,-3.1260939999999837,-0.5218136000000039
-14.577269000000058,-3.1260939999999837,-0.5218136000000039
-14.577269000000058,-3.1260939999999837,-0.5218136000000039
-14.577269000000058,-3.1260939999999837,-0.5218136000000039
-11.803837666666723,-2.178212513333317,-0.6175592000000039
-9.030406333333389,-1.23033102666665,-0.713304800000004
-6.256975000000054,-0.2824495399999834,-0.8090504000000038
-6.256975000000054,-0.2824495399999834,-0.8090504000000038
-6.2952733333333875,-0.3526629766666501,-0.8984129666666706
-6.333571666666721,-0.42287641333331677,-0.9877755333333375
-6.3718700000000545,-0.49308984999998345,-1.0771381000000042
-6.3718700000000545,-0.49308984999998345,-1.0771381000000044
-6.588893333333387,-0.2888325633333168,-1.0579889333333377
-6.805916666666719,-0.08457527666665011,-1.0388397666666709
-7.022940000000052,0.11968201000001655,-1.019690600000004
-7.022940000000052,0.11968201000001655,-1.019690600000004
-7.552732333333386,-0.15798024666665011,-0.9399026200000042
-8.08252466666672,-0.4356425033333167,-0.8601146400000044
-8.612317000000052,-0.7133047599999834,-0.7803266600000045
-8.612317000000052,-0.7133047599999834,-0.7803266600000045
-9.729349000000054,-1.1409684399999833,-0.9558602400000046
-10.846381000000052,-1.5686321199999835,-1.1313938200000047
-11.963413000000052,-1.9962957999999837,-1.3069274000000046
-12.933635333333385,-2.711196333333317,-1.4665034333333378
-13.903857666666719,-3.4260968666666503,-1.6260794666666711
-14.874080000000054,-4.140997399999983,-1.7856555000000043
-14.874080000000054,-4.140997399999983,-1.7856555000000043
-14.874080000000054,-4.140997399999983,-1.7856555000000043
-14.953867666666723,-4.361212266666651,-1.651611666666671
-15.033655333333387,-4.581427133333317,-1.5175678333333378
-15.113443000000053,-4.801641999999984,-1.3835240000000046
-14.596417000000054,-4.351637666666651,-1.0835211000000045
-14.079391000000053,-3.9016333333333173,-0.7835182000000045
-13.562365000000051,-3.451628999999984,-0.48351530000000453
-13.562365000000051,-3.451628999999984,-0.48351530000000453
-13.562365000000051,-3.451628999999984,-0.48351530000000453
-12.397460000000052,-3.6750353333333172,-0.3335138533333379
-11.232555000000053,-3.8984416666666504,-0.18351240666667124
-10.067650000000052,-4.121847999999983,-0.033510960000004565
-10.067650000000052,-4.121847999999983,-0.033510960000004565
-9.253812433333385,-3.8792925666666505,-0.13563960666667124
-8.439974866666716,-3.6367371333333174,-0.23776825333333793
-7.626137300000049,-3.3941816999999843,-0.33989690000000455
-7.626137300000049,-3.3941816999999843,-0.33989690000000455
-7.689967666666715,-3.438862933333317,-0.3877697000000046
-7.753798033333382,-3.4835441666666505,-0.43564250000000454
-7.817628400000049,-3.5282253999999837,-0.4835153000000045
-8.583593266666716,-3.91439946666665,-0.7292623333333377
-9.349558133333383,-4.300573533333317,-0.9750093666666708
-10.11552300000005,-4.6867475999999835,-1.220756400000004
-10.11552300000005,-4.6867475999999835,-1.220756400000004
-10.945318333333384,-5.0122825666666495,-0.9399026466666709
-11.775113666666718,-5.3378175333333155,-0.6590488933333377
-12.604909000000049,-5.663352499999982,-0.3781951400000045
-12.604909000000049,-5.663352499999981,-0.3781951400000045
-13.281511333333382,-5.0665382666666465,-0.11010744333333781
-13.958113666666714,-4.469724033333313,0.15798025333332885
-14.634716000000047,-3.8729097999999804,0.4260679499999955
-14.634716000000047,-3.8729097999999804,0.4260679499999955
-15.142167333333381,-3.3814156999999803,0.07500073333332884
-15.649618666666717,-2.88992159999998,-0.2760664833333378
-16.15707000000005,-2.3984274999999804,-0.6271337000000045
-16.15707000000005,-2.3984274999999804,-0.6271337000000043
-16.15707000000005,-2.3984274999999804,-0.6271337000000043
-14.050667000000052,-1.7282082333333133,-0.28883256666667106
-11.944264000000052,-1.0579889666666467,0.04946856666666225
-9.837861000000052,-0.38776969999998007,0.38776969999999555
-9.209131533333386,-0.5058559333333135,0.2154276133333289
-8.580402066666718,-0.6239421666666468,0.043085526666662245
-7.951672600000051,-0.7420283999999802,-0.1292565600000044
-7.951672600000051,-0.7420283999999802,-0.1292565600000044
-7.472944400000052,-0.2920240666666468,-0.3686205733333377
-6.994216200000053,0.15798026666668652,-0.607984586666671
-6.515488000000054,0.6079846000000199,-0.8473486000000042
-6.515488000000054,0.6079846000000199,-0.8473486000000042
-6.515488000000054,0.6079846000000199,-0.8473486000000042
-7.086770333333387,0.4069188266666865,-0.8154334000000043
-7.658052666666721,0.20585305333335313,-0.7835182000000044
-8.229335000000054,0.004787280000019785,-0.7516030000000044
-8.602742666666721,-0.05266008333331355,-0.8792638000000043
-8.976150333333388,-0.11010744666664689,-1.006924600000004
-9.349558000000057,-0.1675548099999802,-1.134585400000004
-9.349558000000057,-0.16755480999998026,-1.134585400000004
-11.162341666666721,-0.9047959399999804,-1.4665034666666708
-12.975125333333388,-1.6420370699999804,-1.7984215333333375
-14.787909000000054,-2.3792781999999804,-2.130339600000004
-14.787909000000054,-2.3792781999999804,-2.130339600000004
-14.73684466666672,-2.328213866666647,-1.945231466666671
-14.685780333333385,-2.2771495333333136,-1.7601233333333377
-14.634716000000052,-2.2260851999999804,-1.5750152000000044
-14.634716000000052,-2.2260851999999804,-1.5750152000000044
-14.060242333333386,-2.4845983333333135,-1.1250108566666708
-13.485768666666722,-2.743111466666647,-0.6750065133333374
-12.911295000000058,-3.00162459999998,-0.225002170000004
-12.911295000000058,-3.00162459999998,-0.225002170000004
-12.58575983333339,-3.0686465333333133,-0.301598660000004
-12.260224666666721,-3.135668466666647,-0.37819515000000403
-11.934689500000053,-3.2026903999999803,-0.45479164000000405
-11.934689500000053,-3.2026903999999803,-0.45479164000000405
-11.095319666666718,-3.193115933333314,-0.2569173866666707
-10.255949833333387,-3.183541466666647,-0.05904313333333735
-9.416580000000055,-3.17396699999998,0.13883111999999598
-9.416580000000057,-3.1739669999999798,0.13883111999999598
-8.605934000000056,-2.9729011666666465,0.14840568333332935
-7.795288000000055,-2.771835333333313,0.1579802466666627
-6.984642000000055,-2.57076949999998,0.16755480999999606
-7.045280766666721,-2.81013349999998,0.15159720999999607
-7.105919533333387,-3.0494974999999798,0.13563960999999605
-7.166558300000053,-3.2888614999999795,0.11968200999999606
-7.166558300000053,-3.2888614999999795,0.11968200999999606
-7.166558300000053,-3.2888614999999795,0.11968200999999606
-7.910182533333386,-3.72609979999998,0.06223464666666273
-8.653806766666719,-4.16333809999998,0.004787283333329395
-9.397431000000052,-4.600576399999981,-0.05266008000000394
-11.06978766666672,-4.463341066666647,-0.4420255200000038
-12.742144333333387,-4.326105733333313,-0.8313909600000037
-14.414501000000056,-4.188870399999979,-1.2207564000000035
-14.414501000000056,-4.188870399999979,-1.2207564000000037
-15.004932333333391,-4.058018033333313,-0.6781979933333372
-15.595363666666723,-3.927165666666646,-0.13563958666667064
-16.185795000000056,-3.7963132999999787,0.40691881999999585
-16.185795000000056,-3.7963132999999787,0.40691881999999585
-16.511330000000058,-3.2633294333333125,0.25372585333332925
-16.83686500000006,-2.730345566666646,0.10053288666666256
-17.162400000000062,-2.197361699999979,-0.052660080000004106
-17.162400000000062,-2.197361699999979,-0.052660080000004106
-15.426212666666729,-1.7633149333333125,-0.16436328666667077
-13.690025333333395,-1.3292681666666457,-0.27606649333333744
-11.953838000000061,-0.8952213999999789,-0.38776970000000405
-11.953838000000061,-0.8952213999999789,-0.38776970000000405
-10.396376333333395,-0.9941585333333123,-0.14202265000000405
-8.83891466666673,-1.0930956666666456,0.10372439999999594
-7.281453000000063,-1.192032799999979,0.34947144999999596
-6.997407833333398,-1.0803295866666454,0.1867039266666626
-6.7133626666667325,-0.9686263733333118,0.023936403333329286
-6.429317500000067,-0.8569231599999784,-0.13883112000000405
-6.429317500000067,-0.8569231599999784,-0.13883112000000405
-6.359104000000066,-0.7994758066666451,-0.2090445633333374
-6.288890500000065,-0.7420284533333117,-0.2792580066666707
-6.2186770000000635,-0.6845810999999783,-0.349471450000004
-6.2186770000000635,-0.6845810999999783,-0.349471450000004
-7.128260333333398,-1.795230066666645,-0.6047930666666707
-8.037843666666733,-2.905879033333312,-0.8601146833333374
-8.947427000000069,-4.01652799999998,-1.115436300000004
-8.947427000000069,-4.01652799999998,-1.115436300000004
-10.1027573333334,-4.220785333333313,-1.4473544000000043
-11.258087666666732,-4.425042666666646,-1.7792725000000045
-12.413418000000064,-4.629299999999979,-2.1111906000000045
-12.413418000000064,-4.629299999999979,-2.1111906000000045
-12.158096000000064,-4.571852666666646,-1.3548003166666713
-11.902774000000065,-4.514405333333312,-0.5984100333333378
-11.647452000000065,-4.456957999999979,0.15798024999999574
-11.647452000000065,-4.456957999999979,0.15798024999999577
-11.870858666666733,-4.3803615333333115,-0.07819223333333754
-12.094265333333398,-4.303765066666645,-0.3143647166666708
-12.317672000000066,-4.2271685999999775,-0.5505372000000042
-12.499588666666732,-4.112273799999978,-0.5377711333333375
-12.681505333333398,-3.9973789999999787,-0.5250050666666709
-12.863422000000064,-3.882484199999979,-0.5122390000000042
-12.863422000000064,-3.882484199999979,-0.5122390000000042
-12.863422000000064,-3.882484199999979,-0.5122390000000042
-12.355970333333397,-4.042060233333312,-0.3845781866666709
-11.848518666666733,-4.201636266666644,-0.25691737333333753
-11.341067000000066,-4.361212299999977,-0.12925656000000418
-10.230418000000064,-4.086741533333311,-0.24734280666667086
-9.119769000000064,-3.8122707666666433,-0.36542905333333753
-8.009120000000065,-3.5377999999999763,-0.48351530000000426
-8.009120000000065,-3.537799999999976,-0.48351530000000426
-7.916565900000066,-3.3335427666666426,-0.5505372333333375
-7.824011800000066,-3.1292855333333094,-0.6175591666666708
-7.731457700000067,-2.925028299999976,-0.684581100000004
-7.731457700000067,-2.925028299999976,-0.684581100000004
-7.9676301333334,-3.454820633333309,-0.26968348000000414
-8.203802566666733,-3.984612966666642,0.1452141399999958
-8.439975000000068,-4.514405299999975,0.5601117599999957
-8.439975000000066,-4.514405299999975,0.5601117599999959
-10.3995683333334,-4.5431289999999755,0.30798167999999587
-12.359161666666731,-4.571852699999976,0.05585159999999589
-14.318755000000062,-4.6005763999999765,-0.1962784800000041
-14.318755000000062,-4.6005763999999765,-0.1962784800000041
-15.091103333333399,-3.9878044999999767,-0.13244808000000408
-15.863451666666734,-3.3750325999999773,-0.06861768000000408
-16.63580000000007,-2.7622606999999775,-0.004787280000004075
-16.63580000000007,-2.7622606999999775,-0.004787280000004075
-16.23366800000007,-2.570769466666644,0.0015957603333292582
-15.83153600000007,-2.3792782333333107,0.007978800666662593
-15.429404000000071,-2.187786999999977,0.014361840999995925
-15.429404000000071,-2.187786999999977,0.014361840999995925
-14.258116333333405,-1.897358699999977,-0.13244808933333738
-13.086828666666738,-1.606930399999977,-0.2792580196666707
-11.91554100000007,-1.316502099999977,-0.426067950000004
-10.412334800000073,-1.0388398333333102,-0.16436330000000407
-8.909128600000074,-0.7611775666666437,0.09734134999999593
-7.405922400000075,-0.48351529999997706,0.3590459999999959
-7.405922400000075,-0.483515299999977,0.3590459999999959
-7.405922400000075,-0.483515299999977,0.3590459999999959
-6.834640266666741,-0.652665879999977,0.39734424333332924
-6.263358133333408,-0.821816459999977,0.4356424866666626
-5.692076000000074,-0.990967039999977,0.473940729999996
-5.641011666666739,-0.9430942266666437,0.26649192333332933
-5.589947333333406,-0.8952214133333104,0.05904311666666264
-5.538883000000072,-0.847348599999977,-0.14840569000000403
-5.538883000000072,-0.847348599999977,-0.14840569000000403
-5.580372833333406,-1.233522499999977,-0.2856410466666707
-5.621862666666741,-1.6196963999999767,-0.42287640333333737
-5.663352500000076,-2.0058702999999767,-0.5601117600000041
-5.663352500000076,-2.0058702999999767,-0.5601117600000042
-7.900608000000074,-3.40694773333331,-0.8154333733333375
-10.137863500000073,-4.808025166666643,-1.070754986666671
-12.37511900000007,-6.209102599999976,-1.3260766000000046
-12.37511900000007,-6.209102599999976,-1.3260766000000046
-13.042147000000071,-5.270795633333309,-0.9399026700000045
-13.709175000000073,-4.3324886666666425,-0.5537287400000045
-14.376203000000075,-3.3941816999999754,-0.16755481000000438
-14.376203000000075,-3.3941816999999754,-0.16755481000000438
-14.357053666666738,-3.6558862999999753,-0.10691592633333773
-14.337904333333404,-3.917590899999975,-0.04627704266667106
-14.318755000000067,-4.1792954999999745,0.014361840999995606
-14.318755000000067,-4.1792954999999745,0.014361840999995606
-13.64853600000007,-4.275040999999974,0.09414984733332894
-12.97831700000007,-4.370786499999974,0.17393785366666228
-12.308098000000072,-4.466531999999973,0.2537258599999956
-11.465536666666738,-4.195252899999972,0.22819369666666223
-10.622975333333406,-3.9239737999999726,0.2026615333333289
-9.780414000000071,-3.652694699999973,0.17712936999999554
-9.780414000000071,-3.652694699999973,0.17712936999999554
-8.86763900000007,-3.758014899999973,0.2090445733333289
-7.954864000000069,-3.8633350999999734,0.24095977666666224
-7.042089000000069,-3.9686552999999734,0.2728749799999956
-7.042089000000069,-3.9686552999999734,0.27287497999999555
-6.652723666666737,-3.7101421999999733,0.20266153466666223
-6.263358333333404,-3.4516290999999732,0.13244808933332888
-5.873993000000071,-3.193115999999973,0.062234643999995565
-5.873993000000072,-3.193115999999973,0.062234643999995565
-6.23463476666674,-3.2697124666666397,-0.07819223733333776
-6.595276533333407,-3.3463089333333063,-0.21861911866667108
-6.955918300000074,-3.422905399999973,-0.3590460000000045
-6.955918300000074,-3.422905399999973,-0.3590460000000045
-8.13039786666674,-3.7899301666666396,-0.40691881666667123
-9.304877433333408,-4.1569549333333065,-0.4547916333333379
-10.479357000000073,-4.523979699999974,-0.5026644500000045
-10.479357000000073,-4.523979699999974,-0.5026644500000045
-12.76767666666674,-4.83994026666664,-0.4164934000000044
-15.055996333333406,-5.155900833333307,-0.33032235000000437
-17.344316000000074,-5.471861399999973,-0.24415130000000437
-17.344316000000074,-5.471861399999973,-0.24415130000000437
-17.117718000000075,-4.750577799999973,-0.40372730000000434
-16.891120000000075,-4.029294199999973,-0.5633033000000044
-16.664522000000073,-3.308010599999973,-0.7228793000000043
-16.511329000000075,-2.363320643333307,-1.1824582000000043
-16.358136000000073,-1.4186306866666403,-1.6420371000000042
-16.20494300000007,-0.4739407299999736,-2.1016160000000044
-16.20494300000007,-0.4739407299999736,-2.101616000000005
-16.20494300000007,-0.4739407299999736,-2.101616000000005
-13.721940666666738,-0.4867068199999736,-1.9069333000000046
-11.238938333333403,-0.49947290999997357,-1.7122506000000044
-8.75593600000007,-0.5122389999999736,-1.5175679000000042
-7.91337450000007,-1.3356511666666402,-1.3516088000000044
-7.0708130000000695,-2.159063333333307,-1.1856497000000044
-6.22825150000007,-2.9824754999999743,-1.0196906000000043
-6.22825150000007,-2.9824754999999743,-1.0196906000000043
-6.276124333333404,-2.392044299999974,-1.2654377000000048
-6.3239971666667385,-1.8016130999999742,-1.511184800000005
-6.371870000000072,-1.2111818999999742,-1.7569319000000052
-6.371870000000072,-1.2111818999999742,-1.7569319000000057
-6.075058666666739,-1.7058675333333078,-1.4633120333333387
-5.778247333333407,-2.200553166666641,-1.1696921666666718
-5.481436000000073,-2.695238799999975,-0.8760723000000051
-5.481436000000073,-2.695238799999975,-0.8760723000000051
-6.352721000000074,-2.8675808666666414,-1.0643720000000052
-7.224006000000074,-3.039922933333308,-1.2526717000000052
-8.095291000000074,-3.212264999999975,-1.4409714000000051
-8.095291000000076,-3.212264999999975,-1.4409714000000051
-9.432538000000076,-3.8537605666666415,-1.9037417666666716
-10.769785000000075,-4.495256133333307,-2.366512133333338
-12.107032000000075,-5.136751699999974,-2.8292825000000046
-13.453853000000075,-5.22292266666664,-2.037785546666671
-14.800674000000077,-5.3090936333333065,-1.2462885933333376
-16.147495000000077,-5.395264599999973,-0.45479164000000444
-16.147495000000077,-5.395264599999973,-0.45479164000000444
-16.147495000000077,-5.395264599999973,-0.45479164000000444
-15.301742666666742,-4.61334226666664,-0.5888354800000044
-14.455990333333409,-3.8314199333333074,-0.7228793200000044
-13.610238000000074,-3.0494975999999743,-0.8569231600000045
-12.805975000000073,-3.1675837666666413,-0.6909641066666712
-12.00171200000007,-3.285669933333308,-0.5250050533333379
-11.19744900000007,-3.4037560999999745,-0.3590460000000046
-11.19744900000007,-3.4037560999999745,-0.3590460000000046
-10.875105333333403,-3.483544166666641,-0.33989689000000456
-10.552761666666738,-3.5633322333333073,-0.32074778000000453
-10.230418000000071,-3.6431202999999734,-0.30159867000000457
-10.230418000000071,-3.6431202999999734,-0.30159867000000457
-10.830424000000072,-3.856952199999974,-0.2537258633333379
-11.430430000000072,-4.070784099999975,-0.20585305666667128
-12.030436000000073,-4.284615999999976,-0.15798025000000462
-12.030436000000073,-4.284615999999976,-0.15798025000000462
-12.03362716666674,-4.3739784666666415,0.03989399999999538
-12.036818333333407,-4.463340933333308,0.23776824999999535
-12.040009500000075,-4.552703399999975,0.4356424999999953
-12.040009500000076,-4.552703399999975,0.4356424999999953
-12.384693666666744,-4.530362766666641,0.2122360899999954
-12.72937783333341,-4.5080221333333075,-0.0111703200000046
-13.074062000000078,-4.485681499999974,-0.2345767300000046
-13.074062000000078,-4.485681499999974,-0.2345767300000046
-10.78574220000008,-4.086741499999975,0.023936393333328754
-8.497422400000081,-3.687801499999974,0.2824495166666621
-6.209102600000082,-3.288861499999974,0.5409626399999955
-7.386773400000081,-3.1994989999999746,-0.2537258733333379
-8.56444420000008,-3.1101364999999745,-1.0484143866666713
-9.742115000000078,-3.0207739999999745,-1.8431029000000045
-9.742115000000078,-3.0207739999999745,-1.8431029000000045
-10.98361650000008,-2.8739639999999747,-1.9356570000000046
-12.22511800000008,-2.727153999999975,-2.028211100000005
-13.46661950000008,-2.580343999999975,-2.120765200000005
-13.46661950000008,-2.5803439999999753,-2.120765200000005
-12.675122666666747,-2.146297266666642,-2.235659900000005
-11.883625833333413,-1.7122505333333085,-2.350554600000005
-11.09212900000008,-1.2782037999999751,-2.4654493000000053
-11.09212900000008,-1.2782037999999751,-2.4654493000000053
-10.990000333333413,-0.9941585166666419,-3.1803498666666723
-10.887871666666745,-0.7101132333333086,-3.8952504333333393
-10.785743000000076,-0.4260679499999753,-4.610151000000005
-10.785743000000076,-0.4260679499999753,-4.6101510000000046
-10.619784000000077,-0.7867096999999751,-3.9718469333333384
-10.453825000000077,-1.1473514499999748,-3.3335428666666718
-10.287866000000076,-1.5079931999999747,-2.695238800000005
-10.287866000000074,-1.5079931999999747,-2.695238800000005
-10.287866000000074,-1.5079931999999747,-2.695238800000005
-9.531475333333406,-1.4441628333333083,-2.5739610000000046
-8.775084666666741,-1.3803324666666417,-2.4526832000000045
-8.018694000000075,-1.3165020999999753,-2.3314054000000044
-7.804862233333409,-1.5973558333333087,-2.226085266666671
-7.591030466666742,-1.8782095666666423,-2.1207651333333377
-7.377198700000076,-2.1590632999999757,-2.0154450000000046
-7.377198700000076,-2.159063299999976,-2.0154450000000046
-7.619754133333409,-2.2037446333333093,-1.6835268666666707
-7.862309566666742,-2.2484259666666424,-1.351608733333337
-8.104865000000075,-2.2931072999999755,-1.0196906000000037
-8.104865000000077,-2.2931072999999755,-1.0196906000000039
-8.912319666666743,-2.273958133333309,-0.6335166933333373
-9.71977433333341,-2.254808966666643,-0.24734278666667056
-10.527229000000078,-2.235659799999977,0.13883111999999606
-10.527229000000078,-2.235659799999977,0.13883111999999606
-10.626166000000081,-2.0505516666666437,0.13883111999999606
-10.725103000000082,-1.8654435333333101,0.13883111999999606
-10.824040000000084,-1.6803353999999768,0.13883111999999606
-10.824040000000087,-1.6803353999999768,0.13883111999999606
-10.907019666666756,-1.5558660666666437,-0.1324480866666706
-10.989999333333424,-1.4313967333333106,-0.4037272933333373
-11.072979000000094,-1.3069273999999773,-0.6750065000000038
-11.072979000000094,-1.3069273999999773,-0.6750065000000038
-11.302768333333427,-1.7186335333333107,-0.42925945200000387
-11.532557666666762,-2.130339666666644,-0.18351240400000382
-11.762347000000096,-2.542045799999977,0.062234643999996155
-11.117660000000095,-2.16863793333331,0.2250021626666628
-10.472973000000096,-1.7952300666666439,0.3877696813333294
-9.828286000000096,-1.4218221999999774,0.5505371999999961
-9.828286000000096,-1.4218221999999774,0.5505371999999961
-9.611263000000095,-1.4250137333333106,0.5186220133333294
-9.394240000000096,-1.4282052666666438,0.4867068266666627
-9.177217000000097,-1.431396799999977,0.45479163999999606
-9.177217000000097,-1.431396799999977,0.45479163999999606
-9.231472666666763,-1.8048045999999769,0.4835153066666627
-9.28572833333343,-2.178212399999977,0.5122389733333294
-9.339984000000099,-2.5516201999999772,0.5409626399999962
-9.339984000000099,-2.5516201999999772,0.5409626399999962
-9.627220833333432,-2.583535466666644,0.43245095999999617
-9.914457666666765,-2.61545073333331,0.3239392799999961
-10.2016945000001,-2.647365999999977,0.21542759999999608
-10.2016945000001,-2.647365999999977,0.21542759999999608
-10.249567000000098,-2.6250253333333102,-0.09414985333333724
-10.297439500000097,-2.6026846666666437,-0.4037273066666705
-10.345312000000098,-2.580343999999977,-0.7133047600000039
-10.345312000000098,-2.580343999999977,-0.7133047600000039
-10.721911666666763,-2.5675779333333106,-0.8186249400000039
-11.098511333333429,-2.5548118666666437,-0.9239451200000038
-11.475111000000096,-2.5420457999999773,-1.0292653000000038
-11.475111000000096,-2.5420457999999773,-1.0292653000000036
-10.559144666666763,-2.200553166666644,-0.6861768666666702
-9.64317833333343,-1.8590605333333101,-0.3430884333333369
-8.7272120000001,-1.5175678999999764,0.0
-9.563390000000098,-1.3452257999999766,-0.46117466666667023
-10.399568000000096,-1.1728836999999768,-0.9223493333333369
-11.235746000000097,-1.000541599999977,-1.3835240000000038
-11.235746000000097,-1.000541599999977,-1.3835240000000038
-11.318725666666763,-1.3516087666666436,-1.3037360000000038
-11.40170533333343,-1.7026759333333104,-1.2239480000000038
-11.484685000000097,-2.053743099999977,-1.1441600000000036
-11.484685000000097,-2.053743099999977,-1.1441600000000036
-11.484685000000097,-2.053743099999977,-1.1441600000000036
-10.488930666666763,-1.906933199999977,-0.9047959833333369
-9.49317633333343,-1.760123299999977,-0.6654319666666703
-8.497422000000098,-1.613313399999977,-0.4260679500000035
-8.19103623333343,-1.4952271666666437,-0.5505372333333368
-7.884650466666763,-1.3771409333333102,-0.6750065166666701
-7.578264700000095,-1.259054699999977,-0.7994758000000036
-7.578264700000095,-1.259054699999977,-0.7994758000000036
-7.010174133333429,-1.338842699999977,-0.678198033333337
-6.442083566666763,-1.4186306999999772,-0.5569202666666703
-5.8739930000000955,-1.4984186999999771,-0.43564250000000354
-5.8739930000000955,-1.4984186999999771,-0.43564250000000354
-5.8739930000000955,-1.4984186999999771,-0.43564250000000354
-5.3282430000000955,-1.2590546866666437,-0.2760664923333369
-4.782493000000096,-1.0196906733333104,-0.11649048466667024
-4.236743000000095,-0.780326659999977,0.04308552299999643
-4.236743000000094,-0.780326659999977,0.04308552299999643
-4.839940233333427,-0.8952213733333103,0.05904312533332976
-5.44313746666676,-1.0101160866666437,0.0750007276666631
-6.046334700000092,-1.125010799999977,0.09095832999999642
-6.7484694666667595,-1.3643748333333103,0.06223464666666309
-7.450604233333427,-1.6037388666666434,0.03351096333332976
-8.152739000000095,-1.8431028999999768,0.004787279999996424
-8.152739000000095,-1.8431028999999768,0.0047872799999964235
-8.152739000000095,-1.8431028999999768,0.0047872799999964235
-10.674039666666763,-1.9484230333333101,-0.23457673333333687
-13.195340333333428,-2.0537431666666435,-0.47394074666667024
-15.716641000000095,-2.1590632999999766,-0.7133047600000034
-15.716641000000095,-2.1590632999999766,-0.7133047600000036
-16.763460000000098,-2.1558718666666437,-0.8920298733333372
-17.810279000000097,-2.1526804333333103,-1.0707549866666708
-18.857098000000097,-2.1494889999999764,-1.2494801000000042
-17.379423666666764,-2.0122535666666432,-0.6877725666666707
-15.901749333333429,-1.8750181333333098,-0.12606503333333738
-14.424075000000096,-1.7377826999999764,0.435642499999996
-14.424075000000096,-1.7377826999999761,0.435642499999996
-14.424075000000096,-1.7377826999999761,0.435642499999996
-12.911294666666763,-1.9548060666666427,0.2728749733333294
-11.398514333333429,-2.1718294333333095,0.11010744666666274
-9.885734000000094,-2.388852799999976,-0.05266008000000392
-9.885734000000094,-2.388852799999976,-0.05266008000000392
-9.052747200000093,-2.605876199999976,-0.046277040000003926
-8.219760400000093,-2.822899599999976,-0.039894000000003926
-7.386773600000093,-3.0399229999999755,-0.03351096000000393
-7.386773600000093,-3.0399229999999755,-0.03351096000000393
-7.121877400000094,-2.743111666666642,0.2377682466666627
-6.856981200000095,-2.446300333333309,0.5090474533333293
-6.592085000000096,-2.149488999999976,0.7803266599999961
-6.592085000000096,-2.1494889999999764,0.7803266599999961
-6.509105433333429,-2.2197023333333097,0.729262339999996
-6.426125866666762,-2.289915666666643,0.678198019999996
-6.343146300000096,-2.360128999999976,0.6271336999999959
-6.343146300000096,-2.3601289999999757,0.6271336999999959
-7.370815866666763,-2.899495933333309,0.26010888999999593
-8.398485433333429,-3.4388628666666414,-0.10691592000000404
-9.426155000000096,-3.9782297999999745,-0.473940730000004
-9.426155000000096,-3.9782297999999745,-0.473940730000004
-10.622975000000096,-4.332488533333307,-0.3015986456666706
-11.819795000000097,-4.68674726666664,-0.12925656133333727
-13.016615000000096,-5.041005999999973,0.04308552299999605
-13.016615000000096,-5.041005999999972,0.04308552299999605
-14.775142666666765,-3.4580120333333064,0.31117321533332937
-16.533670333333433,-1.8750180666666407,0.5792609076666626
-18.2921980000001,-0.2920240999999744,0.847348599999996
-18.292198000000102,-0.2920240999999744,0.847348599999996
-17.503892333333432,-0.6590489333333078,0.21542763333332937
-16.715586666666763,-1.0260737666666413,-0.4164933333333372
-15.927281000000095,-1.3930985999999745,-1.048414300000004
-14.503863000000095,-1.1409684866666412,-1.1282023333333375
-13.080445000000095,-0.8888383733333077,-1.2079903666666707
-11.657027000000094,-0.6367082599999744,-1.2877784000000039
-11.657027000000094,-0.6367082599999743,-1.2877784000000037
-11.657027000000094,-0.6367082599999743,-1.2877784000000037
-9.911265533333427,-0.5250050633333075,-0.5952185133333369
-8.165504066666761,-0.41330186666664087,0.09734137333332982
-6.419742600000094,-0.3015986699999742,0.7899012599999965
-6.419742600000094,-0.3015986699999742,0.7899012599999965
-6.359103833333428,-0.3494714699999742,0.639899806666663
-6.298465066666762,-0.39734426999997424,0.4898983533333296
-6.237826300000097,-0.44521706999997424,0.3398968999999963
-6.31442273333343,-0.3207477799999742,-0.250534333333337
-6.391019166666763,-0.1962784899999742,-0.8409655666666702
-6.467615600000097,-0.07180919999997419,-1.4313968000000035
-6.467615600000097,-0.07180919999997419,-1.4313968000000035
-6.467615600000097,-0.07180919999997419,-1.4313968000000035
-7.246346400000097,-0.2952155999999742,-1.3420342333333368
-8.025077200000098,-0.5186219999999743,-1.2526716666666704
-8.8038080000001,-0.7420283999999743,-1.1633091000000038
-8.8038080000001,-0.7420283999999743,-1.1633091000000038
-10.5272290000001,-1.6005473333333076,-1.2047988666666702
-12.250650000000098,-2.459066266666641,-1.2462886333333367
-13.9740710000001,-3.3175851999999746,-1.2877784000000032
-13.9740710000001,-3.3175851999999746,-1.287778400000003
-15.068762000000099,-3.311202199999974,-1.4888441666666694
-16.1634530000001,-3.3048191999999745,-1.689909933333336
-17.258144000000097,-3.298436199999975,-1.8909757000000027
-17.258144000000097,-3.298436199999975,-1.8909757000000027
-17.759212666666766,-3.231414266666641,-1.3611833566666691
-18.260281333333435,-3.164392333333307,-0.8313910133333356
-18.761350000000103,-3.097370399999973,-0.30159867000000234
-18.761350000000103,-3.097370399999973,-0.30159867000000234
-16.750692666666772,-3.094178833333307,-0.39734428000000227
-14.74003533333344,-3.090987266666641,-0.49308989000000225
-12.729378000000109,-3.0877956999999747,-0.5888355000000022
-12.72937800000011,-3.0877956999999747,-0.5888355000000022
-11.379365000000112,-2.918645133333308,-0.40372732000000217
-10.029352000000111,-2.749494566666641,-0.21861914000000218
-8.67933900000011,-2.5803439999999744,-0.0335109600000022
-8.679339000000112,-2.580343999999974,-0.0335109600000022
-8.55486966666678,-2.589918566666641,-0.20904456000000218
-8.430400333333447,-2.599493133333308,-0.38457816000000217
-8.305931000000115,-2.6090676999999745,-0.5601117600000021
-8.305931000000115,-2.6090676999999745,-0.5601117600000021
-8.443166333333446,-3.2729039333333083,-0.6781980200000021
-8.580401666666779,-3.9367401666666417,-0.7962842800000022
-8.71763700000011,-4.600576399999976,-0.9143705400000023
-8.717637000000108,-4.600576399999976,-0.9143705400000023
-9.512325666666777,-5.111219599999974,-1.3228851266666688
-10.307014333333445,-5.621862799999974,-1.7313997133333354
-11.101703000000114,-6.132505999999974,-2.1399143000000023
-11.101703000000114,-6.132505999999974,-2.1399143000000023
-12.371928000000116,-5.38569026666664,-1.1282024000000026
-13.642153000000116,-4.638874533333308,-0.1164905000000025
-14.912378000000118,-3.8920587999999747,0.8952213999999975
-14.912378000000118,-3.8920587999999747,0.8952213999999975
-15.46131933333345,-3.493118799999975,0.8984129133333308
-16.01026066666678,-3.0941787999999755,0.9016044266666642
-16.559202000000113,-2.695238799999976,0.9047959399999975
-16.559202000000113,-2.695238799999976,0.9047959399999975
-15.41982966666678,-1.7218251433333094,0.8313909933333309
-14.28045733333345,-0.7484114866666428,0.7579860466666641
-13.141085000000118,0.2250021700000239,0.6845810999999974
-13.141085000000118,0.2250021700000239,0.6845810999999974
-11.350642000000116,0.3303223266666906,0.8505401333333307
-9.560199000000116,0.43564248333335726,1.016499166666664
-7.769756000000116,0.5409626400000239,1.1824581999999975
-7.769756000000116,0.540962640000024,1.1824581999999975
-7.456987000000115,0.8058588266666907,0.8728807533333308
-7.144218000000115,1.0707550133333574,0.5633033066666642
-6.831449000000114,1.335651200000024,0.2537258599999976
-6.831449000000114,1.335651200000024,0.2537258599999976
-6.627191666666781,1.2782038333333574,0.22819369666666423
-6.422934333333448,1.2207564666666908,0.2026615333333309
-6.218677000000114,1.1633091000000242,0.17712936999999754
-6.218677000000114,1.1633091000000242,0.17712936999999754
-7.536775000000115,0.6558574000000241,-0.1771293533333358
-8.854873000000117,0.14840570000002415,-0.5313880766666691
-10.172971000000118,-0.35904599999997583,-0.8856468000000025
-10.17297100000012,-0.35904599999997583,-0.8856468000000025
-12.812357666666784,-0.8920298666666427,-1.4792695333333359
-15.451744333333451,-1.4250137333333095,-2.072892266666669
-18.091131000000118,-1.9579975999999764,-2.6665150000000026
-18.091131000000118,-1.9579975999999764,-2.6665150000000026
-18.151770000000116,-2.4494916999999763,-2.542045766666669
-18.212409000000118,-2.9409857999999764,-2.417576533333335
-18.273048000000117,-3.432479899999976,-2.2931073000000013
-18.273048000000117,-3.432479899999976,-2.2931073000000013
-17.216655000000117,-3.400564699999976,-1.6643778066666683
-16.160262000000117,-3.3686494999999756,-1.035648313333335
-15.103869000000117,-3.3367342999999754,-0.4069188200000018
-15.103869000000117,-3.3367342999999754,-0.4069188200000018
-13.894283000000115,-3.2920529999999757,-0.39415273666666845
-12.684697000000114,-3.2473716999999755,-0.38138665333333516
-11.475111000000112,-3.2026903999999754,-0.3686205700000018
-11.475111000000112,-3.2026903999999754,-0.3686205700000018
-10.10594876666678,-3.189924333333309,-0.26330040666666843
-8.736786533333449,-3.1771582666666425,-0.1579802433333351
-7.3676243000001165,-3.1643921999999756,-0.052660080000001754
-7.3676243000001165,-3.1643921999999756,-0.052660080000001754
-7.25911253333345,-2.992050133333309,-0.10053288000000175
-7.150600766666784,-2.8197080666666423,-0.14840568000000176
-7.042089000000118,-2.6473659999999755,-0.19627848000000178
-7.042089000000118,-2.6473659999999755,-0.19627848000000178
-7.042089000000118,-2.6473659999999755,-0.19627848000000178
-7.32932583333345,-3.0239653333333085,-0.43883401000000183
-7.616562666666784,-3.4005646666666425,-0.6813895400000017
-7.903799500000118,-3.777163999999976,-0.9239450700000017
-8.379336000000118,-4.230359899999976,-1.0164991466666684
-8.85487250000012,-4.683555799999977,-1.109053223333335
-9.330409000000119,-5.1367516999999765,-1.2016073000000016
-9.330409000000119,-5.136751699999976,-1.2016073000000016
-11.085745000000117,-5.133560199999976,-0.8728807333333348
-12.841081000000116,-5.130368699999976,-0.5441541666666682
-14.596417000000116,-5.127177199999976,-0.2154276000000014
-14.596417000000116,-5.127177199999976,-0.2154276000000014
-15.560256000000114,-4.380361466666644,0.011170323333331919
-16.524095000000113,-3.6335457333333108,0.23776824666666527
-17.48793400000011,-2.8867299999999774,0.4643661699999986
-17.48793400000011,-2.8867299999999774,0.4643661699999986
-17.43048666666678,-1.9835297899999773,0.1388311133333319
-17.373039333333452,-1.0803295799999775,-0.18670394333333476
-17.315592000000123,-0.17712936999997733,-0.5122390000000014
-17.315592000000127,-0.17712936999997733,-0.5122390000000014
-14.97939933333346,-0.314364746666644,-0.04308553333333479
-12.643206666666792,-0.4516001233333106,0.42606793333333187
-10.307014000000125,-0.5888354999999772,0.8952213999999986
-10.307014000000125,-0.5888354999999771,0.8952213999999986
-9.158066900000124,-0.6909641333333104,0.6973471566666652
-8.009119800000123,-0.7930927666666437,0.499472913333332
-6.860172700000123,-0.8952213999999771,0.3015986699999987
-6.860172700000123,-0.8952213999999771,0.3015986699999987
-6.860172700000123,-0.8952213999999771,0.3015986699999987
-6.799533800000123,-0.5377711433333104,0.1452141766666654
-6.7388949000001235,-0.1803208866666438,-0.011170316666667957
-6.6782560000001245,0.17712937000002285,-0.16755481000000128
-6.2569753333334575,-0.12287351999997714,-0.15478872666666793
-5.83569466666679,-0.42287640999997717,-0.14202264333333461
-5.414414000000124,-0.7228792999999771,-0.12925656000000127
-5.414414000000124,-0.7228792999999772,-0.1292565600000013
-5.692076266666791,-1.1154362666666442,-0.06542615866666797
-5.969738533333458,-1.507993233333311,-0.0015957573333346315
-6.247400800000125,-1.900550199999978,0.0622346439999987
-6.247400800000125,-1.9005501999999783,0.0622346439999987
-6.247400800000125,-1.9005501999999783,0.0622346439999987
-8.203802866666791,-2.411193433333312,0.01755336266666536
-10.160204933333459,-2.9218366666666458,-0.027127918666667975
-12.116607000000124,-3.4324798999999793,-0.07180920000000131
-13.938965000000124,-3.4388629333333127,-0.6303252000000014
-15.761323000000123,-3.4452459666666457,-1.1888412000000013
-17.583681000000123,-3.451628999999979,-1.7473572000000015
-17.583681000000123,-3.451628999999979,-1.7473572000000015
-17.583681000000123,-3.451628999999979,-1.7473572000000015
-18.119856333333455,-3.821845433333312,-1.3420341666666682
-18.656031666666788,-4.192061866666645,-0.936711133333335
-19.19220700000012,-4.562278299999978,-0.5313881000000017
-19.19220700000012,-4.562278299999978,-0.5313881000000017
-17.96347150000012,-4.150572066666644,-0.5664948200000017
-16.734736000000122,-3.7388658333333105,-0.6016015400000017
-15.506000500000122,-3.327159599999977,-0.6367082600000016
-14.025135333333457,-3.3622663666666437,-0.6590488966666682
-12.544270166666792,-3.3973731333333106,-0.6813895333333351
-11.063405000000126,-3.4324798999999775,-0.7037301700000018
-11.063405000000126,-3.4324798999999775,-0.7037301700000018
-11.063405000000126,-3.4324798999999775,-0.7037301700000018
-9.643178433333459,-3.5186509333333107,-0.6622404133333352
-8.222951866666794,-3.6048219666666443,-0.6207506566666684
-6.802725300000127,-3.6909929999999775,-0.5792609000000017
-6.802725300000127,-3.6909929999999775,-0.5792609000000017
-6.237826200000128,-3.454820499999977,-0.6462828200000018
-5.672927100000128,-3.218647999999977,-0.7133047400000018
-5.108028000000129,-2.9824754999999765,-0.7803266600000018
-5.108028000000129,-2.9824754999999765,-0.7803266600000018
-5.385690333333462,-3.1803497999999766,-1.0037330733333352
-5.663352666666795,-3.378224099999976,-1.2271394866666683
-5.941015000000128,-3.5760983999999763,-1.4505459000000016
-5.941015000000128,-3.5760983999999763,-1.4505459000000016
-7.447412333333461,-4.064400933333309,-1.689909933333335
-8.953809666666794,-4.552703466666642,-1.929273966666668
-10.460207000000127,-5.0410059999999755,-2.1686380000000014
-10.460207000000128,-5.0410059999999755,-2.1686380000000014
-13.105977333333461,-5.570798333333308,-1.4154392233333344
-15.751747666666796,-6.100590666666641,-0.6622404466666677
-18.397518000000133,-6.630382999999974,0.09095832999999905
-18.397518000000133,-6.6303829999999735,0.09095832999999905
-18.735819333333463,-4.22716836666664,0.27925801999999905
-19.074120666666797,-1.8239537333333065,0.46755770999999907
-19.41242200000013,0.5792609000000271,0.6558573999999991
-19.41242200000013,0.5792609000000271,0.6558573999999991
-17.302827000000132,-0.01755336666663961,0.6941556433333326
-15.193232000000135,-0.6143676333333062,0.7324538866666659
-13.083637000000136,-1.2111818999999728,0.7707521299999992
-13.083637000000138,-1.211181899999973,0.7707521299999992
-11.178299433333473,-1.0643719766666397,1.0101161533333325
-9.272961866666808,-0.9175620533333065,1.249480176666666
-7.367624300000141,-0.7707521299999733,1.4888441999999993
-7.367624300000141,-0.7707521299999733,1.4888441999999993
-6.952726700000142,-0.5058559526666401,1.1920327999999996
-6.537829100000142,-0.24095977533330673,0.8952213999999996
-6.122931500000142,0.023936402000026596,0.5984099999999996
-6.122931500000142,0.023936402000026596,0.5984099999999996
-5.998462200000142,-0.09734136533330674,0.390961199333333
-5.873992900000142,-0.2186191326666401,0.18351239866666635
-5.749523600000142,-0.3398968999999734,-0.023936402000000318
-5.749523600000142,-0.3398968999999734,-0.023936402000000318
-6.097399200000141,-0.5601117999999733,0.011170320333333011
-6.445274800000141,-0.7803266999999733,0.046277042666666345
-6.79315040000014,-1.0005415999999734,0.08138376499999968
-6.7931504000001395,-1.0005415999999734,0.08138376499999966
-8.842106600000138,-1.8175707333333069,-0.38776969000000044
-10.891062800000137,-2.6345998666666404,-0.8569231450000006
-12.940019000000136,-3.451628999999974,-1.3260766000000006
-12.940019000000136,-3.451628999999974,-1.3260766000000006
-14.673014666666804,-3.515459433333307,-1.0899041100000006
-16.406010333333473,-3.57928986666664,-0.8537316200000005
-18.13900600000014,-3.643120299999973,-0.6175591300000004
-18.13900600000014,-3.643120299999973,-0.6175591300000004
-18.202836000000143,-3.489927299999973,-0.18351238666666705
-18.266666000000143,-3.336734299999973,0.25053435666666624
-18.330496000000142,-3.1835412999999733,0.6845810999999995
-18.330496000000142,-3.1835412999999733,0.6845810999999995
-16.68367166666681,-2.82609106666664,0.24734283333333287
-15.036847333333478,-2.468640833333307,-0.18989543333333372
-13.390023000000147,-2.111190599999974,-0.6271337000000003
-13.390023000000147,-2.111190599999974,-0.6271337000000003
-11.87085933333348,-3.135668633333307,-0.6941556333333337
-10.351695666666814,-4.16014666666664,-0.7611775666666672
-8.832532000000148,-5.184624699999975,-0.8281995000000006
-8.832532000000148,-5.184624699999975,-0.8281995000000006
-7.728266000000147,-5.092070599999975,-0.9909670333333338
-6.624000000000147,-4.999516499999975,-1.1537345666666672
-5.519734000000146,-4.906962399999975,-1.3165021000000003
-5.519734000000146,-4.906962399999975,-1.3165021000000003
-5.564415333333479,-4.469724099999975,-1.1186278333333337
-5.6090966666668125,-4.032485799999974,-0.9207535666666669
-5.653778000000146,-3.595247499999973,-0.7228793000000001
-5.653778000000146,-3.595247499999973,-0.7228793000000001
-6.876130000000146,-3.904824899999973,-0.7292623333333333
-8.098482000000148,-4.214402299999972,-0.7356453666666667
-9.320834000000149,-4.523979699999972,-0.7420284
-9.320834000000149,-4.5239796999999715,-0.7420284
-11.519791500000151,-4.897387466666638,-1.0228821666666665
-13.718749000000152,-5.270795233333304,-1.3037359333333334
-15.917706500000152,-5.644202999999972,-1.5845897000000002
-15.917706500000152,-5.644202999999972,-1.5845896999999998
-16.434733000000154,-5.025048199999971,-1.3899069999999998
-16.951759500000154,-4.405893399999971,-1.1952242999999998
-17.468786000000154,-3.78673859999997,-1.0005415999999996
-17.468786000000154,-3.78673859999997,-1.0005415999999994
-17.74644833333349,-2.749494566666637,-1.3420342666666663
-18.024110666666825,-1.7122505333333038,-1.683526933333333
-18.301773000000157,-0.6750064999999705,-2.0250196
-18.301773000000157,-0.6750064999999705,-2.0250196
-16.460265666666828,-1.434588266666637,-1.6452286666666662
-14.618758333333494,-2.1941700333333034,-1.2654377333333329
-12.777251000000158,-2.9537517999999703,-0.8856467999999998
-12.777251000000158,-2.9537517999999707,-0.8856467999999998
-12.387885666666826,-2.3792782333333045,-1.0260736666666663
-11.998520333333493,-1.8048046666666375,-1.1665005333333331
-11.60915500000016,-1.2303310999999708,-1.3069274
-11.60915500000016,-1.2303310999999708,-1.3069274
-10.648507333333493,-0.4611746999999709,-1.3675663333333332
-9.687859666666826,0.3079817000000291,-1.4282052666666665
-8.72721200000016,1.077138100000029,-1.4888441999999997
-8.72721200000016,1.0771381000000293,-1.4888441999999997
-7.450603833333493,0.675006546666696,-1.0739465666666665
-6.173995666666826,0.27287499333336257,-0.6590489333333331
-4.89738750000016,-0.1292565599999708,-0.24415129999999982
-4.89738750000016,-0.1292565599999708,-0.24415129999999982
-4.89738750000016,-0.1292565599999708,-0.24415129999999982
-5.1878158333334925,-0.623942173333304,-0.3462799333333331
-5.478244166666826,-1.1186277866666374,-0.44840856666666645
-5.76867250000016,-1.6133133999999707,-0.5505371999999998
-7.262304000000159,-3.8090792666666378,-0.7452199333333333
-8.755935500000158,-6.004845133333305,-0.9399026666666664
-10.249567000000157,-8.200610999999972,-1.1345853999999997
-10.249567000000157,-8.200610999999972,-1.1345853999999997
-11.55809033333349,-7.083578999999972,-1.268629233333333
-12.866613666666824,-5.966546999999973,-1.4026730666666667
-14.175137000000158,-4.849514999999973,-1.5367169
-14.175137000000158,-4.849514999999972,-1.5367169
-14.175137000000158,-4.849514999999972,-1.5367169
-15.381531666666824,-4.393127533333305,-0.4898983000000001
-16.587926333333492,-3.9367400666666383,0.5569202999999999
-17.79432100000016,-3.4803525999999714,1.6037388999999997
-16.26239100000016,-4.204827733333304,1.0611804659999997
-14.730461000000162,-4.929302866666638,0.5186220319999998
-13.198531000000164,-5.653777999999971,-0.023936402000000207
-13.198531000000164,-5.653777999999971,-0.023936402000000207
-13.198531000000164,-5.653777999999971,-0.023936402000000207
-11.877242000000166,-5.082495866666638,-0.1771293680000002
-10.555953000000168,-4.511213733333306,-0.33032233400000016
-9.234664000000167,-3.939931599999973,-0.48351530000000015
-9.853819000000165,-3.7005676333333066,-0.45798314000000023
-10.472974000000164,-3.46120366666664,-0.4324509800000002
-11.092129000000163,-3.2218396999999737,-0.4069188200000002
-11.092129000000163,-3.2218396999999737,-0.4069188200000002
-11.120852333333497,-3.8122707999999736,-0.011170326666666841
-11.149575666666832,-4.4027018999999745,0.3845781666666665
-11.178299000000166,-4.9931329999999745,0.7803266599999997
-11.178299000000166,-4.9931329999999745,0.7803266599999997
-11.567664500000165,-4.693130133333308,0.37819512333333316
-11.957030000000165,-4.393127266666641,-0.02393641333333348
-12.346395500000163,-4.093124399999975,-0.42606795000000014
-12.346395500000163,-4.093124399999975,-0.42606795000000014
-10.884679333333496,-3.9941873666666416,-0.6941556666666667
-9.42296316666683,-3.8952503333333084,-0.9622433833333334
-7.961247000000164,-3.796313299999975,-1.2303311
-7.961247000000164,-3.796313299999975,-1.2303311
-9.483602333333499,-3.869718199999976,-1.9452316333333337
