accx,accy,accz
2.5324712000000003,0.8664976999999999,6.438892
3.4037561000000007,0.8377740499999999,6.735703299999999
3.694184400000001,0.8281994999999999,6.834640399999999
4.275041000000002,0.8090503999999998,7.032514599999999
4.275041000000002,0.8090503999999998,7.032514599999999
4.983558600000001,-0.04946853333333345,7.182516066666666
5.6920762,-0.9079874666666666,7.332517533333333
6.400593799999999,-1.7665064000000001,7.482519
6.400593799999999,-1.7665064000000001,7.482519
6.400593799999999,-1.7665064000000001,7.482519
6.809108299999999,-1.5239508666666668,7.760181333333333
7.2176228,-1.2813953333333334,8.037843666666665
7.6261373,-1.0388398,8.315505999999997
7.977204533333334,-0.4803237800000002,8.325080666666665
8.328271766666669,0.07819223999999984,8.33465533333333
8.679339000000002,0.6367082599999999,8.344229999999996
8.679339000000004,0.6367082599999999,8.344229999999994
9.387856666666671,0.6047930533333331,8.337846666666662
10.096374333333339,0.5728778466666665,8.33146333333333
10.804892000000008,0.5409626399999999,8.325079999999998
10.804892000000008,0.54096264,8.32508
11.104894666666674,0.8633061599999999,8.449549333333332
11.40489733333334,1.1856496799999998,8.574018666666666
11.704900000000007,1.5079931999999996,8.698487999999998
11.704900000000007,1.5079931999999996,8.698487999999996
11.261278666666671,1.7601233333333333,8.43359183333333
10.817657333333337,2.012253466666667,8.168695666666663
10.374036000000002,2.2643836000000004,7.903799499999997
10.374036,2.2643836000000004,7.903799499999998
9.904882666666667,2.3537461333333334,7.568689999999999
9.435729333333333,2.443108666666667,7.2335804999999995
8.966576,2.5324712,6.898471000000001
8.966576,2.5324712,6.898471000000001
8.727212,2.5420458,6.691022166666667
8.487848000000001,2.5516203999999996,6.483573333333335
8.248484000000001,2.5611949999999997,6.276124500000002
8.248484000000003,2.5611949999999997,6.276124500000002
7.836777900000004,2.4111935333333334,6.087824833333333
7.425071800000005,2.2611920666666667,5.899525166666666
7.013365700000006,2.1111906000000005,5.711225499999998
7.013365700000006,2.1111906000000005,5.711225499999998
6.812299800000005,2.0601262666666673,5.730374499999999
6.611233900000005,2.0090619333333337,5.7495235
6.410168000000003,1.9579976000000006,5.768672500000001
6.410168000000003,1.9579976000000006,5.768672500000001
6.394210533333337,1.8399113666666669,5.889950333333334
6.37825306666667,1.7218251333333334,6.011228166666666
6.362295600000004,1.6037388999999997,6.132505999999999
6.362295600000004,1.6037388999999997,6.132505999999999
6.387827733333338,1.514376333333333,6.193144866666667
6.413359866666671,1.4250137666666667,6.253783733333333
6.438892000000004,1.3356512,6.3144226
6.416551333333338,1.2813953333333332,6.381444400000002
6.394210666666672,1.2271394666666664,6.448466200000003
6.371870000000006,1.1728835999999996,6.515488000000005
6.371870000000006,1.1728835999999994,6.515488000000005
6.371870000000006,1.1728835999999994,6.515488000000005
6.298465000000005,1.2207564333333327,6.502722000000005
6.225060000000004,1.2686292666666659,6.489956000000004
6.1516550000000025,1.316502099999999,6.477190000000004
6.1516550000000025,1.316502099999999,6.477190000000004
6.126122833333336,1.3579918666666655,6.4739985333333365
6.100590666666669,1.399481633333332,6.470807066666669
6.075058500000002,1.4409713999999985,6.467615600000002
6.075058500000002,1.440971399999998,6.467615600000002
6.244209166666668,1.332459699999998,6.477190166666669
6.413359833333335,1.223947999999998,6.486764733333335
6.5825105000000015,1.1154362999999983,6.4963393000000025
6.7069797666666675,1.1569260666666648,6.50591386666667
6.831449033333335,1.1984158333333317,6.515488433333336
6.955918300000003,1.2399055999999984,6.525063000000003
6.955918300000003,1.2399055999999984,6.525063000000003
6.955918300000003,1.2399055999999984,6.525063000000003
6.997408066666669,1.2590546999999983,6.46123266666667
7.038897833333334,1.2782037999999982,6.3974023333333365
7.080387600000001,1.2973528999999981,6.333572000000004
7.102728200000001,1.2399055333333315,6.145272166666671
7.125068800000002,1.182458166666665,5.956972333333337
7.1474094000000035,1.1250107999999983,5.7686725000000045
7.1474094000000035,1.1250107999999983,5.7686725000000045
7.105919600000003,1.150542966666665,5.481435800000004
7.064429800000002,1.1760751333333317,5.194199100000005
7.022940000000001,1.2016072999999983,4.906962400000005
7.022940000000001,1.2016072999999983,4.906962400000005
7.208048233333334,0.939902666666665,4.632491600000004
7.393156466666667,0.6781980333333317,4.358020800000003
7.578264700000001,0.41649339999999846,4.0835500000000025
7.578264700000001,0.41649339999999846,4.0835500000000025
8.120823133333333,-0.004787266666668177,3.8409944666666695
8.663381566666667,-0.4260679333333348,3.598438933333336
9.20594,-0.8473486000000016,3.3558834000000033
9.20594,-0.8473486000000016,3.3558834000000033
9.684668000000002,-0.6143676300000017,3.44205446666667
10.163396000000004,-0.3813866600000017,3.528225533333336
10.642124000000004,-0.1484056900000017,3.6143966000000027
10.642124000000004,-0.1484056900000017,3.6143966000000027
10.555953000000004,0.1164904899999983,3.6239711666666694
10.469782000000004,0.3813866699999983,3.6335457333333365
10.383611000000004,0.6462828499999983,3.643120300000003
10.383611000000004,0.6462828499999982,3.643120300000003
10.319780666666668,0.4675577146666649,3.3654580333333364
10.255950333333336,0.28883257933333156,3.0877957666666696
10.192120000000003,0.11010744399999828,2.8101335000000027
10.192120000000005,0.11010744399999828,2.8101335000000027
10.224035333333337,0.08457528266666493,2.609067700000003
10.255950666666669,0.059043121333331595,2.408001900000003
10.287866000000003,0.033510959999998265,2.206936100000003
10.287866000000001,0.033510959999998265,2.2069361000000036
10.131481,0.0622346433333316,2.19417006666667
9.975096,0.09095832666666494,2.1814040333333367
9.818711,0.11968200999999828,2.168638000000003
9.818711,0.11968200999999828,2.168638000000003
9.952755000000002,-0.19947000666666836,1.760123400000003
10.086799000000001,-0.5186220233333351,1.3516088000000028
10.220843000000002,-0.8377740400000017,0.9430942000000028
10.220843000000002,-0.8377740400000017,0.9430942000000028
10.329354666666669,-0.8760722933333351,1.0324567666666695
10.437866333333337,-0.9143705466666686,1.1218193333333362
10.546378000000004,-0.952668800000002,1.2111819000000026
10.546378000000006,-0.952668800000002,1.2111819000000026
10.457015666666672,-0.888838380000002,1.093095653333336
10.367653333333338,-0.825007960000002,0.9750094066666696
10.278291000000005,-0.7611775400000019,0.856923160000003
10.278291000000005,-0.7611775400000017,0.856923160000003
10.326163666666671,-0.6303252166666684,0.8313909933333363
10.37403633333334,-0.499472893333335,0.8058588266666696
10.421909000000008,-0.36862057000000165,0.7803266600000031
10.421909000000008,-0.36862057000000165,0.7803266600000031
10.271907666666676,-0.4930898466666684,0.652665860000003
10.121906333333342,-0.6175591233333351,0.525005060000003
9.971905000000008,-0.7420284000000018,0.39734426000000306
9.971905000000008,-0.7420284000000018,0.39734426000000306
9.968713333333342,-0.7228793000000017,0.3718120933333364
9.965521666666676,-0.7037302000000016,0.3462799266666698
9.96233000000001,-0.6845811000000016,0.3207477600000031
9.96233000000001,-0.6845811000000016,0.3207477600000031
10.04850100000001,-0.5281966000000016,0.3590460066666698
10.13467200000001,-0.3718121000000016,0.39734425333333645
10.220843000000011,-0.21542760000000158,0.4356425000000031
10.144246666666676,-0.23776824666666826,0.3271308146666698
10.067650333333342,-0.2601088933333349,0.21861912933333652
9.991054000000007,-0.2824495400000016,0.11010744400000322
9.991054000000007,-0.2824495400000016,0.11010744400000322
9.991054000000007,-0.2824495400000016,0.11010744400000322
9.930415000000009,-0.4101103600000016,0.06223464266666989
9.869776000000009,-0.5377711800000017,0.014361841333336558
9.809137000000009,-0.6654320000000017,-0.03351095999999678
9.809137000000009,-0.6654320000000017,-0.03351095999999678
9.79637100000001,-0.6622404666666682,0.08138376000000322
9.78360500000001,-0.6590489333333349,0.19627848000000322
9.770839000000011,-0.6558574000000016,0.3111732000000032
9.770839000000011,-0.6558574000000016,0.31117320000000315
9.85701000000001,-0.6718149900000016,0.3271308000000031
9.943181000000008,-0.6877725800000016,0.3430884000000031
10.029352000000005,-0.7037301700000017,0.3590460000000031
10.029352000000005,-0.7037301700000017,0.3590460000000031
10.029352000000005,-0.8154333800000018,0.32713080666666977
10.029352000000005,-0.9271365900000017,0.2952156133333364
10.029352000000005,-1.0388398000000016,0.2633004200000031
10.029352000000005,-1.0388398000000016,0.2633004200000031
10.045309666666672,-1.0643719666666682,0.2888325800000031
10.061267333333339,-1.089904133333335,0.31436474000000314
10.077225000000007,-1.1154363000000016,0.33989690000000317
10.077225000000007,-1.1154363000000016,0.33989690000000317
10.09637400000001,-1.214373433333335,0.2952156133333365
10.11552300000001,-1.3133105666666685,0.2505343266666698
10.13467200000001,-1.4122477000000018,0.20585304000000315
10.13467200000001,-1.4122477000000018,0.20585304000000315
10.102757000000011,-1.373949433333335,0.21223608333333646
10.070842000000011,-1.3356511666666684,0.2186191266666698
10.03892700000001,-1.2973529000000017,0.2250021700000031
10.03892700000001,-1.2973529000000017,0.2250021700000031
9.981479666666678,-1.2079903666666685,0.19308696666666977
9.924032333333344,-1.1186278333333355,0.1611717633333364
9.86658500000001,-1.0292653000000023,0.12925656000000307
9.86658500000001,-1.0292653000000025,0.12925656000000307
9.901691666666677,-0.9845840000000025,0.07180919900000307
9.936798333333343,-0.9399027000000024,0.014361838000003077
9.971905000000008,-0.8952214000000024,-0.04308552299999693
9.971905000000008,-0.8952214000000024,-0.04308552299999693
9.853818666666676,-0.8186249333333357,0.07500071800000307
9.735732333333344,-0.7420284666666691,0.19308695900000306
9.61764600000001,-0.6654320000000024,0.3111732000000031
9.61764600000001,-0.6654320000000024,0.3111732000000031
9.678284666666677,-0.7005387100000023,0.3558544900000031
9.738923333333345,-0.7356454200000023,0.40053578000000306
9.79956200000001,-0.7707521300000023,0.44521707000000305
9.79956200000001,-0.7707521300000023,0.44521707000000305
9.888924666666677,-0.9941585533333357,0.3079817000000031
9.978287333333343,-1.217564976666669,0.17074633000000305
10.06765000000001,-1.4409714000000022,0.03351096000000305
10.06765000000001,-1.4409714000000022,0.03351096000000305
10.05488400000001,-1.4505459333333353,0.036702481000003055
10.042118000000011,-1.4601204666666685,0.039894002000003044
10.029352000000012,-1.4696950000000015,0.04308552300000304
10.029352000000014,-1.4696950000000015,0.04308552300000303
10.022969000000014,-1.3420342000000016,0.07819224533333635
10.016586000000014,-1.214373400000002,0.11329896766666969
10.010203000000015,-1.086712600000002,0.14840569000000303
10.010203000000015,-1.086712600000002,0.14840569000000303
9.96552166666668,-1.118627800000002,0.09095832600000302
9.920840333333347,-1.1505430000000019,0.03351096200000301
9.876159000000012,-1.182458200000002,-0.023936401999996988
9.87615900000001,-1.182458200000002,-0.023936401999996988
9.959138333333343,-1.1186278133333352,0.02074488000000301
10.042117666666675,-1.0547974266666686,0.06542616200000301
10.125097000000006,-0.9909670400000019,0.11010744400000301
10.125097000000006,-0.9909670400000019,0.11010744400000301
10.054883666666672,-0.9399027066666686,0.10691592266666967
9.984670333333339,-0.8888383733333353,0.10372440133333634
9.914457000000008,-0.837774040000002,0.100532880000003
9.914457000000008,-0.837774040000002,0.100532880000003
9.924031666666673,-1.0037330933333353,0.02712791666666967
9.933606333333339,-1.1696921466666685,-0.046277046666663664
9.943181000000004,-1.3356512000000018,-0.119682009999997
9.943181000000004,-1.3356512000000018,-0.119682009999997
9.97828766666667,-1.3611833666666684,-0.10372440666666366
10.013394333333336,-1.3867155333333352,-0.08776680333333033
10.048501000000003,-1.4122477000000018,-0.071809199999997
10.048501000000002,-1.4122477000000018,-0.071809199999997
10.048501000000002,-1.4122477000000018,-0.071809199999997
10.042118000000002,-1.3516088333333351,-0.030319439999997002
10.035735000000003,-1.2909699666666683,0.011170320000003
10.029352000000003,-1.2303311000000017,0.052660080000002996
10.035735000000004,-1.2430971666666684,0.08776680333333632
10.042118000000004,-1.2558632333333348,0.12287352666666966
10.048501000000003,-1.2686293000000015,0.15798025000000296
10.048501000000002,-1.2686293000000015,0.15798025000000296
10.064458666666667,-1.2207564666666684,0.21223608666666963
10.080416333333332,-1.172883633333335,0.26649192333333627
10.096373999999997,-1.1250108000000019,0.3207477600000029
10.096373999999996,-1.1250108000000019,0.3207477600000029
10.096373999999996,-1.1250108000000019,0.3207477600000029
10.022968999999994,-1.096287133333335,0.29840712666666963
9.949563999999993,-1.0675634666666685,0.2760664933333363
9.876158999999992,-1.0388398000000016,0.253725860000003
9.834669333333325,-1.0835210666666686,0.15478873233333637
9.79317966666666,-1.1282023333333353,0.055851604666669684
9.751689999999991,-1.1728836000000022,-0.043085522999996996
9.751689999999991,-1.1728836000000025,-0.043085522999996996
9.742115333333325,-1.1856497000000024,-0.07819224533333032
9.73254066666666,-1.1984158000000025,-0.11329896766666366
9.722965999999994,-1.2111819000000026,-0.148405689999997
9.722965999999994,-1.2111819000000026,-0.148405689999997
9.805945666666661,-1.2239479666666695,-0.16117177333333033
9.888925333333328,-1.2367140333333364,-0.17393785666666364
9.971904999999994,-1.2494801000000033,-0.186703939999997
9.971904999999994,-1.2494801000000033,-0.186703939999997
9.971904999999994,-1.2494801000000033,-0.186703939999997
9.987862333333327,-1.2239479333333365,-0.15159721499999698
10.00381966666666,-1.1984157666666695,-0.11649048999999696
10.019776999999992,-1.1728836000000025,-0.08138376499999696
9.975095999999994,-1.1696921000000027,-0.03351096199999696
9.930414999999995,-1.1665006000000024,0.014361841000003041
9.885733999999994,-1.1633091000000024,0.06223464400000304
9.885733999999994,-1.1633091000000022,0.06223464400000304
9.901691333333327,-1.1665006000000024,0.1452141626666697
9.91764866666666,-1.1696921000000022,0.22819368133333637
9.933605999999992,-1.172883600000002,0.31117320000000304
9.933605999999992,-1.1728836000000018,0.311173200000003
9.933605999999992,-1.1728836000000018,0.311173200000003
9.946372333333327,-1.2016073000000016,0.35585449000000297
9.95913866666666,-1.2303310000000016,0.40053578000000295
9.971904999999994,-1.2590547000000014,0.44521707000000293
10.003819999999996,-1.2782038333333345,0.4133018633333363
10.035734999999995,-1.2973529666666679,0.38138665666666965
10.067649999999995,-1.3165021000000012,0.34947145000000296
10.067649999999995,-1.3165021000000012,0.34947145000000296
10.067649999999995,-1.3165021000000012,0.34947145000000296
10.010202833333329,-1.3356512000000011,0.2760664866666696
9.952755666666661,-1.354800300000001,0.20266152333333629
9.895308499999993,-1.373949400000001,0.12925656000000293
9.87296766666666,-1.373949400000001,0.0813837596666696
9.850626833333328,-1.373949400000001,0.03351095933333626
9.828285999999993,-1.373949400000001,-0.014361840999997067
9.828285999999993,-1.373949400000001,-0.014361840999997067
9.841052333333328,-1.3707579000000012,-0.0047872803333304
9.853818666666662,-1.3675664000000014,0.004787280333336266
9.866584999999995,-1.3643749000000016,0.014361841000002934
9.866584999999995,-1.364374900000002,0.014361841000002934
9.895308666666663,-1.3675664000000018,0.059043124000002944
9.92403233333333,-1.3707579000000016,0.10372440700000295
9.952755999999995,-1.3739494000000014,0.14840569000000295
9.952755999999995,-1.3739494000000014,0.14840569000000292
9.975096333333328,-1.3611833333333347,0.18670393333333624
9.99743666666666,-1.348417266666668,0.22500217666666955
10.019776999999992,-1.3356512000000016,0.26330042000000287
10.019776999999992,-1.3356512000000016,0.26330042000000287
10.000627999999994,-1.3228851000000015,0.30479018000000285
9.981478999999995,-1.3101190000000014,0.3462799400000029
9.962329999999996,-1.2973529000000015,0.3877697000000029
9.962329999999996,-1.2973529000000015,0.3877697000000029
9.955946999999997,-1.3069274666666681,0.35585450000000285
9.949563999999997,-1.316502033333335,0.32393930000000287
9.943180999999997,-1.326076600000002,0.29202410000000295
9.943181,-1.326076600000002,0.29202410000000295
9.939989333333333,-1.3388427000000018,0.23138521466666961
9.936797666666667,-1.3516088000000017,0.17074632933333625
9.933606000000001,-1.3643749000000014,0.1101074440000029
9.933606000000003,-1.3643749000000014,0.1101074440000029
9.92084016666667,-1.377140966666668,0.0781922430000029
9.908074333333337,-1.3899070333333345,0.0462770420000029
9.895308500000004,-1.4026731000000012,0.014361841000002892
9.895308500000004,-1.4026731000000012,0.014361841000002892
9.904883000000003,-1.4026731000000012,0.02074488066666956
9.914457500000003,-1.4026731000000012,0.027127920333336223
9.924032000000002,-1.4026731000000012,0.033510960000002886
9.924032,-1.4026731000000012,0.033510960000002886
9.924032,-1.4026731000000012,0.033510960000002886
9.924032,-1.3803324666666679,0.06223464333333622
9.924032,-1.3579918333333343,0.09095832666666955
9.924032,-1.335651200000001,0.11968201000000289
9.914457500000001,-1.326076600000001,0.15159720666666954
9.904883000000002,-1.316502000000001,0.18351240333333618
9.895308500000002,-1.306927400000001,0.21542760000000283
9.895308500000004,-1.306927400000001,0.21542760000000283
9.911266000000003,-1.3260765666666676,0.1803208813333362
9.927223500000002,-1.3452257333333344,0.14521416266666956
9.943181000000001,-1.3643749000000012,0.11010744400000289
9.943181,-1.3643749000000014,0.11010744400000289
9.946372666666665,-1.3739494666666683,0.10691592266666955
9.949564333333331,-1.383524033333335,0.10372440133333621
9.952755999999997,-1.3930986000000019,0.10053288000000288
9.952755999999995,-1.3930986000000019,0.10053288000000288
9.952755999999995,-1.4026731333333353,0.13563960000000289
9.952755999999995,-1.4122476666666686,0.17074632000000287
9.952755999999995,-1.421822200000002,0.20585304000000285
9.952755999999995,-1.421822200000002,0.20585304000000285
9.994245666666663,-1.4409713333333354,0.21542760333333622
10.035735333333328,-1.4601204666666687,0.22500216666666958
10.077224999999993,-1.479269600000002,0.23457673000000293
10.077224999999993,-1.479269600000002,0.23457673000000293
10.054884333333328,-1.453737433333335,0.25053433333333625
10.032543666666664,-1.4282052666666682,0.26649193666666954
10.010202999999999,-1.4026731000000012,0.28244954000000283
10.010203,-1.4026731000000012,0.28244954000000283
9.994245333333334,-1.367566366666668,0.2792580200000028
9.978287666666665,-1.3324596333333347,0.2760665000000029
9.962329999999998,-1.2973529000000015,0.27287498000000293
9.962329999999996,-1.2973529000000017,0.27287498000000293
9.959138666666663,-1.2686292333333349,0.263300420000003
9.955947333333329,-1.2399055666666683,0.253725860000003
9.952755999999995,-1.2111819000000015,0.24415130000000304
9.952755999999995,-1.2111819000000015,0.24415130000000304
9.94956433333333,-1.2111819000000015,0.20266153666666972
9.946372666666663,-1.2111819000000015,0.1611717733333364
9.943180999999997,-1.2111819000000015,0.11968201000000307
9.943181,-1.2111819000000015,0.11968201000000307
9.9272235,-1.2175649666666681,0.10691592833333641
9.911266000000001,-1.223948033333335,0.09414984666666974
9.895308500000002,-1.2303311000000017,0.08138376500000306
9.895308500000004,-1.2303311000000017,0.08138376500000306
9.904883000000003,-1.2526717000000016,0.10372440666666975
9.914457500000003,-1.2750123000000018,0.12606504833333643
9.924032000000002,-1.2973529000000017,0.14840569000000312
9.924032,-1.2973529000000017,0.14840569000000312
9.911266000000001,-1.2973529000000017,0.18670393333333643
9.898500000000002,-1.2973529000000017,0.22500217666666975
9.885734000000003,-1.2973529000000017,0.26330042000000303
9.885734000000005,-1.2973529000000017,0.2633004200000031
9.86977633333334,-1.284586833333335,0.31436474666666975
9.853818666666674,-1.2718207666666685,0.36542907333333646
9.837861000000009,-1.2590547000000019,0.4164934000000031
9.837861000000009,-1.2590547000000019,0.4164934000000031
9.77722200000001,-1.2526716666666686,0.40691883333333645
9.71658300000001,-1.2462886333333352,0.3973442666666698
9.65594400000001,-1.239905600000002,0.3877697000000031
9.655944000000012,-1.239905600000002,0.3877697000000031
9.681476333333345,-1.2016073333333352,0.37500361666666976
9.70700866666668,-1.1633090666666686,0.36223753333333647
9.732541000000012,-1.1250108000000019,0.3494714500000031
9.732541000000012,-1.1250108000000019,0.3494714500000031
9.825095000000013,-1.0803295466666685,0.5058559333333364
9.917649000000017,-1.0356482933333353,0.6622404166666697
10.010203000000018,-0.9909670400000019,0.8186249000000029
10.01020300000002,-0.9909670400000019,0.8186249000000029
10.045309666666686,-1.0611804600000019,1.0675635000000028
10.080416333333352,-1.1313938800000019,1.3165021000000026
10.11552300000002,-1.2016073000000018,1.5654407000000028
10.11552300000002,-1.2016073000000018,1.5654407000000028
10.09318233333335,-1.2111819000000017,1.6324626000000029
10.070841666666684,-1.2207565000000018,1.699484500000003
10.048501000000018,-1.2303311000000017,1.7665064000000028
10.048501000000016,-1.2303311000000017,1.7665064000000028
9.857010000000017,-1.3133106000000019,1.530333900000003
9.665519000000018,-1.3962901000000019,1.2941614000000028
9.474028000000018,-1.479269600000002,1.0579889000000027
9.47402800000002,-1.479269600000002,1.0579889000000027
9.231472333333354,-1.4665035333333354,0.9845839466666696
8.988916666666688,-1.453737466666669,0.9111789933333364
8.746361000000023,-1.4409714000000022,0.8377740400000032
8.746361000000023,-1.4409714000000022,0.8377740400000032
8.813383000000025,-1.4665035666666686,0.9175620600000031
8.880405000000026,-1.492035733333335,0.997350080000003
8.947427000000028,-1.5175679000000013,1.0771381000000029
8.947427000000028,-1.5175679000000013,1.0771381000000029
9.027214666666694,-1.5175679000000013,1.1218193666666696
9.10700233333336,-1.5175679000000013,1.166500633333336
9.186790000000025,-1.5175679000000013,1.2111819000000026
9.186790000000025,-1.5175679000000013,1.2111819000000026
9.001682000000025,-1.4505459666666682,1.306927500000003
8.816574000000026,-1.383524033333335,1.402673100000003
8.631466000000026,-1.316502100000002,1.498418700000003
8.631466000000028,-1.316502100000002,1.498418700000003
8.124014433333361,-1.2750123333333354,1.6196964666666698
7.616562866666694,-1.233522566666669,1.7409742333333362
7.109111300000027,-1.1920328000000024,1.8622520000000027
7.109111300000026,-1.1920328000000027,1.8622520000000027
6.955918300000026,-1.1601175666666692,1.6867184000000028
6.802725300000027,-1.1282023333333357,1.511184800000003
6.649532300000028,-1.0962871000000025,1.335651200000003
6.649532300000028,-1.0962871000000025,1.335651200000003
7.469752866666695,-1.1792666333333357,1.1058617500000028
8.28997343333336,-1.262246166666669,0.8760723000000029
9.110194000000027,-1.345225700000002,0.646282850000003
9.110194000000028,-1.345225700000002,0.646282850000003
10.539995000000028,-1.3707578666666687,0.6175591533333362
11.969796000000029,-1.3962900333333355,0.5888354566666695
13.399597000000028,-1.421822200000002,0.5601117600000028
13.399597000000028,-1.421822200000002,0.5601117600000028
12.943210000000029,-1.386715500000002,0.4994728866666695
12.48682300000003,-1.351608800000002,0.43883401333333616
12.03043600000003,-1.316502100000002,0.3781951400000028
12.03043600000003,-1.316502100000002,0.3781951400000028
13.540024666666696,-1.4537374666666685,-0.22181063999999717
15.049613333333362,-1.5909728333333353,-0.8218164199999971
16.559202000000028,-1.7282082000000019,-1.421822199999997
16.559202000000028,-1.7282082000000019,-1.421822199999997
14.155987333333362,-1.763314900000002,-1.022882189999997
11.752772666666695,-1.798421600000002,-0.6239421799999968
9.34955800000003,-1.833528300000002,-0.22500216999999675
9.34955800000003,-1.833528300000002,-0.22500216999999675
8.896362233333363,-1.6611862333333354,-0.14840568666666343
8.443166466666696,-1.4888441666666685,-0.07180920333333009
7.989970700000029,-1.316502100000002,0.004787280000003243
7.989970700000029,-1.316502100000002,0.004787280000003243
7.389964900000028,-1.539908500000002,0.05266008333333658
6.789959100000028,-1.763314900000002,0.10053288666666992
6.1899533000000275,-1.986721300000002,0.14840569000000323
6.1899533000000275,-1.986721300000002,0.14840569000000323
6.212293866666695,-1.6292710466666687,0.4994728933333366
6.234634433333362,-1.2718207933333352,0.85054009666667
6.256975000000029,-0.914370540000002,1.2016073000000034
6.256975000000029,-0.914370540000002,1.2016073000000034
7.121877000000029,-1.0675634933333351,0.9782009000000033
7.986779000000028,-1.2207564466666685,0.7547945000000033
8.851681000000026,-1.3739494000000017,0.5313881000000032
8.851681000000028,-1.3739494000000017,0.5313881000000032
9.036789000000027,-1.523950833333335,0.5952185000000032
9.221897000000027,-1.6739522666666682,0.6590489000000032
9.407005000000026,-1.8239537000000015,0.722879300000003
10.425100000000027,-2.0282110000000015,0.48032377333333637
11.443195000000026,-2.2324683000000016,0.23776824666666974
12.461290000000027,-2.4367256000000017,-0.0047872799999969145
12.461290000000027,-2.4367256000000017,-0.0047872799999969145
12.461290000000027,-2.4367256000000017,-0.0047872799999969145
12.346395666666695,-2.503747533333335,0.09414984666666976
12.231501333333362,-2.5707694666666687,0.19308697333333638
12.11660700000003,-2.637791400000002,0.29202410000000306
12.11660700000003,-2.6377914000000025,0.29202410000000306
12.707038000000031,-1.964380643333336,0.4356425000000031
13.29746900000003,-1.2909698866666692,0.5792609000000031
13.88790000000003,-0.6175591300000026,0.722879300000003
13.88790000000003,-0.6175591300000026,0.722879300000003
11.791071166666697,-0.7643690533333359,0.7803266666666696
9.694242333333364,-0.9111789766666692,0.8377740333333362
7.59741350000003,-1.0579889000000025,0.8952214000000028
7.59741350000003,-1.0579889000000025,0.8952214000000028
7.4825188000000304,-1.0420313000000025,0.8026673100000029
7.367624100000032,-1.0260737000000029,0.7101132200000029
7.252729400000034,-1.010116100000003,0.6175591300000028
7.252729400000035,-1.010116100000003,0.6175591300000028
7.172941500000036,-1.0611804333333363,0.6941556200000027
7.093153600000036,-1.1122447666666695,0.7707521100000028
7.013365700000037,-1.1633091000000029,0.8473486000000028
7.013365700000037,-1.1633091000000029,0.8473486000000028
7.45698713333337,-1.134585433333336,0.997350033333336
7.900608566666702,-1.1058617666666695,1.1473514666666693
8.344230000000037,-1.0771381000000027,1.2973529000000026
8.344230000000037,-1.0771381000000027,1.2973529000000026
9.314452000000037,-1.128202433333336,1.061180433333336
10.284674000000036,-1.1792667666666692,0.8250079666666693
11.254896000000036,-1.2303311000000026,0.5888355000000027
11.254896000000036,-1.2303311000000026,0.5888355000000027
12.729378333333367,-1.3324597000000027,0.08776682000000276
14.2038606666667,-1.4345883000000026,-0.4133018599999972
15.678343000000032,-1.5367169000000027,-0.9143705399999972
15.678343000000032,-1.5367169000000027,-0.9143705399999972
14.7081206666667,-1.7792724666666693,-0.694155646666664
13.737898333333368,-2.021828033333336,-0.4739407533333306
12.767676000000035,-2.2643836000000026,-0.25372585999999725
12.767676000000035,-2.2643836000000026,-0.25372585999999725
10.65488983333337,-1.680335400000003,0.33670539333333593
8.542103666666703,-1.096287200000003,0.9271366466666691
6.429317500000036,-0.5122390000000031,1.5175679000000022
6.429317500000036,-0.5122390000000031,1.5175679000000022
5.854843800000036,-0.9622433333333363,1.1250109000000024
5.280370100000035,-1.4122476666666695,0.7324539000000025
4.705896400000034,-1.8622520000000027,0.33989690000000267
4.705896400000033,-1.8622520000000027,0.33989690000000267
5.436754600000033,-1.993104333333336,0.21542761333333602
6.167612800000033,-2.1239566666666696,0.09095832666666935
6.8984710000000335,-2.254809000000003,-0.03351095999999732
6.8984710000000335,-2.254809000000003,-0.03351095999999732
8.187845000000033,-2.0090619666666694,0.2250021600000027
9.477219000000034,-1.763314933333336,0.4835152800000027
10.766593000000034,-1.5175679000000024,0.7420284000000028
10.766593000000034,-1.5175679000000024,0.7420284000000028
12.1325636666667,-1.8016132000000027,0.5728778433333361
13.498534333333367,-2.0856585000000027,0.40372728666666946
14.864505000000035,-2.369703800000003,0.23457673000000281
14.823015333333366,-2.235659933333336,0.6462828200000028
14.781525666666697,-2.101616066666669,1.0579889100000028
14.74003600000003,-1.9675722000000022,1.469695000000003
14.74003600000003,-1.9675722000000022,1.469695000000003
14.74003600000003,-1.9675722000000022,1.469695000000003
12.253841666666696,-1.3771409600000022,2.009061900000003
9.767647333333365,-0.7867097200000023,2.548428800000003
7.281453000000032,-0.19627848000000228,3.0877957000000027
7.281453000000032,-0.19627848000000228,3.0877957000000023
7.332517333333366,-0.44840858666666894,2.4590662333333353
7.3835816666667,-0.7005386933333355,1.8303367666666686
7.434646000000034,-0.9526688000000022,1.2016073000000018
7.434646000000034,-0.9526688000000022,1.2016073000000018
7.322942800000033,-1.2271395333333355,1.0675634666666685
7.211239600000032,-1.5016102666666689,0.933519633333335
7.099536400000031,-1.7760810000000025,0.7994758000000016
7.099536400000031,-1.7760810000000025,0.7994758000000016
8.120822933333365,-1.6452286666666691,0.9686263333333348
9.142109466666698,-1.5143763333333358,1.137776866666668
10.163396000000033,-1.3835240000000024,1.3069274000000013
10.163396000000033,-1.3835240000000024,1.306927400000001
10.619783333333366,-1.476078066666669,1.1824581533333343
11.0761706666667,-1.5686321333333357,1.0579889066666677
11.532558000000035,-1.6611862000000024,0.9335196600000009
12.407034666666702,-1.370757886666669,0.4228764400000009
13.281511333333368,-1.0803295733333353,-0.08776677999999909
14.155988000000034,-0.7899012600000018,-0.5984099999999991
14.155988000000034,-0.7899012600000018,-0.5984099999999991
12.371928000000032,-1.0324568066666682,-0.4292594433333325
10.58786800000003,-1.2750123533333346,-0.2601088866666658
8.80380800000003,-1.517567900000001,-0.09095832999999916
8.803808000000028,-1.517567900000001,-0.09095832999999916
8.803808000000028,-1.517567900000001,-0.09095832999999916
8.797425000000029,-1.3675664333333346,0.06861768000000083
8.79104200000003,-1.2175649666666681,0.2281936900000008
8.78465900000003,-1.0675635000000019,0.3877697000000009
7.756989533333363,-1.4856526666666685,0.3398969000000009
6.7293200666666975,-1.903741833333335,0.29202410000000084
5.701650600000032,-2.3218310000000013,0.24415130000000085
5.701650600000032,-2.3218310000000013,0.24415130000000085
5.701650600000032,-2.3218310000000013,0.24415130000000085
5.96335540000003,-1.993104400000001,0.6718150000000009
6.22506020000003,-1.6643778000000011,1.099478700000001
6.486765000000029,-1.335651200000001,1.527142400000001
8.682530666666695,-1.6675692666666675,1.227139500000001
10.878296333333362,-1.9994873333333343,0.9271366000000011
13.074062000000028,-2.331405400000001,0.627133700000001
13.074062000000028,-2.3314054000000013,0.6271337000000011
14.181519666666697,-2.423959500000002,0.48032378000000114
15.288977333333364,-2.516513600000002,0.3335138600000012
16.39643500000003,-2.6090677000000024,0.18670394000000132
16.39643500000003,-2.6090677000000024,0.18670394000000132
14.484714333333363,-2.433534066666669,0.7611775600000014
12.572993666666695,-2.258000433333336,1.3356511800000013
10.661273000000028,-2.0824668000000024,1.9101248000000013
10.661273000000028,-2.0824668000000024,1.9101248000000013
9.13253483333336,-1.4154391216666689,2.1654464666666677
7.603796666666692,-0.7484114433333354,2.4207681333333344
6.075058500000026,-0.08138376500000206,2.676089800000001
6.075058500000026,-0.08138376500000206,2.676089800000001
6.075058500000026,-0.08138376500000206,2.676089800000001
6.608042433333359,-0.3175562633333355,2.3505547000000013
7.141026366666691,-0.5537287616666688,2.0250196000000016
7.674010300000024,-0.7899012600000023,1.6994845000000016
8.130397533333358,-1.2079904066666691,1.4984187000000013
8.58678476666669,-1.6260795533333356,1.2973529000000013
9.043172000000025,-2.0441687000000024,1.0962871000000012
9.043172000000025,-2.0441687000000024,1.0962871000000012
9.298493666666692,-2.0728923333333356,1.3516087333333349
9.55381533333336,-2.1016159666666687,1.606930366666668
9.809137000000026,-2.1303396000000014,1.8622520000000016
9.809137000000026,-2.1303396000000014,1.8622520000000016
9.809137000000026,-2.1303396000000014,1.8622520000000016
10.300631333333358,-1.7250165800000012,1.5877812666666682
10.792125666666692,-1.3196935600000013,1.313310533333335
11.283620000000026,-0.9143705400000014,1.0388398000000016
12.742144666666691,-1.2526716933333344,0.537771143333335
14.200669333333359,-1.5909728466666675,0.036702486666668234
15.659194000000026,-1.9292740000000006,-0.4643661699999984
15.659194000000026,-1.9292740000000006,-0.4643661699999984
15.659194000000026,-1.9292740000000006,-0.4643661699999984
12.588951433333358,-1.8654435666666676,-0.21223607999999847
9.518708866666692,-1.8016131333333345,0.039894010000001555
6.4484663000000255,-1.7377827000000015,0.29202410000000156
6.786767533333358,-1.7665063666666683,0.017553366666668253
7.125068766666691,-1.795230033333335,-0.25691736666666504
7.463370000000023,-1.8239537000000017,-0.5313880999999984
7.463370000000023,-1.8239537000000017,-0.5313880999999984
6.595276466666692,-1.986721233333335,-0.5250050666666651
5.72718293333336,-2.1494887666666687,-0.5186220333333318
4.859089400000028,-2.3122563000000023,-0.5122389999999984
4.859089400000029,-2.3122563000000027,-0.5122389999999984
6.355912266666695,-1.7952300466666695,0.2250021666666682
7.852735133333361,-1.2782037933333361,0.962243333333335
9.349558000000028,-0.7611775400000028,1.6994845000000016
9.349558000000028,-0.7611775400000026,1.6994845000000016
11.586813666666695,-0.9143704933333359,1.3516088000000017
13.82406933333336,-1.067563446666669,1.0037331000000018
16.061325000000025,-1.220756400000002,0.6558574000000017
16.061325000000025,-1.220756400000002,0.6558574000000017
14.886845666666693,-1.5303339333333354,1.0867126000000018
13.712366333333359,-1.8399114666666687,1.5175678000000017
12.537887000000026,-2.149489000000002,1.9484230000000016
12.537887000000026,-2.149489000000002,1.9484230000000016
11.280428333333361,-1.9452316333333357,2.0888499333333344
10.022969666666697,-1.740974266666669,2.229276866666668
8.765511000000032,-1.5367169000000025,2.3697038000000012
8.807000333333365,-1.290969866666669,2.104807600000001
8.848489666666696,-1.0452228333333355,1.8399114000000012
8.889979000000027,-0.7994758000000023,1.5750152000000017
8.889979000000025,-0.7994758000000023,1.5750152000000017
8.347420766666692,-1.2239480000000023,1.1409684600000016
7.804862533333359,-1.6484202000000023,0.7069217200000016
7.262304300000026,-2.0728924000000024,0.27287498000000165
7.262304300000026,-2.0728924000000024,0.2728749800000016
7.680393200000027,-2.200553166666669,0.22500217333333494
8.098482100000028,-2.328213933333336,0.17712936666666826
8.51657100000003,-2.4558747000000025,0.1292565600000016
8.51657100000003,-2.4558747000000025,0.1292565600000016
9.930414333333365,-2.3601291333333356,0.20266152333333495
11.344257666666698,-2.2643835666666683,0.2760664866666683
12.75810100000003,-2.1686380000000014,0.3494714500000016
12.75810100000003,-2.1686380000000014,0.3494714500000016
13.208105666666697,-2.0856584333333346,0.26010888833333495
13.658110333333363,-2.002678866666668,0.1707463266666683
14.108115000000032,-1.9196993000000013,0.08138376500000162
14.108115000000032,-1.9196993000000013,0.08138376500000162
12.215543666666699,-1.8462943666666682,0.2952156100000016
10.322972333333368,-1.7728894333333354,0.5090474550000016
8.430401000000037,-1.6994845000000023,0.7228793000000016
8.430401000000037,-1.6994845000000023,0.7228793000000016
7.731458000000038,-1.7888470666666691,0.5537287333333348
7.032515000000038,-1.878209633333336,0.38457816666666816
6.333572000000038,-1.9675722000000029,0.2154276000000015
6.333572000000038,-1.9675722000000029,0.2154276000000015
5.794205000000038,-1.7122505666666694,0.14521416000000148
5.2548380000000385,-1.4569289333333362,0.07500072000000148
4.715471000000039,-1.2016073000000027,0.0047872800000014855
4.715471000000039,-1.2016073000000027,0.004787280000001485
6.486764666666705,-1.185649733333336,0.32393928666666816
8.258058333333372,-1.1696921666666693,0.6430912933333349
10.029352000000038,-1.1537346000000026,0.9622433000000016
10.029352000000037,-1.1537346000000026,0.9622433000000016
11.519791666666706,-2.146297400000003,1.2654377000000017
13.01023133333337,-3.1388602000000034,1.5686321000000019
14.500671000000034,-4.131423000000004,1.8718265000000018
14.500671000000034,-4.131423000000004,1.8718265000000018
14.191093666666703,-4.211210900000004,2.095232933333335
13.881516333333371,-4.290998800000003,2.3186393666666683
13.571939000000038,-4.370786700000003,2.5420458000000012
13.571939000000038,-4.370786700000003,2.542045800000001
11.979370333333371,-3.3941816000000027,2.9058790666666674
10.386801666666704,-2.4175765000000027,3.269712333333334
8.794233000000036,-1.440971400000003,3.6335456
8.730402666666704,-1.0675635200000027,3.4484374
8.66657233333337,-0.6941556400000027,3.2633292000000007
8.602742000000037,-0.3207477600000028,3.078221000000001
8.602742000000037,-0.3207477600000028,3.0782210000000014
8.49423033333337,-0.9367111733333361,2.5292796000000015
8.385718666666703,-1.5526745866666696,1.9803382000000018
8.277207000000034,-2.168638000000003,1.4313968000000017
8.277207000000034,-2.168638000000003,1.4313968000000017
9.751689333333365,-2.2101277666666697,1.2686292666666683
11.226171666666696,-2.251617533333336,1.1058617333333352
12.700654000000029,-2.2931073000000026,0.9430942000000018
12.700654000000029,-2.2931073000000026,0.9430942000000018
12.572993333333363,-2.120765200000003,0.8473486000000018
12.445332666666696,-1.948423100000003,0.7516030000000017
12.31767200000003,-1.7760810000000031,0.6558574000000017
12.31767200000003,-1.7760810000000031,0.6558574000000017
12.655973333333364,-1.9324655000000035,0.2505343466666684
12.994274666666698,-2.088850000000004,-0.15478870666666492
13.332576000000032,-2.245234500000004,-0.5601117599999982
13.332576000000032,-2.245234500000004,-0.5601117599999982
12.352779333333364,-1.8909757333333375,-0.15159717333333156
11.372982666666696,-1.5367169666666711,0.2569174133333351
10.39318600000003,-1.1824582000000043,0.6654320000000018
10.393186000000028,-1.1824582000000043,0.6654320000000018
9.611263333333362,-1.0228821900000042,0.9494773000000016
8.829340666666695,-0.8633061800000043,1.2335226000000015
8.047418000000029,-0.7037301700000042,1.5175679000000013
8.047418000000029,-0.7037301700000042,1.5175679000000013
7.578264666666695,-0.6111760966666709,1.6516117000000012
7.109111333333362,-0.5186220233333376,1.7856555000000014
6.6399580000000284,-0.42606795000000425,1.9196993000000013
6.6399580000000284,-0.42606795000000425,1.9196993000000013
7.156984000000029,-0.3398969033333376,1.7058674666666682
7.674010000000028,-0.2537258566666709,1.4920356333333349
8.191036000000029,-0.16755481000000425,1.2782038000000016
8.191036000000029,-0.16755481000000425,1.2782038000000018
10.348504000000029,-0.4356425066666709,0.5026644333333351
12.505972000000028,-0.7037302033333376,-0.27287493333333157
14.663440000000028,-0.9718179000000043,-1.0484142999999981
14.663440000000028,-0.9718179000000043,-1.0484142999999981
13.725132666666694,-1.4696950333333376,-0.853731589999998
12.78682533333336,-1.967572166666671,-0.659048879999998
11.848518000000025,-2.4654493000000044,-0.4643661699999981
11.848518000000025,-2.4654493000000044,-0.46436616999999814
12.065541666666691,-1.954806086666671,-0.1228735266666648
12.282565333333359,-1.4441628733333378,0.21861911666666853
12.499589000000027,-0.9335196600000045,0.5601117600000017
12.499589000000027,-0.9335196600000045,0.5601117600000017
11.657027666666693,-0.7675606066666713,0.6367082600000019
10.814466333333359,-0.601601553333338,0.713304760000002
9.971905000000026,-0.43564250000000476,0.789901260000002
9.971905000000026,-0.43564250000000476,0.789901260000002
9.971905000000026,-0.43564250000000476,0.789901260000002
8.75912733333336,-0.7324538666666713,1.013307640000002
7.546349666666693,-1.029265233333338,1.2367140200000022
6.333572000000026,-1.3260766000000048,1.4601204000000025
6.866555766666693,-1.9835298000000048,1.306927466666669
7.39953953333336,-2.6409830000000043,1.1537345333333358
7.9325233000000255,-3.2984362000000047,1.0005416000000025
7.9325233000000255,-3.2984362000000047,1.0005416000000025
7.9325233000000255,-3.2984362000000047,1.0005416000000025
8.392102200000025,-3.349500466666671,1.3069275000000022
8.851681100000027,-3.4005647333333378,1.613313400000002
9.311260000000027,-3.451629000000004,1.919699300000002
9.31126000000003,-3.451629000000004,1.919699300000002
9.646369666666697,-3.5824813333333374,1.935656933333335
9.981479333333365,-3.7133336666666708,1.9516145666666684
10.316589000000032,-3.844186000000004,1.9675722000000018
10.109140166666698,-3.722908200000004,1.4313968000000017
9.901691333333366,-3.6016304000000035,0.8952214000000017
9.694242500000032,-3.4803526000000033,0.35904600000000175
9.694242500000032,-3.4803526000000033,0.35904600000000175
9.694242500000032,-3.4803526000000033,0.35904600000000175
10.099565666666699,-3.4165222333333367,0.29840712333333513
10.504888833333366,-3.3526918666666696,0.2377682466666685
10.910212000000032,-3.288861500000003,0.17712937000000184
10.910212000000032,-3.288861500000003,0.17712937000000184
10.303823000000031,-2.87715536666667,0.4133018466666685
9.697434000000031,-2.4654492333333367,0.6494743233333352
9.091045000000031,-2.0537431000000037,0.8856468000000021
9.091045000000031,-2.0537431000000037,0.8856468000000021
8.641040666666699,-1.9484229666666704,0.8664977000000021
8.191036333333367,-1.8431028333333372,0.8473486000000022
7.741032000000035,-1.737782700000004,0.8281995000000023
7.741032000000035,-1.737782700000004,0.8281995000000023
8.012311333333368,-1.7569318000000038,0.6909641333333356
8.2835906666667,-1.7760809000000037,0.5537287666666689
8.554870000000033,-1.7952300000000037,0.4164934000000023
8.554870000000031,-1.7952300000000037,0.4164934000000023
9.952756000000031,-1.7920385000000036,0.2569173853333356
11.35064200000003,-1.7888470000000034,0.09734137066666892
12.74852800000003,-1.7856555000000034,-0.06223464399999775
12.74852800000003,-1.7856555000000034,-0.06223464399999775
11.931498666666698,-1.7250166333333368,0.11968200400000224
11.114469333333366,-1.66437776666667,0.30159865200000224
10.297440000000032,-1.6037389000000033,0.4835153000000023
10.297440000000032,-1.6037389000000033,0.4835153000000023
9.857010166666699,-1.8303368000000033,0.4356425000000024
9.416580333333366,-2.0569347000000033,0.38776970000000244
8.976150500000033,-2.283532600000003,0.3398969000000025
8.976150500000033,-2.2835326000000036,0.3398969000000025
8.274016000000032,-2.152680300000003,0.5601118000000025
7.571881500000031,-2.0218280000000033,0.7803267000000026
6.86974700000003,-1.8909757000000031,1.0005416000000027
6.86974700000003,-1.8909757000000031,1.0005416000000027
6.4931476666666965,-1.5239508866666698,1.4601204666666696
6.116548333333363,-1.1569260733333362,1.9196993333333363
5.739949000000029,-0.7899012600000027,2.379278200000003
5.739949000000029,-0.7899012600000027,2.379278200000003
6.521871333333362,-1.2462886066666694,2.3377884666666695
7.303793666666696,-1.7026759533333362,2.296298733333336
8.08571600000003,-2.159063300000003,2.254809000000003
8.085716000000032,-2.1590633000000032,2.254809000000003
8.542103666666698,-2.436725600000003,2.395235933333336
8.998491333333364,-2.7143879000000033,2.5356628666666694
9.454879000000032,-2.992050200000003,2.676089800000003
9.454879000000032,-2.992050200000003,2.676089800000003
9.812329000000032,-2.75587766666667,2.529279800000003
10.169779000000032,-2.519705133333336,2.382469800000003
10.527229000000032,-2.2835326000000027,2.2356598000000036
10.527229000000032,-2.2835326000000022,2.2356598000000036
11.398514333333365,-2.5803440666666693,1.5845897133333366
12.269799666666698,-2.8771555333333354,0.93351962666667
13.14108500000003,-3.1739670000000024,0.2824495400000033
13.141085000000027,-3.1739670000000024,0.2824495400000033
13.36449100000003,-3.2314143333333356,0.16117177166666993
13.587897000000032,-3.2888616666666692,0.03989400333333659
13.811303000000033,-3.346309000000003,-0.08138376499999674
13.811303000000033,-3.346309000000003,-0.08138376499999674
11.184682133333366,-2.953752000000003,0.4228764233333366
8.558061266666698,-2.5611950000000028,0.9271366116666698
5.931440400000031,-2.1686380000000027,1.4313968000000032
5.931440400000031,-2.1686380000000027,1.4313968000000032
5.599522266666697,-1.9196994000000025,1.2271395000000032
5.267604133333364,-1.6707608000000025,1.022882200000003
4.9356860000000315,-1.4218222000000023,0.8186249000000031
4.9356860000000315,-1.4218222000000023,0.8186249000000031
4.926111466666698,-1.4601204333333355,0.8058588200000031
4.916536933333365,-1.4984186666666688,0.7930927400000031
4.906962400000032,-1.536716900000002,0.7803266600000031
4.906962400000032,-1.536716900000002,0.7803266600000031
6.499530933333364,-1.456928900000002,1.077138040000003
8.092099466666697,-1.377140900000002,1.373949420000003
9.684668000000029,-1.297352900000002,1.670760800000003
9.684668000000029,-1.297352900000002,1.670760800000003
11.90277433333336,-1.3260766000000022,1.753740300000003
14.120880666666693,-1.354800300000002,1.8367198000000027
16.338987000000028,-1.383524000000002,1.9196993000000024
15.378339666666696,-1.2143734333333351,2.2675750333333364
14.417692333333363,-1.0452228666666685,2.6154507666666693
13.457045000000031,-0.8760723000000019,2.9633265000000026
13.457045000000031,-0.8760723000000019,2.963326500000002
13.457045000000031,-0.8760723000000019,2.963326500000002
11.941072666666697,-0.7228793333333351,2.6218338333333358
10.425100333333361,-0.5696863666666684,2.280341166666669
8.909128000000026,-0.41649340000000157,1.9388485000000022
8.909128000000026,-0.41649340000000157,1.9388485000000022
8.554869333333363,-0.6016015666666682,1.6994844666666689
8.200610666666698,-0.7867097333333349,1.4601204333333355
7.846352000000034,-0.9718179000000017,1.2207564000000024
7.846352000000034,-0.9718179000000017,1.2207564000000024
7.7442235333333675,-1.536716933333335,1.156926033333336
7.642095066666701,-2.1016159666666687,1.0930956666666696
7.539966600000034,-2.666515000000002,1.029265300000003
7.539966600000034,-2.666515000000002,1.029265300000003
7.485710633333368,-2.634599833333335,1.3260766333333363
7.431454666666702,-2.6026846666666685,1.6228879666666696
7.377198700000036,-2.570769500000002,1.9196993000000024
7.377198700000036,-2.570769500000002,1.9196993000000024
9.304876966666702,-2.0122534666666687,1.4058645800000023
11.23255523333337,-1.4537374333333355,0.8920298600000023
13.160233500000034,-0.8952214000000019,0.37819514000000226
13.160233500000032,-0.8952214000000019,0.37819514000000226
13.788963000000033,-1.4473543333333352,0.29521561333333557
14.417692500000035,-1.9994872666666685,0.21223608666666893
15.046422000000035,-2.5516202000000017,0.12925656000000227
15.046422000000035,-2.5516202000000017,0.12925656000000227
12.73576133333337,-1.4377797133333352,0.7133047733333356
10.425100666666703,-0.32393922666666847,1.297352986666669
8.114440000000037,0.7899012599999983,1.8814012000000024
8.114440000000037,0.7899012599999983,1.8814012000000024
7.555924000000037,0.5186220393333315,1.0803296000000024
6.997408000000038,0.24734281866666488,0.2792580000000025
6.438892000000038,-0.0239364020000018,-0.5218135999999974
6.438892000000038,-0.0239364020000018,-0.5218135999999974
6.196336500000037,-0.6239421680000018,-0.7005386999999974
5.9537810000000375,-1.223947934000002,-0.8792637999999974
5.711225500000037,-1.8239537000000017,-1.0579888999999973
5.711225500000037,-1.8239537000000017,-1.0579888999999973
6.062292666666704,-1.147351453333335,-0.22500213333333074
6.413359833333373,-0.47074920666666853,0.607984633333336
6.76442700000004,0.20585303999999813,1.4409714000000025
6.76442700000004,0.20585303999999813,1.4409714000000022
10.281482000000041,-0.4420255400000019,1.2239480200000021
13.798537000000044,-1.089904120000002,1.0069246400000023
17.315592000000045,-1.737782700000002,0.7899012600000023
17.315592000000045,-1.7377827000000015,0.7899012600000023
16.923035333333377,-2.133531233333335,1.0388398066666689
16.530478666666706,-2.5292797666666686,1.2877783533333356
16.13792200000004,-2.9250283000000024,1.536716900000002
16.137922000000035,-2.9250283000000024,1.536716900000002
12.853847666666704,-2.1335312666666693,2.2101276333333355
9.569773333333371,-1.3420342333333357,2.8835383666666687
6.2856990000000375,-0.5505372000000023,3.5569491000000024
6.869747333333371,-0.362237519666669,3.008007666666669
7.453795666666704,-0.17393783933333573,2.4590662333333353
8.037844000000037,0.0143618409999976,1.910124800000002
8.037844000000037,0.0143618409999976,1.910124800000002
8.037844000000037,0.0143618409999976,1.910124800000002
7.8910338333333705,-0.5664948393333358,1.9739552000000018
7.744223666666703,-1.147351519666669,2.0377856000000016
7.5974135000000365,-1.7282082000000025,2.1016160000000017
7.377198666666704,-1.7122506000000024,1.9165078333333352
7.1569838333333715,-1.6962930000000023,1.731399666666669
6.93676900000004,-1.6803354000000021,1.5462915000000024
6.936769000000041,-1.6803354000000021,1.5462915000000024
8.775084333333375,-1.377140976666669,1.0707550033333357
10.613399666666709,-1.0739465533333357,0.595218506666669
12.451715000000043,-0.7707521300000023,0.11968201000000223
12.451715000000043,-0.7707521300000023,0.11968201000000223
12.451715000000043,-0.7707521300000023,0.11968201000000223
13.638961000000043,-1.2877784200000022,-0.12925655999999774
14.826207000000041,-1.804804710000002,-0.3781951299999977
16.01345300000004,-2.3218310000000018,-0.6271336999999977
13.61342966666671,-1.4888442100000017,-0.461174653333331
11.213406333333376,-0.6558574200000016,-0.2952156066666644
8.813383000000044,0.17712936999999843,-0.12925655999999774
8.813383000000044,0.17712936999999843,-0.12925655999999774
8.813383000000044,0.17712936999999843,-0.12925655999999774
8.350612566666712,-0.1643632866666682,-0.3015986566666644
7.887842133333379,-0.5058559433333348,-0.4739407533333311
7.425071700000046,-0.8473486000000015,-0.6462828499999977
7.425071700000046,-0.8473486000000013,-0.6462828499999977
6.65591523333338,-1.032456766666668,-0.4547916333333311
5.886758766666713,-1.2175649333333347,-0.2633004166666644
5.117602300000045,-1.4026731000000012,-0.0718091999999978
6.129314533333378,-0.8920298800000013,0.08138376666666887
7.141026766666712,-0.3813866600000013,0.23457673333333554
8.152739000000047,0.12925655999999863,0.3877697000000022
8.152739000000048,0.12925655999999863,0.3877697000000022
11.698517666666717,-0.7292623933333346,0.14202265000000222
15.244296333333386,-1.5877813466666677,-0.10372439999999779
18.790075000000055,-2.446300300000001,-0.3494714499999978
18.790075000000055,-2.446300300000001,-0.3494714499999978
16.785800333333384,-2.149488900000001,0.6909641333333355
14.781525666666717,-1.8526775000000013,1.7313997166666688
12.77725100000005,-1.5558661000000014,2.7718353000000016
12.77725100000005,-1.5558661000000014,2.7718353000000016
11.312343000000048,-0.6781980333333347,2.526088200000002
9.847435000000049,0.19947003333333205,2.2803411000000025
8.382527000000051,1.0771380999999989,2.0345940000000025
8.382527000000051,1.0771380999999989,2.0345940000000025
7.970821133333384,0.5154305333333321,1.7441657000000028
7.559115266666718,-0.04627703333333466,1.4537374000000032
7.147409400000051,-0.6079846000000014,1.1633091000000033
7.147409400000051,-0.6079846000000014,1.163309100000003
7.2878362666667185,-0.9047959666666682,0.8728807666666697
7.428263133333385,-1.201607333333335,0.5824524333333364
7.568690000000051,-1.4984187000000018,0.29202410000000306
7.568690000000051,-1.4984187000000018,0.2920241000000031
8.146355000000051,-1.2462886000000015,0.2984071333333364
8.724020000000051,-0.9941585000000014,0.30479016666666975
9.301685000000052,-0.7420284000000015,0.31117320000000304
11.235746333333386,-0.5569202466666682,-0.06861769999999699
13.16980766666672,-0.3718120933333348,-0.448408599999997
15.103869000000053,-0.18670394000000148,-0.828199499999997
15.103869000000051,-0.18670394000000148,-0.828199499999997
15.103869000000051,-0.18670394000000148,-0.828199499999997
13.741090000000051,-0.9175620266666682,-0.7228793333333302
12.378311000000053,-1.6484201133333352,-0.6175591666666636
11.015532000000055,-2.379278200000002,-0.5122389999999969
10.007011566666721,-1.8526774000000017,-0.2569173799999968
8.998491133333388,-1.3260766000000015,-0.0015957599999968375
7.989970700000055,-0.7994758000000014,0.2537258600000032
7.989970700000055,-0.7994758000000014,0.2537258600000032
7.906991133333388,-1.0069246000000012,0.32074778666666987
7.824011566666722,-1.214373400000001,0.3877697133333365
7.741032000000055,-1.4218222000000011,0.45479164000000316
7.741032000000055,-1.4218222000000011,0.45479164000000316
7.437837666666721,-1.0803295533333344,0.7356453933333365
7.134643333333387,-0.7388369066666677,1.0164991466666697
6.831449000000053,-0.39734426000000106,1.2973529000000033
6.831449000000053,-0.397344260000001,1.2973529000000033
7.4027310000000535,-0.4675577066666676,1.4665035000000033
7.9740130000000535,-0.5377711533333343,1.6356541000000033
8.545295000000054,-0.6079846000000009,1.8048047000000034
8.545295000000056,-0.6079846000000009,1.8048047000000034
10.597442333333388,-1.089904100000001,1.67714386666667
12.649589666666722,-1.571823600000001,1.5494830333333367
14.701737000000056,-2.053743100000001,1.4218222000000036
14.644289666666722,-2.1207650666666678,1.8143792333333366
14.586842333333388,-2.1877870333333345,2.2069362666666703
14.529395000000056,-2.254809000000001,2.5994933000000033
14.529395000000056,-2.254809000000001,2.5994933000000033
14.529395000000056,-2.254809000000001,2.5994933000000033
12.234692200000055,-1.942040033333334,2.656940633333337
9.939989400000053,-1.6292710666666677,2.7143879666666706
7.645286600000053,-1.316502100000001,2.771835300000004
7.645286600000053,-1.316502100000001,2.771835300000004
7.750606733333387,-1.4441629000000011,2.2260853333333377
7.855926866666721,-1.571823700000001,1.680335366666671
7.961247000000054,-1.6994845000000007,1.1345854000000044
7.431454666666721,-1.683526900000001,1.1920327333333376
6.901662333333388,-1.667569300000001,1.2494800666666712
6.371870000000055,-1.6516117000000008,1.3069274000000046
6.371870000000055,-1.6516117000000008,1.3069274000000046
6.371870000000055,-1.6516117000000008,1.3069274000000046
6.687830433333389,-2.139914300000001,1.3930985000000045
7.003790866666722,-2.6282169000000004,1.4792696000000045
7.319751300000054,-3.1165195000000003,1.5654407000000043
9.413388533333388,-3.6080135000000007,1.2271395333333377
11.507025766666722,-4.099507500000001,0.888838366666671
13.600663000000056,-4.591001500000002,0.5505372000000044
13.60066300000006,-4.591001500000002,0.5505372000000044
14.149604333333391,-4.402701833333335,0.5473456800000044
14.698545666666723,-4.214402166666669,0.5441541600000045
15.247487000000055,-4.026102500000001,0.5409626400000045
15.247487000000055,-4.026102500000001,0.5409626400000045
13.351724333333387,-2.838857056666668,1.1952242600000045
11.455961666666722,-1.6516116133333345,1.8494858800000042
9.560199000000056,-0.4643661700000011,2.5037475000000042
9.560199000000058,-0.4643661700000011,2.5037475000000042
8.644232566666725,-0.13883111333333442,1.954806053333338
7.728266133333391,0.18670394333333226,1.4058646066666711
6.812299700000057,0.5122389999999989,0.8569231600000046
6.812299700000057,0.5122389999999989,0.8569231600000046
6.0463349000000575,-0.33989690000000117,0.7292623500000045
5.280370100000057,-1.1920328000000013,0.6016015400000044
4.514405300000057,-2.0441687000000015,0.4739407300000044
4.514405300000057,-2.0441687000000015,0.4739407300000044
5.698459200000056,-2.0186365333333343,0.8760722866666711
6.882513100000057,-1.9931043666666675,1.2782038433333378
8.066567000000056,-1.9675722000000009,1.6803354000000044
8.066567000000056,-1.9675722000000009,1.6803354000000044
10.757018666666722,-2.950560466666668,2.6090676000000044
13.447470333333387,-3.933548733333335,3.537799800000004
16.137922000000053,-4.916537000000002,4.466532000000004
16.13792200000005,-4.916537000000003,4.466532000000004
13.878325666666717,-5.9122911666666695,4.313339233333338
11.618729333333382,-6.9080453333333365,4.160146466666671
9.359133000000048,-7.9037995000000025,4.006953700000004
9.359133000000048,-7.9037995000000025,4.006953700000004
9.359133000000048,-7.9037995000000025,4.006953700000004
7.935715000000047,-7.118685533333337,3.8633352666666703
6.512297000000046,-6.33357156666667,3.7197168333333366
5.088879000000046,-5.548457600000003,3.576098400000003
5.021857000000046,-4.798450466666671,3.57290686666667
4.954835000000046,-4.0484433333333385,3.569715333333337
4.887813000000046,-3.298436200000006,3.566523800000004
4.887813000000045,-3.298436200000006,3.566523800000004
5.056963533333378,-2.752686200000005,3.435671533333337
5.22611406666671,-2.2069362000000052,3.30481926666667
5.395264600000043,-1.661186200000005,3.173967000000003
5.395264600000043,-1.661186200000005,3.1739670000000024
5.395264600000043,-1.661186200000005,3.1739670000000024
7.415496733333377,-2.9314112666666716,2.8165166666666686
9.435728866666713,-4.201636333333338,2.459066333333335
11.455961000000046,-5.471861400000005,2.1016160000000013
13.421937666666713,-5.37611583333334,2.092041466666668
15.387914333333379,-5.280370266666673,2.0824669333333348
17.353891000000047,-5.184624700000006,2.072892400000002
17.353891000000047,-5.184624700000005,2.072892400000002
17.353891000000047,-5.184624700000005,2.072892400000002
16.578351333333377,-4.741003300000005,1.9548061666666683
15.802811666666708,-4.297381900000005,1.8367199333333346
15.027272000000039,-3.853760500000005,1.718633700000001
15.027272000000039,-3.853760500000005,1.718633700000001
13.801728333333372,-2.9888585666666714,1.453737490000001
12.576184666666705,-2.123956633333338,1.1888412800000012
11.350641000000039,-1.2590547000000047,0.9239450700000015
10.185736333333372,-0.8760722813333381,1.2686292466666682
9.020831666666705,-0.4930898626666715,1.613313423333335
7.855927000000038,-0.11010744400000479,1.9579976000000017
7.855927000000038,-0.11010744400000479,1.9579976000000017
6.7420864333333705,-0.13883112266667147,2.296298733333335
5.6282458666667035,-0.1675548013333381,2.6345998666666683
4.514405300000036,-0.1962784800000048,2.9729010000000016
4.514405300000036,-0.1962784800000048,2.9729010000000016
4.715470966666703,-0.44840858666667144,2.5994931666666683
4.9165366333333695,-0.7005386933333381,2.226085333333335
5.117602300000037,-0.9526688000000046,1.8526775000000015
5.117602300000038,-0.9526688000000046,1.8526775000000015
6.541020366666705,-1.999487333333338,1.5079933000000014
7.96443843333337,-3.0463058666666716,1.1633091000000013
9.387856500000035,-4.093124400000005,0.8186249000000013
9.387856500000035,-4.093124400000004,0.8186249000000013
10.338929500000036,-4.402701933333337,0.8313909866666679
11.290002500000037,-4.712279466666671,0.8441570733333346
12.241075500000038,-5.021857000000004,0.8569231600000012
12.241075500000038,-5.021857000000004,0.8569231600000012
12.853847500000038,-5.117602666666671,0.7228793200000011
13.466619500000037,-5.213348333333337,0.5888354800000011
14.079391500000037,-5.309094000000003,0.454791640000001
14.079391500000037,-5.309094000000003,0.454791640000001
13.185765666666704,-4.613342566666669,0.362237550000001
12.292139833333371,-3.917591133333337,0.26968346000000104
11.398514000000036,-3.221839700000004,0.17712937000000104
11.398514000000036,-3.221839700000004,0.17712937000000104
10.961276000000039,-2.656940600000004,0.011170326666667693
10.52403800000004,-2.092041500000004,-0.15478871666666563
10.086800000000041,-1.527142400000004,-0.320747759999999
10.086800000000043,-1.527142400000004,-0.320747759999999
10.086800000000043,-1.527142400000004,-0.320747759999999
9.186791200000043,-1.5335254333333372,-0.020744873333332286
8.286782400000044,-1.5399084666666705,0.2792580133333344
7.386773600000044,-1.546291500000004,0.5792609000000011
6.892087933333379,-1.8877841666666704,0.4356424966666677
6.397402266666712,-2.2292768333333366,0.29202409333333434
5.902716600000045,-2.5707695000000026,0.148405690000001
5.902716600000045,-2.570769500000002,0.148405690000001
6.588893400000046,-2.826091100000003,0.665431960000001
7.275070200000047,-3.0814127000000027,1.182458230000001
7.961247000000047,-3.336734300000002,1.6994845000000012
7.961247000000047,-3.336734300000002,1.6994845000000012
8.934660666666714,-3.5888643333333357,1.7601234000000012
9.90807433333338,-3.8409943666666693,1.8207623000000013
10.881488000000045,-4.093124400000003,1.8814012000000016
10.881488000000045,-4.093124400000003,1.8814012000000016
11.29000266666671,-4.1729124333333365,1.859060533333335
11.698517333333378,-4.25270046666667,1.8367198666666684
12.107032000000045,-4.332488500000003,1.8143792000000019
12.107032000000041,-4.332488500000003,1.8143792000000019
12.138947000000039,-4.086741500000002,1.5079932666666682
12.170862000000037,-3.840994500000002,1.2016073333333346
12.202777000000035,-3.5952475000000015,0.895221400000001
12.202777000000035,-3.5952475000000015,0.895221400000001
11.30915133333337,-3.6207796666666687,0.5952185066666678
10.415525666666705,-3.6463118333333355,0.29521561333333446
9.52190000000004,-3.6718440000000023,-0.004787279999998839
9.52190000000004,-3.6718440000000023,-0.004787279999998838
9.52190000000004,-3.6718440000000023,-0.004787279999998838
10.038926333333373,-3.266520900000003,-0.3015986533333322
10.555952666666707,-2.861197800000003,-0.5984100266666655
11.072979000000041,-2.455874700000003,-0.8952213999999988
10.757018333333372,-2.1782124666666696,-0.7069217099999988
10.441057666666705,-1.9005502333333357,-0.5186220199999988
10.125097000000038,-1.622888000000002,-0.33032232999999883
10.125097000000038,-1.622888000000002,-0.33032232999999883
9.269769800000038,-1.4377798333333356,0.07180921333333452
8.414442600000038,-1.252671666666669,0.47394075666666785
7.559115400000038,-1.0675635000000023,0.8760723000000011
7.559115400000036,-1.067563500000002,0.8760723000000011
7.559115400000036,-1.067563500000002,0.8760723000000011
7.262303933333368,-1.1250108666666687,0.8984129333333345
6.9654924666667,-1.1824582333333353,0.9207535666666677
6.668681000000032,-1.239905600000002,0.943094200000001
6.314422333333366,-0.8888383800000019,1.3452258000000012
5.960163666666699,-0.537771160000002,1.7473574000000012
5.605905000000033,-0.18670394000000198,2.1494890000000013
5.605905000000033,-0.18670394000000198,2.1494890000000013
5.682501666666699,-0.030319446666668637,1.8877843000000014
5.759098333333365,0.1260650466666647,1.6260796000000015
5.8356950000000305,0.28244953999999806,1.3643749000000016
5.8356950000000305,0.28244953999999806,1.364374900000002
6.406977000000032,-0.9239450733333353,1.0579889566666687
6.978259000000033,-2.130339686666669,0.7516030133333352
7.549541000000034,-3.336734300000002,0.44521707000000194
7.549541000000036,-3.336734300000002,0.44521707000000194
9.678285000000036,-3.6558863333333362,0.5696863466666686
11.807029000000036,-3.97503836666667,0.6941556233333354
13.935773000000035,-4.294190400000004,0.818624900000002
13.935773000000035,-4.294190400000004,0.818624900000002
15.70387533333337,-4.022911133333337,0.7739436333333353
17.471977666666703,-3.7516318666666693,0.7292623666666685
19.240080000000038,-3.480352600000002,0.6845811000000018
19.240080000000038,-3.480352600000002,0.6845811000000018
16.09004950000004,-2.854814700000002,1.3707579333333353
12.940019000000037,-2.2292768000000023,2.056934766666669
9.789988500000037,-1.6037389000000022,2.7431116000000024
9.789988500000037,-1.6037389000000022,2.7431116000000024
8.066567333333373,-1.345225766666669,2.459066300000002
6.343146166666705,-1.0867126333333357,2.1750210000000023
4.619725000000038,-0.8281995000000025,1.890975700000002
4.619725000000038,-0.8281995000000025,1.890975700000002
4.699513133333372,-1.137776966666669,1.8399113666666687
4.779301266666706,-1.4473544333333355,1.7888470333333355
4.859089400000038,-1.756931900000002,1.7377827000000021
4.859089400000038,-1.756931900000002,1.7377827000000021
5.723991400000038,-1.929274000000002,1.8143792000000023
6.588893400000039,-2.1016161000000015,1.8909757000000027
7.45379540000004,-2.2739582000000023,1.9675722000000029
7.45379540000004,-2.2739582000000023,1.9675722000000029
8.344229266666707,-2.4431087000000025,1.811187700000003
9.234663133333374,-2.6122592000000027,1.6548032000000028
10.125097000000041,-2.7814097000000024,1.4984187000000029
11.191065000000043,-2.6058761333333353,1.2590546866666694
12.25703300000004,-2.4303425666666683,1.0196906733333362
13.323001000000039,-2.254809000000002,0.7803266600000027
13.323001000000039,-2.254809000000002,0.7803266600000027
13.323001000000039,-2.254809000000002,0.7803266600000027
14.245350666666708,-2.2643835333333353,0.36862056000000276
15.167700333333373,-2.2739580666666686,-0.04308553999999724
16.09005000000004,-2.2835326000000014,-0.45479163999999717
13.431513333333376,-2.0665092333333352,-0.08776680999999718
10.772976666666708,-1.8494858666666685,0.2792580200000028
8.114440000000041,-1.6324625000000017,0.6462828500000029
8.11444000000004,-1.6324625000000017,0.646282850000003
7.131451800000039,-1.316502033333335,0.5473457166666695
6.148463600000038,-1.0005415666666684,0.4484085833333362
5.1654754000000365,-0.6845811000000017,0.3494714500000029
5.1654754000000365,-0.6845811000000017,0.3494714500000029
5.1654754000000365,-0.6845811000000017,0.3494714500000029
4.91653683333337,-1.0962871666666685,0.046277046666669576
4.667598266666704,-1.507993233333335,-0.25691735666666377
4.418659700000037,-1.9196993000000016,-0.5601117599999971
5.347392133333372,-1.9037417000000019,-0.20904455666666377
6.276124566666706,-1.8877841000000017,0.14202264666666956
7.20485700000004,-1.8718265000000016,0.4930898500000029
7.20485700000004,-1.8718265000000016,0.4930898500000029
7.20485700000004,-1.8718265000000016,0.4930898500000029
9.196365333333372,-2.1239565666666684,0.4994729000000029
11.187873666666704,-2.3760866333333355,0.5058559500000029
13.179382000000038,-2.628216700000002,0.5122390000000029
13.179382000000038,-2.628216700000002,0.5122390000000029
14.934718000000037,-3.1101363333333354,0.1867039433333363
16.690054000000035,-3.592055966666669,-0.1388311133333304
18.445390000000035,-4.073975600000003,-0.4643661699999971
16.21132600000003,-4.32929706666667,0.05904315333333624
13.977262000000033,-4.584618533333337,0.5824524766666695
11.743198000000035,-4.839940000000005,1.105861800000003
11.743198000000035,-4.839940000000005,1.105861800000003
9.221897166666702,-3.671843733333338,1.6292711333333365
6.70059633333337,-2.503747466666671,2.15268046666667
4.179295500000038,-1.3356512000000038,2.6760898000000033
4.1792955000000385,-1.3356512000000038,2.6760898000000033
4.1792955000000385,-1.3356512000000038,2.6760898000000033
4.6803643333333715,-0.9335196533333372,2.5899187333333367
5.1814331666667055,-0.5313881066666706,2.5037476666666705
5.6825020000000395,-0.12925656000000396,2.417576600000004
5.6825020000000395,-0.12925656000000396,2.417576600000004
6.681447666666706,-0.796284240000004,2.325022500000004
7.680393333333373,-1.4633119200000042,2.232468400000004
8.67933900000004,-2.130339600000004,2.1399143000000045
10.565527333333373,-2.500555966666671,2.018636533333338
12.451715666666708,-2.870772333333337,1.8973587666666711
14.337904000000043,-3.240988700000004,1.7760810000000047
14.337904000000043,-3.240988700000004,1.776081000000005
14.337904000000043,-3.240988700000004,1.776081000000005
14.727269500000041,-2.7622607000000037,0.7930928000000047
15.11663500000004,-2.2835327000000034,-0.18989539999999527
15.50600050000004,-1.804804700000003,-1.1728835999999954
15.50600050000004,-1.804804700000003,-1.1728835999999954
14.62514100000004,-1.3835240133333364,-0.9207535333333285
13.74428150000004,-0.9622433266666697,-0.6686234666666618
12.86342200000004,-0.540962640000003,-0.4164933999999951
10.852764333333374,-0.25053431666666964,-0.4133018733333284
8.842106666666707,0.039894006666663685,-0.41011034666666174
6.831449000000039,0.33032232999999706,-0.4069188199999951
6.831449000000039,0.33032232999999706,-0.4069188199999951
6.831449000000039,0.33032232999999706,-0.4069188199999951
6.387827666666706,-0.23776824666666965,-0.7611775466666617
5.944206333333374,-0.8058588233333364,-1.1154362733333285
5.500585000000041,-1.3739494000000032,-1.469694999999995
5.500585000000041,-1.3739494000000032,-1.469694999999995
5.328242900000041,-1.7090590000000032,-1.2494801333333285
5.15590080000004,-2.0441686000000034,-1.029265266666662
4.98355870000004,-2.379278200000004,-0.8090503999999953
4.98355870000004,-2.379278200000004,-0.8090503999999953
5.4080308000000405,-1.5941642673333376,0.04946853333333804
5.832502900000041,-0.8090503346666709,0.9079874666666713
6.256975000000041,-0.023936402000004058,1.7665064000000046
6.256975000000041,-0.023936402000004058,1.7665064000000046
9.129343333333376,-0.10372440800000404,1.8303368000000049
12.001711666666708,-0.18351241400000404,1.8941672000000052
14.874080000000042,-0.26330042000000403,1.9579976000000052
14.874080000000042,-0.263300420000004,1.9579976000000052
15.697492000000041,-1.6101219466666707,1.6739523333333384
16.52090400000004,-2.9569434733333373,1.3899070666666713
17.344316000000042,-4.303765000000004,1.1058618000000042
17.344316000000042,-4.303765000000004,1.1058618000000042
14.009177533333377,-3.560140800000004,1.804804666666671
10.67403906666671,-2.816516600000004,2.5037475333333377
7.338900600000045,-2.072892400000004,3.2026904000000047
7.338900600000045,-2.072892400000004,3.2026904000000047
7.284644733333379,-1.2207565000000042,3.0782211000000044
7.230388866666712,-0.36862060000000413,2.9537518000000045
7.176133000000046,0.48351529999999593,2.8292825000000046
7.176133000000046,0.48351529999999593,2.8292825000000046
7.220814333333379,-0.2569173666666707,2.4622577333333378
7.2654956666667125,-0.9973500333333374,2.095232966666671
7.310177000000046,-1.737782700000004,1.7282082000000039
7.310177000000046,-1.737782700000004,1.7282082000000039
7.881459000000046,-2.248425933333337,1.428205300000004
8.452741000000044,-2.75906916666667,1.128202400000004
9.024023000000046,-3.269712400000003,0.8281995000000041
9.722965833333381,-2.956943400000003,0.5313881186666706
10.421908666666715,-2.644174400000003,0.2345767373333372
11.120851500000049,-2.331405400000003,-0.062234643999996155
11.120851500000049,-2.331405400000003,-0.062234643999996155
11.120851500000049,-2.331405400000003,-0.062234643999996155
13.307043000000048,-1.8111876433333365,-0.7899012626666627
15.493234500000048,-1.29096988666667,-1.5175678813333295
17.67942600000005,-0.7707521300000034,-2.2452344999999965
14.775142666666717,-1.0771380533333366,-1.3069275499999964
11.870859333333383,-1.3835239766666696,-0.36862059999999647
8.966576000000048,-1.6899099000000029,0.5696863500000036
8.966576000000048,-1.6899099000000029,0.5696863500000036
8.966576000000048,-1.6899099000000029,0.5696863500000036
8.15912133333338,-0.7675605666666697,0.7994758000000036
7.351666666666713,0.1547887666666635,1.0292652500000037
6.544212000000045,1.0771380999999967,1.2590547000000034
6.544212000000044,1.0771380999999967,1.2590547000000036
5.899525000000044,0.44521709999999665,0.8856468400000036
5.254838000000045,-0.18670390000000345,0.5122389800000035
4.610151000000045,-0.8186249000000035,0.1388311200000035
4.677173000000045,-0.7962842666666702,0.28883258000000345
4.744195000000046,-0.7739436333333368,0.4388340400000034
4.811217000000046,-0.7516030000000034,0.5888355000000034
4.811217000000046,-0.7516030000000032,0.5888355000000033
8.67295633333338,-0.8377740333333366,0.31436475666666996
12.534695666666714,-0.9239450666666699,0.03989401333333664
16.39643500000005,-1.0101161000000032,-0.23457672999999668
16.39643500000005,-1.0101161000000032,-0.23457672999999668
15.799620666666717,-1.1505430000000032,0.02712791333333664
15.202806333333385,-1.290969900000003,0.28883255666666996
14.605992000000052,-1.4313968000000028,0.5505372000000034
14.605992000000052,-1.4313968000000028,0.5505372000000034
12.78682566666672,-1.3388427333333361,1.0164991333333366
10.967659333333387,-1.2462886666666695,1.4824610666666702
9.148493000000053,-1.1537346000000028,1.9484230000000036
9.148493000000055,-1.1537346000000028,1.9484230000000036
8.883596666666723,-0.2313852666666696,2.5452373000000037
8.61870033333339,0.6909640666666638,3.142051600000004
8.353804000000057,1.6133133999999971,3.738865900000004
8.353804000000057,1.6133133999999971,3.738865900000004
8.353804000000057,1.2367140333333302,3.467586700000004
8.353804000000057,0.8601146666666635,3.1963075000000045
8.353804000000057,0.48351529999999693,2.9250283000000046
8.353804000000057,0.4835152999999968,2.9250283000000046
9.375090666666724,-0.7643690666666698,1.5590576666666711
10.396377333333389,-2.012253433333336,0.19308703333333765
11.417664000000054,-3.260137800000003,-1.1728835999999958
12.751719000000053,-3.1069448666666695,-1.4696949999999955
14.085774000000052,-2.9537519333333364,-1.7665063999999955
15.419829000000052,-2.8005590000000034,-2.063317799999995
15.419829000000052,-2.8005590000000034,-2.063317799999995
15.419829000000052,-2.8005590000000034,-2.063317799999995
13.504917333333387,-1.64203716666667,-1.6484201666666618
11.59000566666672,-0.4835153333333366,-1.2335225333333284
9.675094000000053,0.6750064999999966,-0.8186248999999949
8.660190333333388,0.9399026666666633,-0.927136599999995
7.6452866666667205,1.2047988333333302,-1.035648299999995
6.630383000000054,1.4696949999999969,-1.1441599999999947
6.630383000000054,1.4696949999999969,-1.1441599999999947
6.25697516666672,0.5984099999999967,-1.4026730999999943
5.883567333333386,-0.2728750000000033,-1.6611861999999944
5.510159500000053,-1.1441600000000032,-1.9196992999999944
5.510159500000053,-1.1441600000000032,-1.919699299999995
6.927194666666719,-1.0611804666666698,-1.523950833333328
8.344229833333387,-0.9782009333333361,-1.1282023666666616
9.761265000000053,-0.8952214000000028,-0.7324538999999949
9.761265000000053,-0.8952214000000028,-0.7324538999999947
11.277236666666719,-0.6526658700000029,-0.30798171999999463
12.793208333333384,-0.4101103400000028,0.1164904600000054
14.30918000000005,-0.1675548100000028,0.5409626400000055
14.30918000000005,-0.16755481000000283,0.5409626400000054
13.441086666666719,-0.6303252400000029,0.6558573600000054
12.572993333333386,-1.0930956700000027,0.7707520800000053
11.704900000000054,-1.5558661000000027,0.8856468000000053
11.704900000000054,-1.5558661000000027,0.8856468000000053
10.961276000000053,-2.3345970000000027,0.585643919666672
10.21765200000005,-3.113327900000003,0.2856410393333387
9.474028000000049,-3.892058800000003,-0.014361840999994713
9.474028000000049,-3.892058800000003,-0.014361840999994713
9.333601000000048,-2.877155400000003,0.6207506726666719
9.193174000000047,-1.8622520000000031,1.2558631863333385
9.052747000000048,-0.8473486000000031,1.8909757000000054
9.052747000000048,-0.8473486000000031,1.8909757000000054
8.941043666666713,-0.7771351533333363,1.7824640333333386
8.82934033333338,-0.7069217066666695,1.6739523666666718
8.717637000000048,-0.6367082600000028,1.565440700000005
8.717637000000048,-0.6367082600000028,1.565440700000005
9.54743233333338,-0.3367053666666695,1.1186278566666716
10.37722766666671,-0.03670247333333617,0.6718150133333382
11.207023000000044,0.26330041999999715,0.2250021700000048
11.207023000000044,0.26330041999999715,0.2250021700000048
12.397460000000045,-0.2537258533333362,-0.41649338666666186
13.587897000000046,-0.7707521266666696,-1.0579889433333285
14.778334000000045,-1.287778400000003,-1.6994844999999952
14.778334000000045,-1.287778400000003,-1.6994844999999952
13.44747033333338,-0.9782009333333362,-1.5558660999999951
12.116606666666712,-0.6686234666666695,-1.4122476999999953
10.785743000000044,-0.3590460000000027,-1.268629299999995
10.785743000000044,-0.3590460000000027,-1.2686292999999953
9.387857000000043,-0.43883400000000267,-0.9941585566666621
7.989971000000043,-0.5186220000000027,-0.7196878133333288
6.5920850000000435,-0.5984100000000028,-0.4452170699999955
6.5920850000000435,-0.5984100000000029,-0.4452170699999955
6.655915333333376,-0.7260708133333362,-1.1505430466666622
6.71974566666671,-0.8537316266666696,-1.855869023333329
6.783576000000043,-0.981392440000003,-2.5611949999999957
6.783576000000043,-0.981392440000003,-2.5611949999999957
6.885704666666709,-0.9750093933333362,-2.5707695333333294
6.987833333333376,-0.9686263466666696,-2.580344066666663
7.0899620000000425,-0.9622433000000029,-2.5899185999999967
7.0899620000000425,-0.9622433000000029,-2.5899185999999967
6.738894766666708,-0.6845810533333362,-1.820762246666663
6.3878275333333745,-0.4069188066666696,-1.0516058933333297
6.03676030000004,-0.12925656000000288,-0.28244953999999617
6.03676030000004,-0.12925656000000288,-0.28244953999999617
9.518708533333374,0.1037244099999971,0.20904457333333726
13.000656766666708,0.3367053799999971,0.7005386866666706
16.482605000000042,0.5696863499999971,1.192032800000004
16.482605000000042,0.569686349999997,1.192032800000004
17.465593333333377,-0.20585306666666967,1.5207593333333371
18.44858166666671,-0.9813924833333364,1.8494858666666705
19.431570000000043,-1.7569319000000032,2.1782124000000036
19.431570000000043,-1.7569319000000032,2.1782124000000036
17.04431300000004,-2.1622549333333367,2.0282110000000038
14.657056000000042,-2.5675779666666703,1.8782096000000035
12.269799000000042,-2.972901000000004,1.7282082000000034
12.269799000000042,-2.972901000000004,1.7282082000000034
10.757018566666709,-2.1973616166666705,1.4633120200000034
9.244238133333376,-1.4218222333333372,1.1984158400000033
7.731457700000043,-0.6462828500000041,0.9335196600000032
7.731457700000043,-0.6462828500000041,0.9335196600000032
7.833586466666709,-0.7228793333333375,0.5377711533333366
7.935715233333376,-0.7994758166666709,0.14202264666666994
8.037844000000042,-0.8760723000000042,-0.25372585999999675
8.037844000000042,-0.8760723000000042,-0.25372585999999675
8.695297000000041,-1.016499166666671,0.1643632933333366
9.352750000000041,-1.1569260333333375,0.58245244666667
10.01020300000004,-1.2973529000000041,1.0005416000000034
10.010203000000038,-1.2973529000000041,1.0005416000000034
10.010203000000038,-1.2973529000000041,1.0005416000000034
11.995328666666703,-0.5058559000000041,0.5058559666666699
13.98045433333337,0.28564109999999593,0.011170333333336538
15.965580000000037,1.077138099999996,-0.4835152999999968
14.200669333333371,1.0324567999999958,-0.14840566666666352
12.435758666666706,0.9877754999999958,0.1867039666666698
10.67084800000004,0.9430941999999959,0.5218136000000032
10.67084800000004,0.9430941999999959,0.5218136000000032
9.971904833333374,0.41330184999999586,0.31755629000000324
9.272961666666708,-0.11649050000000412,0.11329898000000323
8.574018500000042,-0.6462828500000041,-0.09095832999999676
8.574018500000042,-0.6462828500000041,-0.09095832999999676
8.574018500000042,-0.6462828500000041,-0.09095832999999676
8.098482133333375,-0.49308988000000414,0.22500216666666992
7.6229457666667075,-0.3398969100000042,0.5409626633333365
7.147409400000041,-0.18670394000000426,0.8569231600000031
6.939960600000041,0.11329895999999573,0.8377740400000032
6.73251180000004,0.4133018599999958,0.8186249200000032
6.525063000000039,0.7133047599999958,0.7994758000000033
6.525063000000039,0.7133047599999959,0.7994758000000033
7.096345333333374,0.42287642333332925,0.48351530333333653
7.667627666666707,0.13244808666666255,0.16755480666666986
8.238910000000041,-0.1579802500000041,-0.14840568999999684
8.238910000000041,-0.1579802500000041,-0.14840568999999684
8.238910000000041,-0.1579802500000041,-0.14840568999999684
9.576156666666707,-0.36542905333333736,-0.6111760933333302
10.913403333333372,-0.5728778566666707,-1.0739464966666634
12.250650000000041,-0.7803266600000041,-1.5367168999999967
12.250650000000041,-0.7803266600000041,-1.5367168999999967
12.250650000000041,-0.7803266600000041,-1.5367168999999967
12.250650000000041,-0.7803266600000041,-1.5367168999999967
12.250650000000041,-0.7803266600000041,-1.5367168999999967
11.149575666666708,-1.2558631400000042,-0.5218135333333302
10.048501333333377,-1.7313996200000041,0.4930898333333364
8.947427000000046,-2.206936100000004,1.5079932000000031
8.947427000000046,-2.206936100000004,1.5079932000000031
9.18998266666671,-1.814379166666671,1.4952271333333365
9.432538333333376,-1.421822233333338,1.48246106666667
9.675094000000042,-1.0292653000000047,1.4696950000000033
9.675094000000042,-1.0292653000000047,1.4696950000000033
9.186791333333375,-0.7611775900000048,1.7569318000000032
8.698488666666707,-0.4930898800000049,2.044168600000003
8.210186000000041,-0.2250021700000049,2.331405400000003
8.210186000000041,-0.2250021700000049,2.331405400000003
8.62189200000004,-0.592026980000005,2.123956600000003
9.03359800000004,-0.959051790000005,1.9165078000000033
9.445304000000041,-1.326076600000005,1.7090590000000034
9.445304000000041,-1.326076600000005,1.7090590000000034
9.445304000000041,-1.326076600000005,1.7090590000000034
9.608071333333372,-2.0090619666666716,1.587781233333337
9.770838666666705,-2.6920473333333383,1.4665034666666703
9.933606000000038,-3.375032700000005,1.3452257000000039
10.482547666666704,-3.0463060666666717,1.3675663666666704
11.031489333333374,-2.7175794333333383,1.389907033333337
11.580431000000042,-2.3888528000000053,1.4122477000000035
11.580431000000042,-2.3888528000000053,1.4122477000000035
11.609154666666706,-2.2707665333333384,1.469695033333337
11.63787833333337,-2.1526802666666716,1.5271423666666706
11.666602000000035,-2.034594000000005,1.584589700000004
11.666602000000035,-2.034594000000005,1.584589700000004
11.666602000000035,-2.034594000000005,1.584589700000004
10.741061000000036,-1.5207592833333383,1.4282052333333375
9.815520000000035,-1.0069245666666717,1.2718207666666708
8.889979000000034,-0.4930898500000051,1.115436300000004
9.359132666666703,-0.47394073333333836,0.6047930666666709
9.828286333333372,-0.45479161666667167,0.09414983333333748
10.297440000000039,-0.435642500000005,-0.41649339999999585
10.297440000000039,-0.435642500000005,-0.41649339999999585
9.716583333333373,-0.42925946666667164,-0.37819515666666254
9.135726666666706,-0.42287643333333835,-0.33989691333332916
8.554870000000038,-0.41649340000000507,-0.3015986699999958
8.554870000000038,-0.41649340000000507,-0.3015986699999958
8.554870000000038,-0.41649340000000507,-0.3015986699999958
7.8399693333333715,-0.22500218333333835,-0.06223464666666247
7.125068666666704,-0.03351096666667167,0.17712937666667086
6.410168000000037,0.157980249999995,0.41649340000000423
6.32080543333337,0.11329896733332834,0.2505343450000042
6.231442866666704,0.06861768466666168,0.08457529000000423
6.142080300000038,0.023936401999995017,-0.08138376499999578
6.142080300000038,0.023936401999995017,-0.08138376499999578
6.001653533333371,0.08457528133332833,0.25053433666667085
5.861226766666705,0.14521416066666165,0.5824524383333375
5.720800000000039,0.20585303999999496,0.9143705400000042
5.720800000000039,0.20585303999999494,0.9143705400000041
6.624000333333371,-0.027127923333338393,1.073946560000004
7.527200666666705,-0.2601088866666717,1.233522580000004
8.430401000000037,-0.4930898500000051,1.3930986000000039
8.430401000000037,-0.4930898500000051,1.3930986000000039
11.337875333333372,-0.9813924333333385,0.8760723166666707
14.245349666666703,-1.469695016666672,0.35904603333333734
17.152824000000034,-1.9579976000000057,-0.15798024999999605
17.152824000000034,-1.9579976000000057,-0.15798024999999608
15.895365333333368,-2.602684666666672,0.630325200000004
14.637906666666703,-3.2473717333333387,1.4186306500000037
13.380448000000039,-3.892058800000005,2.2069361000000036
13.380448000000039,-3.8920588000000045,2.2069361000000036
10.817657333333372,-3.1069448333333383,2.695238733333337
8.254866666666706,-2.3218308666666716,3.1835413666666703
5.692076000000038,-1.5367169000000045,3.6718440000000037
5.692076000000038,-1.5367169000000045,3.6718440000000037
6.4803816666667045,-0.9271365666666712,3.209073533333337
7.268687333333371,-0.3175562333333379,2.746303066666671
8.056993000000036,0.2920240999999955,2.2835326000000045
7.658052900000037,-0.21223606666667102,2.114382066666671
7.259112800000037,-0.7164962333333375,1.9452315333333379
6.860172700000038,-1.220756400000004,1.7760810000000047
6.860172700000038,-1.220756400000004,1.776081000000005
6.860172700000038,-1.220756400000004,1.776081000000005
8.222951800000038,-1.4984186333333376,1.2782038466666716
9.585730900000037,-1.7760808666666712,0.7803266933333384
10.948510000000036,-2.053743100000005,0.28244954000000505
10.948510000000036,-2.053743100000005,0.28244954000000505
13.450662000000037,-3.2377970666666713,-0.20585303999999494
15.952814000000037,-4.421851033333338,-0.6941556199999949
18.454966000000038,-5.605905000000004,-1.1824581999999948
18.454966000000038,-5.605905000000004,-1.1824581999999948
15.279403333333372,-4.061209300000005,-0.5505372133333283
12.103840666666706,-2.516513600000005,0.08138377333333839
8.92827800000004,-0.9718179000000049,0.7133047600000051
8.012311666666706,-0.17393786666667155,0.8888383733333386
7.096345333333375,0.6239421666666618,1.064371986666672
6.180379000000042,1.4218221999999952,1.2399056000000055
6.180379000000042,1.4218221999999952,1.2399056000000055
6.180379000000042,1.4218221999999952,1.2399056000000055
5.842077800000041,0.4930898333333285,0.49308986666667215
5.50377660000004,-0.4356425333333382,-0.25372586666666114
5.165475400000039,-1.364374900000005,-1.0005415999999945
5.165475400000039,-1.364374900000005,-1.0005415999999945
5.315476766666706,-1.2143734466666716,-0.6143676499999944
5.465478133333373,-1.0643719933333382,-0.22819369999999436
5.615479500000039,-0.9143705400000047,0.15798025000000568
8.631466333333373,-0.8313910266666715,0.553728733333339
11.647453166666708,-0.7484115133333381,0.9494772166666724
14.663440000000042,-0.6654320000000048,1.3452257000000059
14.663440000000042,-0.6654320000000048,1.3452257000000059
14.663440000000042,-0.6654320000000048,1.3452257000000059
15.582597333333375,-1.1409685000000047,1.0771380133333393
16.50175466666671,-1.6165050000000045,0.8090503266666724
17.420912000000047,-2.0920415000000046,0.5409626400000057
17.420912000000047,-2.092041500000004,0.5409626400000057
13.900665566666715,-2.254809000000004,1.3611832933333392
10.380419133333382,-2.417576500000004,2.181403946666672
6.860172700000047,-2.5803440000000037,3.0016246000000053
6.978258900000046,-1.734591174333337,3.173966733333339
7.096345100000046,-0.8888383486666704,3.3463088666666727
7.214431300000045,-0.043085523000003643,3.518651000000006
7.214431300000045,-0.043085523000003643,3.518651000000006
7.214431300000045,-0.043085523000003643,3.518651000000006
7.428263200000046,-0.09734136200000364,3.467586666666673
7.642095100000048,-0.15159720100000362,3.4165223333333397
7.855927000000048,-0.2058530400000036,3.365458000000006
7.855927000000048,-0.2058530400000036,3.365458000000006
8.331463500000048,-0.7196877600000035,2.6537490333333396
8.807000000000047,-1.2335224800000033,1.9420400666666733
9.282536500000047,-1.7473572000000033,1.2303311000000063
9.282536500000047,-1.7473572000000033,1.2303311000000063
11.487877000000047,-2.2420428000000037,0.6462828666666732
13.693217500000047,-2.736728400000004,0.062234633333339895
15.89855800000005,-3.2314140000000044,-0.5218135999999934
15.89855800000005,-3.2314140000000044,-0.5218135999999934
14.577268500000047,-2.918645100000004,-0.4388340599999934
13.255979000000046,-2.6058762000000035,-0.3558545199999934
11.934689500000045,-2.2931073000000035,-0.2728749799999934
11.934689500000045,-2.293107300000004,-0.27287497999999333
9.601688333333378,-1.3388427500000042,0.42287641333334003
7.268687166666711,-0.3845782000000044,1.1186278066666733
4.935686000000045,0.5696863499999955,1.8143792000000067
4.935686000000046,0.5696863499999955,1.8143792000000067
5.516542666666712,0.004787299999995387,1.0069246000000067
6.097399333333379,-0.5601117500000047,0.1994700000000067
6.678256000000046,-1.1250108000000048,-0.6079845999999933
6.678256000000046,-1.1250108000000048,-0.6079845999999933
6.244209333333379,-0.9399026500000048,-0.30479017666666003
5.810162666666712,-0.7547945000000048,-0.0015957533333266956
5.376116000000045,-0.5696863500000048,0.3015986700000066
5.376116000000043,-0.5696863500000048,0.3015986700000066
9.132534666666709,-1.2175649000000048,0.3303223466666733
12.888953333333376,-1.865443450000005,0.35904602333333996
16.64537200000004,-2.5133220000000054,0.38776970000000666
16.64537200000004,-2.5133220000000054,0.38776970000000666
16.265581500000042,-2.778218200000005,0.9175620333333402
15.885791000000042,-3.0431144000000043,1.4473543666666735
15.506000500000042,-3.3080106000000042,1.977146700000007
15.506000500000042,-3.3080106000000042,1.977146700000007
12.154904333333375,-2.3026817666666712,2.6154507333333403
8.803808166666707,-1.297352933333338,3.2537547666666735
5.452712000000041,-0.2920241000000048,3.8920588000000063
5.452712000000041,-0.2920241000000047,3.892058800000006
6.387827666666706,-0.19468273333333808,3.3686495333333384
7.322943333333373,-0.09734136666667141,2.8452402666666714
8.258059000000038,0.0,2.3218310000000044
8.21018600000004,-0.33032234666667143,2.3441716000000046
8.162313000000038,-0.6606446933333381,2.3665122000000047
8.11444000000004,-0.9909670400000047,2.3888528000000053
8.114440000000037,-0.9909670400000047,2.3888528000000053
8.867638666666702,-1.3484172933333378,2.0601262333333383
9.62083733333337,-1.7058675466666713,1.7313996666666711
10.374036000000038,-2.0633178000000045,1.4026731000000041
10.374036000000038,-2.063317800000005,1.4026731000000041
12.566610666666705,-2.3984274333333384,0.6781980233333376
14.759185333333372,-2.733537066666672,-0.046277053333329064
16.95176000000004,-3.0686467000000053,-0.7707521299999956
16.95176000000004,-3.0686467000000053,-0.7707521299999956
14.48152333333337,-2.411193500000005,-0.3462799366666623
12.011286666666704,-1.7537403000000047,0.07819225666667103
9.541050000000036,-1.0962871000000045,0.5026644500000044
9.541050000000036,-1.0962871000000045,0.5026644500000043
9.09104533333337,-0.5920269333333379,0.7324539000000043
8.641040666666703,-0.0877667666666712,0.9622433500000044
8.191036000000034,0.4164933999999955,1.1920328000000042
7.300602000000034,-0.3430884000000045,0.7260708533333374
6.410168000000034,-1.1026702000000046,0.2601089066666707
5.519734000000034,-1.8622520000000045,-0.20585303999999605
5.519734000000034,-1.8622520000000045,-0.20585303999999605
5.3697326666667005,-1.6133134333333379,0.23138524000000396
5.2197313333333675,-1.3643748666666713,0.668623520000004
5.0697300000000345,-1.1154363000000045,1.105861800000004
5.0697300000000345,-1.1154363000000045,1.1058618000000042
7.616563000000035,-1.1952243000000047,1.061180500000004
10.163396000000034,-1.2750123000000047,1.0164992000000042
12.710229000000034,-1.3548003000000046,0.9718179000000041
12.710229000000034,-1.3548003000000046,0.9718179000000041
12.710229000000034,-1.3548003000000046,0.9718179000000041
12.710229000000034,-1.3548003000000046,0.9718179000000041
12.710229000000034,-1.3548003000000046,0.9718179000000041
12.710229000000034,-1.3548003000000046,0.9718179000000041
11.085745233333368,-1.8686350666666713,1.7409742333333373
9.4612614666667,-2.382469833333338,2.5101305666666707
7.8367777000000345,-2.896304600000004,3.2792869000000042
8.385719466666702,-2.184595580000004,2.8803468666666716
8.93466123333337,-1.4728865600000038,2.4814068333333386
9.483603000000038,-0.7611775400000039,2.082466800000005
9.483603000000038,-0.7611775400000038,2.0824668000000046
9.483603000000038,-0.7611775400000038,2.0824668000000046
8.988917000000036,-0.8760722933333372,2.171829433333338
8.494231000000035,-0.9909670466666706,2.261192066666671
7.999545000000033,-1.1058618000000038,2.350554700000004
7.999545000000033,-1.1058618000000036,2.350554700000004
7.741031900000034,-1.4345883666666701,2.0952330333333378
7.482518800000034,-1.763314933333337,1.839911366666671
7.224005700000035,-2.092041500000004,1.5845897000000047
7.224005700000035,-2.092041500000004,1.5845897000000047
8.806999800000035,-2.181404000000004,1.3069274666666713
10.389993900000036,-2.270766500000004,1.0292652333333379
11.972988000000036,-2.360129000000004,0.7516030000000046
11.972988000000036,-2.360129000000004,0.7516030000000044
13.584706000000034,-2.1590633000000037,0.435642506666671
15.196424000000036,-1.9579976000000034,0.11968201333333768
16.808142000000036,-1.7569319000000032,-0.19627847999999568
16.808142000000036,-1.7569319000000032,-0.19627847999999568
13.584706333333372,-1.70267606666667,0.41968491333333763
10.361270666666707,-1.648420233333337,1.035648306666671
7.137835000000039,-1.594164400000004,1.6516117000000043
7.137835000000038,-1.594164400000004,1.6516117000000043
6.924003100000038,-1.361183400000004,1.3579918433333376
6.710171200000038,-1.128202400000004,1.0643719866666708
6.496339300000038,-0.8952214000000039,0.7707521300000041
6.496339300000038,-0.8952214000000039,0.7707521300000041
6.1676127000000385,-1.1792666666666707,0.8122418866666709
5.838886100000039,-1.4633119333333375,0.8537316433333375
5.510159500000039,-1.7473572000000042,0.8952214000000042
5.510159500000039,-1.7473572000000042,0.8952214000000042
5.947397666666706,-1.5271423333333376,1.338842666666671
6.384635833333373,-1.3069274666666713,1.7824639333333379
6.82187400000004,-1.0867126000000047,2.226085200000005
9.837860666666707,-1.6356540666666712,2.060126200000005
12.853847333333375,-2.184595533333338,1.8941672000000047
15.869834000000042,-2.733537000000005,1.7282082000000045
15.869834000000045,-2.733537000000005,1.7282082000000045
15.869834000000045,-2.733537000000005,1.7282082000000045
16.000686000000044,-2.794175900000005,1.7441658000000044
16.131538000000045,-2.854814800000005,1.7601234000000046
16.262390000000043,-2.9154537000000054,1.7760810000000047
16.262390000000043,-2.9154537000000054,1.776081000000005
13.297468100000046,-2.9154537000000054,2.0537432333333387
10.332546200000047,-2.9154537000000054,2.331405466666672
7.367624300000046,-2.9154537000000054,2.609067700000006
7.65166953333338,-2.2739581466666716,2.4877899666666727
7.935714766666714,-1.6324625933333383,2.366512233333339
8.219760000000047,-0.990967040000005,2.245234500000006
8.219760000000049,-0.990967040000005,2.245234500000006
8.219760000000049,-0.990967040000005,2.245234500000006
7.772947200000048,-1.300544460000005,2.4526833333333387
7.326134400000048,-1.610121880000005,2.660132166666672
6.879321600000048,-1.919699300000005,2.867581000000005
6.6846388333333815,-2.2867242000000054,2.436725733333338
6.489956066666715,-2.6537491000000055,2.0058704666666713
6.295273300000049,-3.020774000000006,1.5750152000000046
6.2952733000000505,-3.0207740000000065,1.5750152000000046
8.181461533333383,-3.2122651666666733,1.2399055833333377
10.067649766666717,-3.4037563333333396,0.9047959666666712
11.953838000000049,-3.5952475000000064,0.5696863500000046
11.953838000000049,-3.5952475000000064,0.5696863500000044
11.953838000000049,-3.5952475000000064,0.5696863500000044
13.11874300000005,-3.6431203000000068,0.7133047666666711
14.28364800000005,-3.690993100000007,0.8569231833333378
15.448553000000048,-3.7388659000000075,1.0005416000000045
12.96235890000005,-3.2760955000000074,1.6548032333333378
10.476164800000051,-2.8133251000000072,2.309064866666671
7.9899707000000495,-2.350554700000007,2.9633265000000044
7.9899707000000495,-2.350554700000007,2.9633265000000044
7.527200233333382,-1.6101219866666738,2.7239625000000047
7.0644297666667155,-0.8696892733333402,2.484598500000005
6.6016593000000485,-0.12925656000000676,2.245234500000005
6.6016593000000485,-0.12925656000000676,2.2452345000000045
6.6016593000000485,-0.12925656000000676,2.2452345000000045
6.170804200000049,-0.30798170666667346,2.0665093333333378
5.739949100000049,-0.48670685333334013,1.8877841666666708
5.30909400000005,-0.6654320000000068,1.709059000000004
5.30909400000005,-0.6654320000000068,1.709059000000004
5.586756100000049,-0.7037302200000068,1.4441628466666707
5.86441820000005,-0.7420284400000069,1.1792666933333376
6.142080300000051,-0.7803266600000068,0.9143705400000043
9.713391533333384,-1.26862927333334,0.7069217266666709
13.284702766666717,-1.7569318866666734,0.49947291333333754
16.856014000000048,-2.245234500000007,0.2920241000000043
16.856014000000048,-2.245234500000007,0.2920241000000043
17.76878833333338,-2.861197800000007,0.6622404333333377
18.68156266666671,-3.4771611000000067,1.032456766666671
19.594337000000042,-4.093124400000006,1.4026731000000046
19.594337000000042,-4.093124400000005,1.4026731000000048
17.449635833333378,-3.773972433333339,1.8622519666666715
15.304934666666716,-3.4548204666666726,2.3218308333333386
13.160233500000052,-3.135668500000006,2.781409700000005
13.160233500000052,-3.135668500000006,2.7814097000000046
11.36659910000005,-1.9484230166666727,2.7271539000000047
9.572964700000048,-0.7611775333333394,2.6728981000000047
7.779330300000049,0.4260679499999939,2.6186423000000043
7.77933030000005,0.4260679499999939,2.6186423000000048
7.188899066666717,0.24734281866666055,2.0569347533333384
6.598467833333383,0.06861768733332722,1.4952272066666719
6.008036600000049,-0.1101074440000061,0.9335196600000052
6.008036600000049,-0.1101074440000061,0.9335196600000052
6.1995279000000485,-0.6271336960000061,0.3303223400000051
6.3910192000000485,-1.1441599480000062,-0.2728749799999949
6.582510500000049,-1.6611862000000064,-0.8760722999999949
6.58251050000005,-1.6611862000000064,-0.8760722999999949
7.460178333333384,-2.190978600000006,-0.6430913233333282
8.337846166666717,-2.7207710000000063,-0.4101103466666614
9.21551400000005,-3.2505634000000065,-0.17712936999999476
9.21551400000005,-3.2505634000000065,-0.17712936999999473
11.159150000000052,-3.151626200000006,0.007978800000005263
13.102786000000052,-3.0526890000000058,0.19308697000000527
15.046422000000051,-2.953751800000005,0.37819514000000526
15.046422000000051,-2.953751800000005,0.37819514000000537
14.321946666666719,-2.7494945333333383,0.4962813933333387
13.597471333333386,-2.5452372666666716,0.6143676466666722
12.872996000000052,-2.340980000000005,0.7324539000000057
12.872996000000052,-2.340980000000005,0.7324539000000057
11.740006666666721,-2.104807500000005,0.9430942333333391
10.607017333333388,-1.868635000000005,1.1537345666666725
9.474028000000056,-1.632462500000005,1.3643749000000058
9.474028000000057,-1.632462500000005,1.364374900000006
9.03359833333339,-1.150542980000005,1.5399085000000063
8.593168666666724,-0.668623460000005,1.7154421000000066
8.152739000000057,-0.18670394000000515,1.8909757000000067
8.152739000000057,-0.18670394000000515,1.8909757000000067
7.33570953333339,0.08457527333332815,1.6452286666666733
6.518680066666724,0.3558544866666615,1.39948163333334
5.7016506000000575,0.6271336999999947,1.1537346000000064
5.7016506000000575,0.6271336999999947,1.1537346000000064
5.941014600000057,-0.0781922666666719,0.6239422333333396
6.180378600000057,-0.7835182333333385,0.09414986666667298
6.419742600000056,-1.488844200000005,-0.4356424999999937
6.419742600000056,-1.488844200000005,-0.4356424999999937
7.96124673333339,-2.037785633333338,-0.7962842999999934
9.502750866666723,-2.5867270666666715,-1.1569260999999933
11.044255000000057,-3.135668500000005,-1.517567899999993
11.044255000000057,-3.135668500000005,-1.517567899999993
11.044255000000057,-3.135668500000005,-1.517567899999993
12.062350000000057,-3.2697123333333384,-1.4154392333333263
13.080445000000056,-3.4037561666666716,-1.3133105666666598
14.098540000000057,-3.5378000000000047,-1.2111818999999933
13.520875000000055,-3.9112080000000042,-1.0835210999999934
12.943210000000056,-4.284616000000004,-0.9558602999999936
12.365545000000054,-4.658024000000005,-0.8281994999999936
12.365545000000054,-4.658024000000005,-0.8281994999999936
11.653836000000055,-3.7675897666666707,-0.05904313333332697
10.942127000000056,-2.8771555333333367,0.7101132333333399
10.230418000000057,-1.986721300000003,1.4792696000000065
10.230418000000057,-1.986721300000003,1.4792696000000065
10.230418000000057,-1.986721300000003,1.4792696000000065
9.617646000000057,-1.479269590000003,1.523950866666673
9.004874000000058,-0.9718178800000029,1.5686321333333397
8.392102000000058,-0.46436617000000296,1.6133134000000062
8.155929566666726,-0.4516000966666696,1.6101219000000062
7.919757133333394,-0.43883402333333626,1.606930400000006
7.68358470000006,-0.42606795000000286,1.603738900000006
7.68358470000006,-0.42606795000000286,1.603738900000006
8.219759800000059,-0.8792638000000027,1.4792696333333393
8.755934900000058,-1.3324596500000025,1.3548003666666728
9.292110000000056,-1.7856555000000025,1.2303311000000061
9.292110000000056,-1.7856555000000025,1.2303311000000061
9.292110000000056,-1.7856555000000025,1.2303311000000061
9.901690500000056,-1.8718265666666694,1.4090562000000062
10.511271000000056,-1.957997633333336,1.587781300000006
11.120851500000056,-2.044168700000003,1.7665064000000061
11.120851500000056,-2.0441687000000024,1.7665064000000061
11.947455333333389,-2.101616066666669,1.7282081666666729
12.774059166666722,-2.1590634333333356,1.6899099333333396
13.600663000000054,-2.2165108000000022,1.6516117000000063
12.27937366666672,-1.9388485333333356,1.3803324800000063
10.958084333333383,-1.6611862666666688,1.1090532600000065
9.63679500000005,-1.383524000000002,0.8377740400000064
9.63679500000005,-1.383524000000002,0.8377740400000064
9.63679500000005,-1.383524000000002,0.8377740400000064
10.201694000000053,-1.029265253333335,0.47074922000000635
10.766593000000055,-0.6750065066666685,0.10372440000000638
11.331492000000056,-0.32074776000000194,-0.2633004199999936
11.33149200000006,-0.32074776000000194,-0.2633004199999936
10.431483333333393,-0.3781951233333353,-0.3973442799999936
9.531474666666726,-0.43564248666666866,-0.5313881399999937
8.631466000000058,-0.49308985000000205,-0.6654319999999936
7.760181000000059,-0.3287265666666687,-0.4739407766666603
6.8888960000000585,-0.16436328333333536,-0.28244955333332694
6.017611000000058,0.0,-0.0909583299999936
6.017611000000056,0.0,-0.0909583299999936
6.017611000000056,0.0,-0.0909583299999936
5.912290866666723,0.017553359999997964,-0.30159865333332697
5.806970733333389,0.03510671999999796,-0.5122389766666603
5.701650600000055,0.052660079999997965,-0.7228792999999937
5.701650600000055,0.052660079999997965,-0.7228792999999939
5.9697383000000555,-0.03351096000000203,-0.5601117766666606
6.237826000000055,-0.11968200000000202,-0.3973442533333272
6.505913700000055,-0.205853040000002,-0.23457672999999382
6.659106700000055,-0.735645360000002,-0.2569173766666605
6.812299700000054,-1.2654376800000018,-0.27925802333332717
6.965492700000053,-1.7952300000000019,-0.30159866999999385
6.965492700000053,-1.7952300000000019,-0.3015986699999939
6.965492700000053,-1.7952300000000019,-0.3015986699999939
9.285727800000053,-2.3601291000000018,-0.4164933966666606
11.605962900000053,-2.9250282000000016,-0.5313881233333272
13.926198000000054,-3.4899273000000015,-0.6462828499999939
13.926198000000054,-3.4899273000000015,-0.6462828499999937
14.76556766666672,-3.7420573333333356,-0.12287354333332708
15.604937333333389,-3.994187366666669,0.40053576333333957
16.444307000000055,-4.246317400000003,0.9239450700000064
16.44430700000006,-4.246317400000002,0.9239450700000061
14.321946333333392,-3.678226866666668,1.7313997133333394
12.199585666666723,-3.1101363333333345,2.5388543566666724
10.077225000000055,-2.542045800000001,3.3463090000000055
10.077225000000055,-2.5420458000000004,3.3463090000000055
8.360187000000055,-1.906933286666667,3.3463090000000055
6.643149000000055,-1.2718207733333338,3.3463090000000055
4.926111000000055,-0.6367082600000006,3.3463090000000055
4.926111000000056,-0.6367082600000006,3.3463090000000055
5.554840566666723,-0.8026673066666673,3.030348500000006
6.18357013333339,-0.968626353333334,2.7143880000000062
6.812299700000057,-1.1345854000000006,2.398427500000006
6.812299700000057,-1.1345854000000006,2.398427500000006
7.788904800000058,-1.5494830000000006,2.3569377333333392
8.765509900000058,-1.964380600000001,2.3154479666666723
9.742115000000059,-2.3792782000000012,2.273958200000005
9.74211500000006,-2.3792782000000017,2.273958200000005
9.936797666666727,-2.130339633333335,1.8462944800000047
10.131480333333394,-1.8814010666666683,1.4186307600000048
10.326163000000063,-1.6324625000000015,0.9909670400000049
10.326163000000063,-1.6324625000000015,0.9909670400000049
12.799591666666728,-2.2228937000000015,-0.3654289733333285
15.273020333333394,-2.8133249000000013,-1.721824986666662
17.74644900000006,-3.403756100000001,-3.078220999999995
17.74644900000006,-3.403756100000001,-3.0782209999999957
15.273020333333394,-2.0186364000000014,-2.053743093333329
12.799591666666728,-0.6335167000000012,-1.0292651866666624
10.326163000000063,0.751602999999999,-0.004787279999995804
10.326163000000063,0.751602999999999,-0.004787279999995804
9.24423786666673,1.150542999999999,0.2026615233333375
8.162312733333396,1.5494829999999988,0.4101103266666708
7.080387600000063,1.948422999999999,0.6175591300000041
7.080387600000063,1.948422999999999,0.6175591300000041
6.624000233333397,1.057988899999999,0.03670248666667072
6.16761286666673,0.16755479999999898,-0.5441541566666627
5.7112255000000625,-0.722879300000001,-1.125010799999996
5.7112255000000625,-0.722879300000001,-1.1250107999999959
5.8005880000000625,-0.6973471500000009,-0.7388368799999959
5.8899505000000625,-0.6718150000000008,-0.3526629599999958
5.9793130000000625,-0.6462828500000007,0.03351096000000423
5.9793130000000625,-0.6462828500000009,0.03351096000000423
7.7474153333333975,-0.9622433666666675,-0.08138375999999577
9.515517666666732,-1.2782038833333342,-0.19627847999999573
11.283620000000065,-1.594164400000001,-0.3111731999999957
11.283620000000065,-1.594164400000001,-0.31117319999999565
13.0102323333334,-2.0792754666666675,-0.1643632799999957
14.736844666666736,-2.564386533333334,-0.017553359999995688
16.463457000000073,-3.049497600000001,0.1292565600000043
16.463457000000073,-3.049497600000001,0.1292565600000043
14.97301700000007,-2.7909844666666674,1.105861706666671
13.482577000000068,-2.532471333333334,2.082466853333338
11.992137000000065,-2.273958200000001,3.0590720000000045
10.310205800000068,-1.689910000000001,2.9697094666666715
8.628274600000069,-1.1058618000000007,2.8803469333333376
6.94634340000007,-0.5218136000000007,2.790984400000004
6.94634340000007,-0.5218136000000005,2.790984400000004
6.94634340000007,-0.5218136000000005,2.790984400000004
6.888896133333403,-0.8888384000000006,2.3186394000000043
6.831448866666737,-1.255863200000001,1.846294400000004
6.77400160000007,-1.6228880000000008,1.373949400000004
6.774001600000072,-1.6228880000000008,1.373949400000004
6.943152066666738,-1.737782733333334,1.3133105333333377
7.112302533333406,-1.8526774666666672,1.2526716666666713
7.281453000000073,-1.9675722000000004,1.1920328000000049
8.771893000000071,-1.6899099333333336,1.0675635000000046
10.262333000000071,-1.4122476666666668,0.9430942000000045
11.75277300000007,-1.1345854,0.8186249000000045
11.75277300000007,-1.1345854,0.8186249000000045
11.75277300000007,-1.1345854,0.8186249000000045
14.17513700000007,-1.5941642666666669,0.030319433333337826
16.597501000000072,-2.0537431333333336,-0.7579860333333289
19.019865000000074,-2.513322,-1.5462914999999955
19.019865000000078,-2.513322,-1.5462914999999953
15.75813133333341,-1.93884842,-0.978200916666662
12.496397666666743,-1.36437484,-0.41011033333332864
9.234664000000077,-0.7899012599999998,0.1579802500000048
8.542104000000075,-0.1707463399999998,0.23138521333333814
7.849544000000075,0.4484085800000002,0.30479017666667146
7.156984000000075,1.0675635000000003,0.37819514000000476
7.156984000000075,1.0675635000000003,0.37819514000000476
7.156984000000075,1.0675635000000003,0.37819514000000476
6.154846666666742,0.4388340333333336,0.0015957600000047571
5.1527093333334095,-0.1898954333333331,-0.37500361999999526
4.150572000000076,-0.8186248999999998,-0.7516029999999952
4.150572000000076,-0.8186248999999998,-0.7516029999999952
4.437808800000076,-0.7803266566666665,-0.6494743566666619
4.725045600000076,-0.7420284133333331,-0.5473457133333285
5.012282400000076,-0.7037301699999997,-0.44521706999999505
5.012282400000076,-0.7037301699999997,-0.44521706999999505
7.584647600000076,-0.9016044133333331,-0.668623479999995
10.157012800000077,-1.0994786566666663,-0.8920298899999951
12.729378000000077,-1.2973528999999997,-1.1154362999999952
12.729378000000077,-1.2973528999999997,-1.1154362999999952
14.073007666666745,-1.5845896999999998,-0.850540119999995
15.416637333333412,-1.8718264999999998,-0.5856439399999951
16.76026700000008,-2.1590632999999997,-0.32074775999999505
16.76026700000008,-2.1590632999999997,-0.32074775999999505
15.190039333333411,-2.5388542666666667,0.31755629333333824
13.619811666666743,-2.918645233333334,0.9558603466666716
12.049584000000076,-3.298436200000001,1.5941644000000048
12.049584000000076,-3.298436200000001,1.5941644000000046
10.616591500000078,-2.573961066666668,2.076083933333338
9.183599000000077,-1.849485933333334,2.558003466666671
7.750606500000078,-1.1250108000000008,3.039923000000004
7.750606500000078,-1.1250108000000008,3.039923000000004
7.348475000000078,-0.9462857000000007,2.9729010666666706
6.946343500000077,-0.7675606000000007,2.9058791333333374
6.544212000000076,-0.5888355000000006,2.8388572000000036
6.544212000000075,-0.5888355000000006,2.8388572000000036
6.962301200000074,-1.0707550000000006,2.3058733333333374
7.380390400000074,-1.5526745000000004,1.7728894666666708
7.798479600000074,-2.0345940000000002,1.2399056000000042
7.798479600000074,-2.0345940000000002,1.239905600000004
8.558061400000073,-2.1654463333333336,1.1186278333333373
9.317643200000072,-2.296298666666667,0.9973500666666704
10.077225000000071,-2.4271510000000003,0.8760723000000038
10.077225000000071,-2.4271510000000003,0.8760723000000038
11.152767333333406,-2.2101276666666667,0.4930898733333371
12.228309666666739,-1.9931043333333331,0.11010744666667038
13.303852000000072,-1.7760809999999996,-0.27287497999999627
13.303852000000072,-1.7760809999999996,-0.27287497999999627
14.21024366666674,-1.7154421333333332,-0.45479161999999623
15.116635333333406,-1.6548032666666668,-0.6367082599999963
16.023027000000074,-1.5941644000000004,-0.8186248999999962
16.023027000000074,-1.5941644000000004,-0.8186248999999962
12.793208666666743,-0.9143705766666671,-0.3813866499999962
9.56339033333341,-0.23457675333333375,0.05585160000000381
6.333572000000079,0.44521706999999955,0.49308985000000377
6.333572000000079,0.44521706999999955,0.49308985000000377
6.272933000000079,0.4228764266666662,0.07819223333333708
6.212294000000079,0.4005357833333328,-0.3367053833333296
6.15165500000008,0.37819513999999943,-0.7516029999999962
6.151655000000081,0.37819513999999943,-0.7516029999999961
5.366541100000082,-0.017553373333333882,-0.9558602999999962
4.581427200000083,-0.4133018866666672,-1.1601175999999962
3.7963133000000826,-0.8090504000000004,-1.3643748999999963
3.7963133000000826,-0.8090504000000004,-1.3643748999999967
6.6271915333334155,-0.9175620666666672,-1.0579889566666634
9.458069766666748,-1.026073733333334,-0.7516030133333299
12.288948000000081,-1.1345854000000009,-0.4452170699999966
12.288948000000081,-1.1345854000000009,-0.4452170699999966
14.379394000000083,-1.6356540666666677,-0.2505343399999966
16.469840000000083,-2.1367227333333347,-0.055851609999996575
18.560286000000083,-2.6377914000000016,0.13883112000000342
18.56028600000008,-2.6377914000000016,0.13883112000000342
15.451745333333411,-2.4048104333333353,1.2526716133333367
12.343204666666745,-2.171829466666669,2.36651210666667
9.234664000000079,-1.938848500000003,3.480352600000003
9.234664000000079,-1.938848500000003,3.480352600000003
8.59955133333341,-1.6388456000000031,3.0877956333333363
7.964438666666744,-1.3388427000000032,2.69523866666667
7.329326000000077,-1.0388398000000032,2.302681700000004
7.329326000000077,-1.0388398000000032,2.302681700000004
7.4314546666667445,-0.9047959533333364,2.353746033333337
7.533583333333412,-0.7707521066666697,2.4048103666666703
7.63571200000008,-0.636708260000003,2.455874700000004
7.635712000000081,-0.636708260000003,2.455874700000004
7.827203333333415,-0.9207535733333364,2.1877870333333367
8.018694666666748,-1.20479888666667,1.91969936666667
8.210186000000084,-1.4888442000000033,1.651611700000003
8.210186000000084,-1.4888442000000033,1.651611700000003
9.777222333333418,-1.84310286666667,0.8633062133333365
11.344258666666752,-2.1973615333333365,0.07500072666666983
12.911295000000086,-2.551620200000003,-0.7133047599999968
14.290031333333419,-2.644174300000003,-0.9271366066666635
15.668767666666751,-2.7367284000000027,-1.1409684533333302
17.04750400000008,-2.829282500000003,-1.354800299999997
17.047504000000078,-2.829282500000003,-1.354800299999997
17.047504000000078,-2.829282500000003,-1.354800299999997
14.51662900000008,-1.9356568966666696,-0.4260679333333304
11.98575400000008,-1.0420312933333362,0.5026644333333362
9.45487900000008,-0.1484056900000028,1.4313968000000028
9.454879000000082,-0.1484056900000028,1.4313968000000028
8.724020766666747,-0.3015986600000028,1.0930956666666696
7.9931625333334155,-0.4547916300000028,0.7547945333333365
7.262304300000082,-0.6079846000000028,0.4164934000000032
7.262304300000082,-0.6079846000000028,0.4164934000000032
6.330380200000082,-0.7484115000000028,0.1420226600000032
5.398456100000082,-0.8888384000000028,-0.13244807999999683
4.4665320000000825,-1.029265300000003,-0.40691881999999685
4.4665320000000825,-1.029265300000003,-0.40691881999999685
4.734619766666749,-0.5345796533333363,0.37819512000000316
5.002707533333415,-0.03989400666666968,1.1633090600000033
5.270795300000081,0.454791639999997,1.948423000000003
5.270795300000081,0.454791639999997,1.948423000000003
8.698487866666747,-0.09095830666666961,2.296298733333336
12.126180433333412,-0.6367082533333362,2.6441744666666693
15.553873000000076,-1.1824582000000028,2.9920502000000027
15.582596666666745,-1.8494859000000028,2.510130633333336
15.611320333333415,-2.5165136000000023,2.0282110666666697
15.640044000000083,-3.183541300000002,1.5462915000000035
15.640044000000083,-3.183541300000002,1.5462915000000035
12.981508000000085,-3.668652366666669,1.3739494333333369
10.322972000000087,-4.153763433333336,1.2016073666666702
7.664436000000086,-4.638874500000003,1.0292653000000036
7.664436000000085,-4.638874500000003,1.0292653000000036
7.297411000000085,-3.7580149333333357,1.4313968000000035
6.930386000000084,-2.877155366666669,1.8335283000000036
6.563361000000083,-1.9962958000000028,2.2356598000000036
6.563361000000083,-1.9962958000000028,2.2356598000000036
6.662298233333416,-1.8654435000000025,2.5324712000000034
6.76123546666675,-1.7345912000000023,2.829282600000003
6.860172700000082,-1.6037389000000022,3.1260940000000033
6.860172700000082,-1.6037389000000022,3.1260940000000033
7.425071800000083,-1.9356570333333354,2.6314084000000033
7.989970900000084,-2.267575166666669,2.1367228000000034
8.554870000000085,-2.5994933000000024,1.6420372000000036
8.554870000000085,-2.599493300000002,1.6420372000000036
10.581485333333417,-2.6505575333333353,1.4058646866666704
12.608100666666749,-2.701621766666669,1.1696921733333372
14.63471600000008,-2.752686000000003,0.9335196600000039
14.203860666666747,-2.9186451333333365,1.1633091066666708
13.773005333333415,-3.0846042666666698,1.3930985533333373
13.342150000000084,-3.250563400000003,1.6228880000000039
13.342150000000084,-3.250563400000003,1.6228880000000039
13.342150000000084,-3.250563400000003,1.6228880000000039
11.810220333333419,-2.717579500000003,2.315447900000004
10.278290666666752,-2.184595600000003,3.0080078000000046
8.746361000000084,-1.6516117000000028,3.7005677000000046
8.746361000000086,-1.6516117000000028,3.7005677000000046
7.7027338333334185,-1.3835240000000029,3.8282284666666713
6.6591066666667516,-1.1154363000000027,3.9558892333333375
5.615479500000085,-0.8473486000000028,4.083550000000003
5.615479500000085,-0.8473486000000028,4.083550000000003
4.865472333333418,-0.805858833333336,3.2697124000000044
4.115465166666752,-0.7643690666666693,2.4558748000000046
3.3654580000000855,-0.7228793000000024,1.6420372000000045
3.3654580000000855,-0.7228793000000024,1.6420372000000045
4.843131866666752,-0.9973500333333357,0.9973501000000047
6.320805733333419,-1.2718207666666694,0.35266300000000467
7.7984796000000856,-1.5462915000000026,-0.29202409999999535
11.65064473333342,-2.67928116666667,-0.08457528999999535
15.502809866666754,-3.812270833333337,0.12287352000000466
19.35497500000009,-4.945260500000004,0.33032233000000466
19.354975000000092,-4.945260500000004,0.33032233000000466
18.241134333333424,-5.187816000000003,0.9303280866666713
17.12729366666676,-5.430371500000002,1.530333843333338
16.013453000000094,-5.672927000000001,2.1303396000000046
16.013453000000094,-5.672927000000001,2.130339600000005
13.59428066666676,-4.980367166666668,2.146297200000005
11.175108333333426,-4.287807333333335,2.1622548000000053
8.755936000000093,-3.5952475000000024,2.1782124000000054
8.755936000000093,-3.595247500000003,2.1782124000000054
8.755936000000093,-3.595247500000003,2.1782124000000054
7.670819000000094,-3.148434666666669,2.0888498666666724
6.5857020000000945,-2.7016218333333355,1.9994873333333392
5.500585000000096,-2.254809000000002,1.9101248000000062
5.6793101000000945,-2.6218338000000023,1.6579947333333394
5.858035200000093,-2.988858600000002,1.4058646666666725
6.0367603000000924,-3.355883400000002,1.153734600000006
6.0367603000000924,-3.355883400000002,1.153734600000006
7.0931535333334255,-3.7452488333333354,1.153734600000006
8.14954676666676,-4.134614266666669,1.153734600000006
9.205940000000092,-4.523979700000002,1.153734600000006
9.205940000000092,-4.523979700000003,1.153734600000006
9.205940000000092,-4.523979700000003,1.153734600000006
10.33254666666676,-4.259083533333336,1.233522600000006
11.459153333333427,-3.994187366666669,1.3133106000000059
12.585760000000095,-3.7292912000000027,1.393098600000006
12.50278066666676,-3.397373133333336,1.0930956833333392
12.419801333333426,-3.065455066666669,0.7930927666666725
12.336822000000092,-2.7335370000000023,0.4930898500000058
12.336822000000092,-2.7335370000000023,0.4930898500000058
12.336822000000092,-2.7335370000000023,0.4930898500000058
12.39107766666676,-2.7335370000000023,-0.03351096666666085
12.445333333333428,-2.7335370000000023,-0.5601117833333276
12.499589000000094,-2.7335370000000023,-1.0867125999999943
12.499589000000094,-2.7335370000000023,-1.086712599999994
12.049584333333428,-2.8484316666666696,-1.1058617333333274
11.599579666666761,-2.9633263333333364,-1.1250108666666607
11.149575000000093,-3.078221000000003,-1.144159999999994
10.198502000000095,-2.4111933666666703,-0.4388340333333274
9.247429000000096,-1.744165733333337,0.2664919333333393
8.296356000000097,-1.0771381000000035,0.9718179000000061
8.296356000000099,-1.0771381000000035,0.9718179000000061
7.830394333333433,-1.0037331200000035,0.7228793233333394
7.364432666666766,-0.9303281400000035,0.47394074666667274
6.8984710000001,-0.8569231600000036,0.22500217000000608
