accx,accy,accz
-0.83777404,4.9835587,5.0410059999999985
-0.79468852,4.61015085,4.988346
-0.7803266799999999,4.485681566666667,4.970792666666667
-0.7516029999999999,4.236743000000001,4.9356860000000005
-0.7516029999999999,4.236743000000001,4.9356860000000005
-0.48351530666666664,3.681418500000001,5.018665566666667
-0.21542761333333327,3.1260940000000006,5.101645133333334
0.052660080000000074,2.5707695000000013,5.1846247000000005
0.052660080000000074,2.5707695000000013,5.1846247000000005
0.1994700033333334,2.663323600000001,5.420797033333334
0.3462799266666667,2.7558777000000005,5.656969366666668
0.49308985000000005,2.8484318,5.893141700000001
-0.28564106666666667,2.0218280566666667,6.2410174666666665
-1.0643719833333334,1.1952243133333331,6.588893233333333
-1.8431028999999999,0.36862056999999976,6.936768999999998
-1.8431028999999999,0.36862056999999976,6.936768999999998
-1.8431028999999999,0.36862056999999976,6.936768999999998
-3.0080078333333335,-0.45479162000000023,7.102727999999999
-4.172912766666667,-1.2782038100000002,7.268687
-5.3378176999999996,-2.1016160000000004,7.434646000000001
-6.502722466666666,-2.3697036666666667,7.2654955333333335
-7.667627233333332,-2.637791333333334,7.096345066666667
-8.832531999999999,-2.9058790000000005,6.9271946
-8.832531999999999,-2.9058790000000005,6.9271946
-9.703816999999999,-3.1867328333333336,6.1037824
-10.575102,-3.467586666666666,5.2803702
-11.446387,-3.748440499999999,4.456958
-11.446387,-3.7484404999999987,4.456958
-12.193202666666664,-3.6782269999999984,3.4931189000000002
-12.94001833333333,-3.6080134999999984,2.5292798
-13.686833999999996,-3.5377999999999985,1.5654407
-13.686833999999996,-3.5377999999999985,1.5654407
-13.236829999999996,-4.811216666666666,0.6016015999999998
-12.786825999999996,-6.084633333333333,-0.3622375000000002
-12.336821999999996,-7.3580499999999995,-1.3260766000000002
-12.336821999999996,-7.358050000000001,-1.3260766000000002
-11.644261999999998,-6.521871666666667,-0.55372872
-10.951701999999997,-5.685693333333333,0.21861916000000006
-10.259141999999997,-4.849514999999999,0.9909670400000001
-10.259141999999995,-4.849515,0.9909670400000001
-9.627220999999995,-5.631437333333334,-0.15798020666666665
-8.995299999999995,-6.413359666666668,-1.3069274533333335
-8.363378999999993,-7.195282000000002,-2.4558747000000003
-8.363378999999993,-7.195282000000002,-2.4558747000000003
-8.328272333333324,-6.563361000000001,-1.721825086666667
-8.293165666666654,-5.931440000000001,-0.9877754733333336
-8.258058999999987,-5.299519,-0.25372586000000014
-8.376144999999985,-5.076112666666667,-0.5888354733333335
-8.494230999999987,-4.852706333333334,-0.923945086666667
-8.612316999999987,-4.629300000000001,-1.2590547000000005
-8.612316999999988,-4.629300000000001,-1.2590547000000007
-8.612316999999988,-4.629300000000001,-1.2590547000000007
-8.829340666666655,-4.319722566666667,-1.198415833333334
-9.046364333333322,-4.010145133333334,-1.1377769666666673
-9.26338799999999,-3.7005677000000006,-1.0771381000000007
-9.282536666666656,-3.438863033333334,-0.863306233333334
-9.301685333333323,-3.177158366666667,-0.6494743666666672
-9.320833999999989,-2.9154537000000005,-0.43564250000000054
-9.320833999999989,-2.9154537000000005,-0.43564250000000054
-9.253812333333322,-2.7782183000000003,-0.32074777666666726
-9.186790666666655,-2.6409828999999996,-0.20585305333333395
-9.11976899999999,-2.5037474999999993,-0.09095833000000063
-9.11976899999999,-2.5037474999999993,-0.09095833000000064
-9.071896166666656,-2.4175764999999996,-0.011170323333333973
-9.024023333333325,-2.3314055000000002,0.0686176833333327
-8.976150499999994,-2.2452345000000005,0.14840568999999937
-8.976150499999994,-2.2452345000000005,0.14840568999999937
-8.972958999999994,-2.2899157333333338,0.18670393333333268
-8.969767499999994,-2.3345969666666666,0.225002176666666
-8.966575999999995,-2.3792782,0.2633004199999993
-8.966575999999995,-2.3792782,0.2633004199999993
-9.024023333333329,-2.5580033666666666,0.1707463329999993
-9.081470666666663,-2.7367285333333338,0.07819224599999931
-9.138917999999995,-2.9154537000000005,-0.014361841000000672
-9.138917999999995,-2.9154537000000005,-0.014361841000000672
-9.081470666666663,-2.8994961333333333,-0.07180920733333401
-9.024023333333329,-2.8835385666666666,-0.12925657366666735
-8.966575999999995,-2.8675809999999995,-0.18670394000000068
-8.966575999999995,-2.8675809999999995,-0.18670394000000068
-8.979341999999997,-2.8420488,-0.148405693333334
-8.992107999999998,-2.8165166000000004,-0.11010744666666734
-9.004874,-2.790984400000001,-0.07180920000000068
-9.059130000000001,-2.7686437666666683,-0.06223464100000068
-9.113386,-2.7463031333333348,-0.052660082000000684
-9.167642,-2.723962500000001,-0.04308552300000068
-9.167642,-2.723962500000001,-0.04308552300000068
-9.205940166666666,-2.7016218333333355,-0.05585160366666734
-9.244238333333334,-2.6792811666666694,-0.068617684333334
-9.282536499999999,-2.6569405000000033,-0.08138376500000066
-9.282536499999999,-2.6569405000000033,-0.08138376500000066
-9.225088999999999,-2.6984302333333368,-0.065426163333334
-9.1676415,-2.7399199666666703,-0.04946856166666733
-9.110194,-2.7814097000000033,-0.033510960000000665
-9.110194,-2.7814097000000033,-0.033510960000000665
-9.138917666666666,-2.733536933333337,0.017553363333332673
-9.167641333333334,-2.6856641666666703,0.06861768666666601
-9.196365,-2.6377914000000033,0.11968200999999934
-9.196365,-2.6377914000000033,0.11968200999999934
-9.161258333333334,-2.5675779333333373,0.16117177333333266
-9.126151666666667,-2.497364466666671,0.20266153666666598
-9.091045000000001,-2.4271510000000043,0.2441512999999993
-9.091045000000001,-2.4271510000000043,0.2441512999999993
-9.113385666666668,-2.4367255666666714,0.20904457333333262
-9.135726333333336,-2.446300133333338,0.17393784666666598
-9.158067000000003,-2.4558747000000047,0.1388311199999993
-9.215514333333337,-2.420768033333338,0.12287352333333264
-9.272961666666669,-2.385661366666671,0.10691592666666598
-9.330409000000003,-2.350554700000004,0.09095832999999931
-9.330409000000005,-2.350554700000004,0.09095832999999931
-9.330409000000005,-2.350554700000004,0.09095832999999931
-9.33360066666667,-2.3218310000000044,0.1164904899999993
-9.336792333333337,-2.2931073000000044,0.14202264999999928
-9.339984000000003,-2.2643836000000044,0.1675548099999993
-9.269770333333335,-2.353746133333338,0.11170320666666599
-9.199556666666668,-2.443108666666671,0.055851603333332646
-9.129343,-2.532471200000004,0.0
-9.129343,-2.532471200000004,0.0
-9.13891766666667,-2.5675779333333373,-0.011170320000000684
-9.148492333333337,-2.6026846666666703,-0.022340640000000685
-9.158067000000004,-2.6377914000000033,-0.03351096000000068
-9.158067000000004,-2.6377914000000033,-0.03351096000000068
-9.183599333333339,-2.5452372666666707,0.03031944333333265
-9.209131666666671,-2.4526831333333377,0.09414984666666598
-9.234664000000004,-2.3601290000000046,0.1579802499999993
-9.234664000000004,-2.3601290000000046,0.15798024999999932
-9.24423866666667,-2.395235766666671,0.1452141699999993
-9.253813333333335,-2.4303425333333375,0.1324480899999993
-9.263388,-2.4654493000000035,0.11968200999999928
-9.263388,-2.4654493000000035,0.11968200999999928
-9.266579333333334,-2.4750238666666706,0.11968200999999928
-9.269770666666668,-2.4845984333333373,0.11968200999999928
-9.272962000000001,-2.494173000000004,0.11968200999999928
-9.272962000000001,-2.494173000000004,0.11968200999999928
-9.237855333333336,-2.4782154333333373,0.14840568666666595
-9.20274866666667,-2.4622578666666706,0.17712936333333262
-9.167642000000003,-2.4463003000000043,0.2058530399999993
-9.167642000000003,-2.4463003000000048,0.2058530399999993
-9.177216333333336,-2.4111935333333383,0.22500216666666595
-9.186790666666669,-2.376086766666672,0.2441512933333326
-9.196365000000002,-2.340980000000006,0.26330041999999926
-9.186790666666669,-2.3537460666666727,0.2441512933333326
-9.177216333333336,-2.366512133333339,0.22500216666666595
-9.167642000000003,-2.3792782000000057,0.2058530399999993
-9.167642000000003,-2.3792782000000057,0.2058530399999993
-9.18998266666667,-2.3537460333333393,0.20904455999999927
-9.212323333333337,-2.328213866666673,0.21223607999999924
-9.234664000000004,-2.3026817000000066,0.2154275999999992
-9.234664000000004,-2.3026817000000066,0.2154275999999992
-9.24423866666667,-2.289915666666673,0.20904455999999919
-9.253813333333335,-2.2771496333333396,0.20266151999999918
-9.263388,-2.264383600000006,0.19627847999999917
-9.263388,-2.264383600000006,0.19627847999999917
-9.253813333333335,-2.258000566666673,0.19308696666666583
-9.24423866666667,-2.2516175333333397,0.1898954533333325
-9.234664000000004,-2.2452345000000062,0.18670393999999915
-9.234664000000004,-2.2452345000000062,0.18670393999999915
-9.218706000000005,-2.2452345000000062,0.19627849333333247
-9.202748000000005,-2.2452345000000062,0.20585304666666582
-9.186790000000004,-2.2452345000000062,0.21542759999999916
-9.186790000000004,-2.2452345000000062,0.2154275999999992
-9.199556333333339,-2.232468366666673,0.23138520666666587
-9.21232266666667,-2.2197022333333396,0.24734281333333255
-9.225089000000002,-2.206936100000006,0.26330041999999926
-9.225089,-2.206936100000006,0.26330041999999926
-9.241046666666666,-2.2037446333333395,0.26330041999999926
-9.257004333333331,-2.2005531666666727,0.26330041999999926
-9.272961999999996,-2.197361700000006,0.26330041999999926
-9.266578999999995,-2.194170133333339,0.26968345999999926
-9.260195999999995,-2.1909785666666726,0.27606649999999927
-9.253812999999996,-2.187787000000006,0.2824495399999993
-9.253812999999996,-2.187787000000006,0.2824495399999993
-9.247429999999996,-2.1909785666666726,0.2856410599999992
-9.241046999999996,-2.194170133333339,0.2888325799999992
-9.234663999999997,-2.197361700000006,0.2920240999999992
-9.234663999999997,-2.197361700000006,0.2920240999999991
-9.234663999999997,-2.206936200000006,0.28244953999999906
-9.234663999999997,-2.216510700000006,0.27287497999999905
-9.234663999999997,-2.2260852000000058,0.263300419999999
-9.234663999999997,-2.2260852000000058,0.2633004199999989
-9.23147233333333,-2.2292767333333394,0.2824495333333323
-9.228280666666665,-2.232468266666673,0.3015986466666656
-9.225088999999999,-2.2356598000000063,0.3207477599999989
-9.225089,-2.2356598000000063,0.3207477599999989
-9.237855333333334,-2.2292768000000063,0.3143647299999989
-9.25062166666667,-2.2228938000000062,0.3079816999999989
-9.263388000000003,-2.2165108000000058,0.3015986699999989
-9.263388000000004,-2.2165108000000058,0.3015986699999989
-9.250621666666673,-2.2197022666666726,0.2856410666666656
-9.237855333333341,-2.2228937333333394,0.2696834633333323
-9.22508900000001,-2.2260852000000058,0.253725859999999
-9.22508900000001,-2.2228937333333394,0.26330041999999904
-9.22508900000001,-2.2197022666666726,0.272874979999999
-9.22508900000001,-2.2165108000000058,0.28244953999999894
-9.22508900000001,-2.2165108000000058,0.28244953999999894
-9.22508900000001,-2.2165108000000058,0.28244953999999894
-9.250621000000011,-2.226085366666673,0.28244953999999894
-9.276153000000011,-2.2356599333333396,0.28244953999999894
-9.301685000000012,-2.2452345000000062,0.28244953999999894
-9.285727666666679,-2.2420429333333396,0.2888325833333323
-9.269770333333346,-2.238851366666673,0.2952156266666656
-9.253813000000013,-2.2356598000000063,0.3015986699999989
-9.253813000000013,-2.2356598000000063,0.3015986699999989
-9.25700466666668,-2.232468266666673,0.3015986699999989
-9.260196333333345,-2.2292767333333394,0.3015986699999989
-9.263388000000012,-2.2260852000000058,0.3015986699999989
-9.263388000000012,-2.2260852000000058,0.3015986699999989
-9.257004666666676,-2.2197021666666727,0.3079816999999989
-9.250621333333344,-2.2133191333333393,0.3143647299999989
-9.244238000000012,-2.206936100000006,0.3207477599999989
-9.244238000000013,-2.206936100000006,0.3207477599999989
-9.244238000000013,-2.2037446333333395,0.3303223233333323
-9.244238000000013,-2.2005531666666727,0.3398968866666656
-9.244238000000013,-2.197361700000006,0.34947144999999896
-9.244238000000013,-2.197361700000006,0.34947144999999896
-9.25381266666668,-2.2005531666666727,0.34308840999999896
-9.263387333333345,-2.2037446333333395,0.33670536999999895
-9.27296200000001,-2.206936100000006,0.33032232999999894
-9.272962000000009,-2.206936100000006,0.33032232999999894
-9.266579000000009,-2.2037446333333395,0.33351385333333233
-9.26019600000001,-2.2005531666666727,0.33670537666666567
-9.25381300000001,-2.197361700000006,0.339896899999999
-9.25381300000001,-2.197361700000006,0.339896899999999
-9.244238333333344,-2.2037447333333393,0.3430884166666657
-9.234663666666679,-2.2101277666666728,0.34627993333333235
-9.225089000000013,-2.2165108000000058,0.34947144999999896
-9.237855333333346,-2.2101277666666728,0.34627993333333235
-9.25062166666668,-2.2037447333333393,0.3430884166666657
-9.263388000000015,-2.197361700000006,0.339896899999999
-9.263388000000015,-2.197361700000006,0.339896899999999
-9.263388000000015,-2.197361700000006,0.339896899999999
-9.257004666666681,-2.2005531666666727,0.339896899999999
-9.25062133333335,-2.2037446333333395,0.339896899999999
-9.244238000000017,-2.206936100000006,0.339896899999999
-9.23785500000002,-2.1941700666666724,0.33670537666666567
-9.23147200000002,-2.181404033333339,0.33351385333333233
-9.22508900000002,-2.1686380000000054,0.33032232999999894
-9.22508900000002,-2.1686380000000054,0.33032232999999894
-9.241046666666685,-2.175021000000006,0.3271308066666656
-9.25700433333335,-2.181404000000006,0.3239392833333323
-9.272962000000016,-2.187787000000006,0.3207477599999989
-9.272962000000014,-2.187787000000006,0.3207477599999989
-9.253812666666681,-2.187787000000006,0.3079816866666656
-9.234663333333346,-2.187787000000006,0.2952156133333323
-9.215514000000013,-2.187787000000006,0.28244953999999894
-9.215514000000013,-2.187787000000006,0.28244953999999894
-9.21870566666668,-2.200553066666673,0.279258019999999
-9.221897333333345,-2.2133191333333393,0.27606649999999905
-9.225089000000011,-2.2260852000000058,0.27287497999999905
-9.22508900000001,-2.2260852000000058,0.2728749799999991
-9.27296200000001,-2.2228937333333394,0.29521561999999907
-9.320835000000011,-2.2197022666666726,0.3175562599999991
-9.36870800000001,-2.2165108000000058,0.3398968999999991
-9.368708000000012,-2.2165108000000058,0.3398968999999991
-9.33998416666668,-2.2037446666666725,0.36542906666666575
-9.311260333333346,-2.190978533333339,0.3909612333333324
-9.282536500000013,-2.1782124000000054,0.41649339999999907
-9.282536500000013,-2.1782124000000054,0.41649339999999907
-9.26019566666668,-2.175020933333339,0.41649339999999907
-9.237854833333346,-2.171829466666672,0.41649339999999907
-9.215514000000013,-2.1686380000000054,0.41649339999999907
-9.253812333333348,-2.175021000000006,0.40372731333333234
-9.292110666666682,-2.181404000000006,0.3909612266666657
-9.330409000000017,-2.187787000000006,0.37819513999999904
-9.330409000000019,-2.187787000000006,0.37819513999999915
-9.304877000000017,-2.1909785666666726,0.3750036166666659
-9.279345000000017,-2.194170133333339,0.3718120933333326
-9.253813000000017,-2.197361700000006,0.3686205699999993
-9.253813000000015,-2.197361700000006,0.3686205699999993
-9.25062133333335,-2.197361700000006,0.3622375299999993
-9.247429666666683,-2.197361700000006,0.3558544899999993
-9.244238000000017,-2.197361700000006,0.3494714499999993
-9.244238000000019,-2.197361700000006,0.3494714499999993
-9.225088666666684,-2.206936200000006,0.3494714499999993
-9.205939333333351,-2.216510700000006,0.3494714499999993
-9.186790000000018,-2.2260852000000058,0.3494714499999993
-9.186790000000016,-2.2260852000000058,0.3494714499999993
-9.17402433333335,-2.1941700000000055,0.3398968866666659
-9.161258666666683,-2.1622548000000053,0.33032232333333256
-9.148493000000016,-2.130339600000005,0.3207477599999992
-9.148493000000018,-2.130339600000005,0.3207477599999992
-9.19636533333335,-2.181403933333338,0.30479016666666586
-9.244237666666683,-2.2324682666666713,0.2888325733333325
-9.292110000000017,-2.283532600000005,0.27287497999999916
-9.295301666666683,-2.2643834666666716,0.2984071366666658
-9.298493333333349,-2.2452343333333387,0.32393929333333255
-9.301685000000015,-2.2260852000000058,0.3494714499999992
-9.301685000000015,-2.2260852000000058,0.3494714499999992
-9.272961333333349,-2.2133191333333393,0.3494714499999992
-9.244237666666683,-2.200553066666673,0.3494714499999992
-9.215514000000015,-2.187787000000006,0.3494714499999992
-9.215514000000015,-2.187787000000006,0.3494714499999992
-9.212322666666681,-2.162254866666673,0.3494714499999992
-9.209131333333348,-2.1367227333333396,0.3494714499999992
-9.205940000000014,-2.1111906000000062,0.3494714499999992
-9.205940000000014,-2.1111906000000062,0.3494714499999992
-9.263387333333348,-2.1207651666666734,0.33989688666666584
-9.320834666666682,-2.13033973333334,0.3303223233333325
-9.378282000000015,-2.1399143000000067,0.3207477599999991
-9.378282000000015,-2.139914300000007,0.3207477599999991
-9.333600666666683,-2.1335312666666737,0.31755623999999916
-9.288919333333348,-2.1271482333333407,0.3143647199999992
-9.244238000000015,-2.1207652000000072,0.3111731999999992
-9.244238000000013,-2.1207652000000072,0.3111731999999992
-9.231472000000014,-2.123956666666674,0.3111731999999992
-9.218706000000015,-2.1271481333333404,0.3111731999999992
-9.205940000000016,-2.130339600000007,0.3111731999999992
-9.205940000000018,-2.130339600000007,0.3111731999999992
-9.231472166666684,-2.1175735666666737,0.3207477666666659
-9.25700433333335,-2.1048075333333403,0.33032233333333255
-9.282536500000019,-2.0920415000000068,0.3398968999999992
-9.260195666666684,-2.114382100000007,0.3207477799999992
-9.237854833333351,-2.1367227000000066,0.3015986599999992
-9.215514000000018,-2.1590633000000063,0.28244953999999917
-9.215514000000018,-2.1590633000000063,0.28244953999999917
-9.215514000000018,-2.1590633000000063,0.28244953999999917
-9.234663333333351,-2.146297266666673,0.27606649999999916
-9.253812666666684,-2.13353123333334,0.26968345999999915
-9.27296200000002,-2.120765200000007,0.26330041999999915
-9.26019600000002,-2.1271482333333407,0.2601088999999992
-9.247430000000021,-2.1335312666666737,0.25691737999999925
-9.234664000000022,-2.139914300000007,0.25372585999999925
-9.234664000000022,-2.139914300000007,0.25372585999999925
-9.26019600000002,-2.1367227333333405,0.2728749733333326
-9.285728000000018,-2.133531166666674,0.2920240866666659
-9.311260000000017,-2.130339600000007,0.3111731999999992
-9.311260000000015,-2.130339600000007,0.3111731999999992
-9.298494000000016,-2.1526803000000068,0.28244952333333256
-9.285728000000017,-2.1750210000000068,0.25372584666666587
-9.272962000000017,-2.1973617000000063,0.2250021699999992
-9.27296200000002,-2.197361700000006,0.2250021699999992
-9.234663666666686,-2.1845955666666725,0.21861912666666586
-9.196365333333354,-2.171829433333339,0.21223608333333255
-9.158067000000022,-2.1590633000000055,0.20585303999999924
-9.158067000000022,-2.1590633000000055,0.20585303999999924
-9.205939666666687,-2.1686378666666726,0.22181064666666592
-9.253812333333352,-2.1782124333333392,0.2377682533333326
-9.301685000000019,-2.187787000000006,0.25372585999999925
-9.301685000000019,-2.187787000000006,0.25372585999999925
-9.279344666666686,-2.1941700333333394,0.24734281666666594
-9.257004333333354,-2.200553066666673,0.24095977333333263
-9.234664000000022,-2.206936100000006,0.23457672999999932
-9.234664000000022,-2.206936100000006,0.23457672999999932
-9.295302666666688,-2.1877870666666723,0.23776825333333262
-9.355941333333355,-2.168638033333339,0.24095977666666593
-9.416580000000023,-2.149489000000005,0.24415129999999927
-9.403814000000022,-2.139914400000005,0.279258016666666
-9.391048000000023,-2.1303398000000056,0.31436473333333265
-9.378282000000024,-2.1207652000000055,0.34947144999999935
-9.378282000000025,-2.1207652000000055,0.34947144999999935
-9.343175333333358,-2.146297366666672,0.37181209999999937
-9.308068666666692,-2.1718295333333386,0.39415274999999933
-9.272962000000026,-2.197361700000006,0.41649339999999935
-9.272962000000026,-2.197361700000006,0.41649339999999935
-9.266579000000027,-2.222893866666673,0.378195156666666
-9.260196000000027,-2.24842603333334,0.33989691333333266
-9.253813000000028,-2.2739582000000067,0.3015986699999993
-9.253813000000028,-2.273958200000007,0.3015986699999993
-9.253813000000028,-2.2356599000000075,0.27606650333333266
-9.253813000000028,-2.1973616000000074,0.25053433666666597
-9.253813000000028,-2.1590633000000077,0.22500216999999934
-9.253813000000028,-2.159063300000008,0.22500216999999934
-9.250621333333358,-2.159063300000008,0.22500216999999934
-9.247429666666692,-2.159063300000008,0.22500216999999934
-9.244238000000026,-2.159063300000008,0.22500216999999934
-9.244238000000028,-2.159063300000008,0.22500216999999934
-9.253812666666693,-2.200553066666675,0.21223609333333268
-9.263387333333359,-2.242042833333342,0.199470016666666
-9.272962000000025,-2.2835326000000093,0.18670393999999935
-9.272962000000023,-2.2835326000000093,0.18670393999999935
-9.250621333333356,-2.251617400000009,0.1962784933333327
-9.22828066666669,-2.219702200000009,0.20585304666666604
-9.205940000000021,-2.1877870000000086,0.2154275999999994
-9.205940000000021,-2.1877870000000086,0.21542759999999941
-9.205940000000021,-2.181404000000008,0.21861912333333278
-9.205940000000021,-2.175021000000008,0.22181064666666614
-9.205940000000021,-2.168638000000008,0.22500216999999947
-9.205940000000021,-2.1462973333333415,0.2313852133333328
-9.205940000000021,-2.123956666666675,0.23776825666666612
-9.205940000000021,-2.1016160000000084,0.24415129999999943
-9.205940000000021,-2.1016160000000084,0.24415129999999943
-9.244238000000022,-2.1431057333333414,0.24415129999999943
-9.282536000000022,-2.184595466666675,0.24415129999999943
-9.320834000000021,-2.2260852000000084,0.24415129999999943
-9.320834000000021,-2.2260852000000084,0.24415129999999943
-9.365515666666688,-2.2101276000000083,0.2888325799999995
-9.410197333333356,-2.194170000000008,0.33351385999999944
-9.454879000000021,-2.178212400000008,0.37819513999999943
-9.454879000000021,-2.178212400000008,0.37819513999999943
-9.42296366666669,-2.1590633333333416,0.39096122666666605
-9.391048333333357,-2.1399142666666755,0.4037273133333327
-9.359133000000023,-2.1207652000000095,0.41649339999999935
-9.359133000000023,-2.1207652000000095,0.41649339999999935
-9.27296166666669,-2.1239566666666763,0.3686205933333327
-9.186790333333358,-2.127148133333343,0.320747786666666
-9.100619000000025,-2.1303396000000094,0.27287497999999927
-9.100619000000025,-2.1303396000000094,0.27287497999999927
-9.17721566666669,-2.1048074333333426,0.2760664999999992
-9.253812333333356,-2.079275266666676,0.27925801999999916
-9.330409000000019,-2.0537431000000086,0.28244953999999917
-9.330409000000019,-2.0537431000000086,0.2824495399999991
-9.365515666666685,-2.0728922666666754,0.3079816933333324
-9.40062233333335,-2.092041433333342,0.3335138466666658
-9.435729000000018,-2.111190600000009,0.3590459999999991
-9.362324000000019,-2.130339733333342,0.3175562433333324
-9.28891900000002,-2.1494888666666747,0.2760664866666657
-9.215514000000022,-2.168638000000008,0.234576729999999
-9.215514000000022,-2.168638000000008,0.234576729999999
-9.19317366666669,-2.130339700000008,0.24734281333333233
-9.170833333333357,-2.0920414000000083,0.26010889666666565
-9.148493000000025,-2.0537431000000086,0.27287497999999893
-9.148493000000027,-2.0537431000000086,0.27287497999999893
-9.148493000000027,-2.0569346666666752,0.26010889666666565
-9.148493000000027,-2.060126233333342,0.2473428133333323
-9.148493000000027,-2.0633178000000085,0.23457672999999898
-9.148493000000027,-2.0633178000000085,0.23457672999999898
-9.183599666666693,-2.0473602000000084,0.2409597733333323
-9.21870633333336,-2.0314026000000083,0.2473428166666656
-9.253813000000026,-2.015445000000008,0.2537258599999989
-9.253813000000024,-2.015445000000008,0.2537258599999989
-9.25700466666669,-2.0090619333333417,0.2824495399999989
-9.260196333333356,-2.0026788666666753,0.31117321999999886
-9.263388000000022,-1.9962958000000086,0.3398968999999989
-9.263388000000022,-1.9962958000000086,0.3398968999999989
-9.260196333333356,-2.0186364666666754,0.35585449999999885
-9.25700466666669,-2.040977133333342,0.3718120999999988
-9.253813000000024,-2.0633178000000085,0.38776969999999883
-9.253813000000024,-2.0633178000000085,0.38776969999999883
-9.272962000000023,-2.0665093333333417,0.39415273999999884
-9.292111000000022,-2.0697008666666754,0.40053577999999884
-9.31126000000002,-2.072892400000009,0.40691881999999885
-9.31764300000002,-2.0760838666666754,0.40372729999999885
-9.32402600000002,-2.0792753333333422,0.4005357799999989
-9.330409000000019,-2.082466800000009,0.39734425999999895
-9.330409000000019,-2.082466800000009,0.39734425999999895
-9.330409000000019,-2.082466800000009,0.39734425999999895
-9.288919333333352,-2.0888498666666755,0.39734425999999895
-9.247429666666687,-2.095232933333342,0.39734425999999895
-9.205940000000021,-2.1016160000000084,0.39734425999999895
-9.193174000000022,-2.111190533333341,0.35266297999999896
-9.180408000000023,-2.1207650666666744,0.30798169999999897
-9.167642000000024,-2.1303396000000077,0.2633004199999989
-9.167642000000024,-2.130339600000007,0.2633004199999989
-9.26338766666669,-2.1718294000000067,0.24734281333333227
-9.359133333333356,-2.2133192000000066,0.2313852066666656
-9.454879000000021,-2.254809000000006,0.21542759999999891
-9.454879000000021,-2.2548090000000056,0.21542759999999891
-9.438921000000022,-2.280341133333339,0.2920240899999989
-9.422963000000022,-2.3058732666666724,0.3686205799999989
-9.407005000000021,-2.3314054000000053,0.44521706999999894
-9.407005000000021,-2.3314054000000053,0.44521706999999894
-9.352749333333355,-2.2867241666666724,0.4516001033333323
-9.298493666666687,-2.242042933333339,0.45798313666666557
-9.244238000000019,-2.197361700000006,0.46436616999999886
-9.244238000000019,-2.197361700000006,0.46436616999999886
-9.292110833333352,-2.2292769000000057,0.41330184666666553
-9.339983666666686,-2.2611921000000055,0.36223752333333215
-9.387856500000021,-2.293107300000005,0.3111731999999988
-9.387856500000021,-2.293107300000005,0.31117319999999876
-9.330409000000023,-2.289915733333339,0.33989688666666545
-9.272961500000022,-2.286724166666673,0.3686205733333321
-9.215514000000022,-2.2835326000000067,0.39734425999999873
-9.154875333333356,-2.24204283333334,0.4133018633333321
-9.094236666666689,-2.2005530666666737,0.42925946666666537
-9.033598000000021,-2.1590633000000072,0.44521706999999866
-9.033598000000021,-2.1590633000000072,0.44521706999999866
-9.087853666666689,-2.1590633000000072,0.413301863333332
-9.142109333333357,-2.1590633000000072,0.3813866566666653
-9.196365000000023,-2.1590633000000072,0.3494714499999987
-9.196365000000023,-2.1590633000000072,0.3494714499999987
-9.228280000000025,-2.1558718666666743,0.33989688666666534
-9.260195000000024,-2.152680433333341,0.33032232333333195
-9.292110000000024,-2.1494890000000075,0.3207477599999986
-9.292110000000024,-2.149489000000007,0.3207477599999986
-9.279344333333357,-2.1271482666666737,0.35266297333333196
-9.26657866666669,-2.1048075333333403,0.3845781866666653
-9.253813000000024,-2.082466800000007,0.4164933999999987
-9.253813000000024,-2.0824668000000064,0.4164933999999987
-9.225089333333358,-2.123956566666673,0.4324509899999987
-9.196365666666692,-2.1654463333333394,0.4484085799999988
-9.167642000000024,-2.206936100000006,0.4643661699999988
-9.167642000000024,-2.206936100000006,0.46436616999999886
-9.17083366666669,-2.216510666666673,0.4739407299999989
-9.174025333333356,-2.2260852333333396,0.483515289999999
-9.177217000000022,-2.2356598000000063,0.493089849999999
-9.177217000000022,-2.2356598000000063,0.493089849999999
-9.209132000000023,-2.2516174000000064,0.4898983333333324
-9.241047000000023,-2.2675750000000066,0.4867068166666657
-9.272962000000023,-2.2835326000000067,0.48351529999999904
-9.272962000000023,-2.29629873333334,0.47713225666666564
-9.272962000000023,-2.3090648666666733,0.47074921333333225
-9.272962000000023,-2.321831000000007,0.46436616999999886
-9.272962000000023,-2.321831000000007,0.46436616999999886
-9.272962000000023,-2.321831000000007,0.46436616999999886
-9.27934466666669,-2.3122564333333404,0.47074921333333225
-9.285727333333357,-2.3026818666666737,0.47713225666666564
-9.292110000000024,-2.2931073000000066,0.48351529999999904
-9.282536000000023,-2.2771497000000074,0.4867068166666657
-9.272962000000023,-2.2611921000000077,0.4898983333333324
-9.263388000000022,-2.245234500000008,0.493089849999999
-9.263388000000022,-2.245234500000008,0.493089849999999
-9.260196333333356,-2.222893800000008,0.486706809999999
-9.25700466666669,-2.2005531000000076,0.480323769999999
-9.253813000000024,-2.178212400000007,0.473940729999999
-9.253813000000024,-2.178212400000007,0.473940729999999
-9.253813000000024,-2.1526802666666742,0.46436617666666563
-9.253813000000024,-2.127148133333341,0.4547916233333323
-9.253813000000024,-2.1016160000000075,0.44521706999999894
-9.253813000000024,-2.1016160000000075,0.44521706999999894
-9.24104666666669,-2.095232933333341,0.4516001033333323
-9.228280333333357,-2.0888498666666746,0.45798313666666557
-9.215514000000022,-2.082466800000008,0.46436616999999886
-9.215514000000022,-2.082466800000008,0.46436616999999886
-9.218705666666688,-2.095232933333342,0.4547916133333321
-9.221897333333354,-2.107999066666675,0.4452170566666654
-9.22508900000002,-2.1207652000000077,0.43564249999999866
-9.22508900000002,-2.1207652000000072,0.43564249999999866
-9.23147200000002,-2.1271482333333407,0.43245098333333204
-9.23785500000002,-2.1335312666666737,0.42925946666666537
-9.244238000000019,-2.139914300000007,0.4260679499999987
-9.244238000000019,-2.139914300000007,0.4260679499999987
-9.23785500000002,-2.1558718666666734,0.42925946666666537
-9.23147200000002,-2.17182943333334,0.43245098333333204
-9.22508900000002,-2.1877870000000064,0.43564249999999866
-9.241046666666685,-2.1973616000000065,0.44521705666666533
-9.25700433333335,-2.2069362000000066,0.45479161333333207
-9.272962000000016,-2.2165108000000067,0.4643661699999988
-9.272962000000014,-2.2165108000000067,0.46436616999999886
-9.257004333333349,-2.232468400000007,0.47074921333333225
-9.241046666666684,-2.248426000000007,0.47713225666666564
-9.225089000000018,-2.264383600000007,0.48351529999999904
-9.22508900000002,-2.264383600000007,0.48351529999999904
-9.23147200000002,-2.248426000000007,0.48351529999999904
-9.23785500000002,-2.232468400000007,0.48351529999999904
-9.244238000000019,-2.2165108000000067,0.48351529999999904
-9.244238000000019,-2.2165108000000067,0.48351529999999904
-9.253812666666684,-2.219702266666673,0.4739407466666658
-9.26338733333335,-2.22289373333334,0.4643661933333325
-9.272962000000016,-2.2260852000000066,0.4547916399999992
-9.272962000000014,-2.2260852000000066,0.4547916399999992
-9.263387333333348,-2.22289373333334,0.4579831499999992
-9.253812666666683,-2.219702266666673,0.46117465999999924
-9.244238000000017,-2.2165108000000067,0.46436616999999925
-9.244238000000019,-2.2165108000000067,0.4643661699999993
-9.241046666666685,-2.2069362000000066,0.457983136666666
-9.237855333333352,-2.1973616000000065,0.4516001033333327
-9.234664000000018,-2.187787000000007,0.4452170699999994
-9.234664000000016,-2.187787000000007,0.4452170699999994
-9.234664000000016,-2.187787000000007,0.4452170699999994
-9.234664000000016,-2.187787000000007,0.4452170699999994
-9.234664000000016,-2.187787000000007,0.4452170699999994
-9.241047000000016,-2.184595466666673,0.4579831466666661
-9.247430000000016,-2.1814039333333395,0.4707492233333328
-9.253813000000015,-2.1782124000000063,0.4835152999999995
-9.253813000000015,-2.1782124000000063,0.4835152999999995
-9.241046666666682,-2.165446366666673,0.4771322566666661
-9.228280333333347,-2.1526803333333397,0.4707492133333327
-9.215514000000013,-2.1399143000000067,0.4643661699999993
-9.215514000000013,-2.139914300000007,0.4643661699999993
-9.231472000000013,-2.139914300000007,0.4611746599999993
-9.247430000000014,-2.139914300000007,0.4579831499999993
-9.263388000000013,-2.139914300000007,0.4547916399999992
-9.272962000000014,-2.159063433333341,0.44840859333333255
-9.282536000000015,-2.1782125666666743,0.4420255466666658
-9.292110000000015,-2.197361700000008,0.4356424999999991
-9.292110000000015,-2.1973617000000085,0.4356424999999991
-9.292110000000015,-2.1973617000000085,0.4356424999999991
-9.276152666666682,-2.2165108000000084,0.44840857666666584
-9.26019533333335,-2.2356599000000084,0.4611746533333325
-9.244238000000017,-2.2548090000000083,0.4739407299999992
-9.23785500000002,-2.264383533333341,0.48670681999999926
-9.23147200000002,-2.2739580666666743,0.4994729099999992
-9.22508900000002,-2.2835326000000076,0.5122389999999991
-9.22508900000002,-2.283532600000007,0.5122389999999991
-9.241046666666685,-2.283532600000007,0.496281389999999
-9.25700433333335,-2.283532600000007,0.4803237799999989
-9.272962000000016,-2.283532600000007,0.46436616999999886
-9.272962000000014,-2.283532600000007,0.46436616999999886
-9.272962000000014,-2.2899156333333406,0.46117465999999885
-9.272962000000014,-2.2962986666666736,0.45798314999999884
-9.272962000000014,-2.302681700000007,0.4547916399999988
-9.272962000000014,-2.3026817000000066,0.4547916399999988
-9.247429666666681,-2.28353263333334,0.4739407599999988
-9.221897333333347,-2.264383566666673,0.49308987999999876
-9.196365000000014,-2.2452345000000062,0.5122389999999987
-9.196365000000014,-2.2452345000000062,0.5122389999999987
-9.21232266666668,-2.2452345000000062,0.5250050666666652
-9.228280333333345,-2.2452345000000062,0.5377711333333318
-9.24423800000001,-2.2452345000000062,0.5505371999999985
-9.244238000000008,-2.2452345000000062,0.5505371999999985
-9.212323000000008,-2.2388514000000064,0.5537287199999984
-9.180408000000009,-2.232468300000006,0.5569202399999984
-9.148493000000007,-2.2260852000000058,0.5601117599999984
-9.16445033333334,-2.2228937333333394,0.5345796066666652
-9.180407666666673,-2.2197022666666726,0.5090474533333319
-9.196365000000005,-2.2165108000000058,0.4835152999999986
-9.196365000000005,-2.2165108000000058,0.4835152999999986
-9.177216000000007,-2.2101277666666728,0.49628139999999865
-9.158067000000008,-2.2037447333333393,0.5090474999999987
-9.13891800000001,-2.197361700000006,0.5218135999999988
-9.13891800000001,-2.197361700000006,0.5218135999999988
-9.164450000000011,-2.2037447333333393,0.5154305499999988
-9.189982000000011,-2.2101277666666728,0.5090474999999988
-9.215514000000011,-2.2165108000000058,0.5026644499999987
-9.215514000000013,-2.2165108000000058,0.5026644499999987
-9.234663333333346,-2.213319233333339,0.49628139999999865
-9.253812666666681,-2.2101276666666725,0.48989834999999865
-9.272962000000014,-2.206936100000006,0.4835152999999986
-9.272962000000014,-2.206936100000006,0.4835152999999986
-9.241047000000014,-2.1877870666666723,0.48989834999999865
-9.209132000000013,-2.168638033333339,0.49628139999999865
-9.177217000000013,-2.149489000000005,0.5026644499999987
-9.177217000000013,-2.149489000000005,0.5026644499999987
-9.193174333333346,-2.149489000000005,0.477132283333332
-9.209131666666678,-2.149489000000005,0.4516001166666654
-9.225089000000011,-2.149489000000005,0.4260679499999987
-9.22508900000001,-2.149489000000005,0.4260679499999987
-9.215514333333344,-2.1399144000000048,0.4228764333333321
-9.205939666666678,-2.1303398000000047,0.4196849166666654
-9.196365000000013,-2.120765200000005,0.41649339999999874
-9.21232266666668,-2.1558718666666716,0.3973442666666654
-9.228280333333345,-2.1909785333333387,0.37819513333333205
-9.24423800000001,-2.2260852000000058,0.3590459999999987
-9.244238000000008,-2.2260852000000058,0.3590459999999987
-9.244238000000008,-2.2260852000000058,0.3590459999999987
-9.266578666666677,-2.197361566666673,0.3686205666666654
-9.288919333333343,-2.16863793333334,0.37819513333333205
-9.31126000000001,-2.1399143000000067,0.3877696999999987
-9.29211100000001,-2.127148200000007,0.38138665666666544
-9.272962000000009,-2.1143821000000065,0.3750036133333321
-9.253813000000006,-2.101616000000006,0.36862056999999876
-9.253813000000006,-2.1016160000000057,0.36862056999999876
-9.237855333333338,-2.082466900000006,0.36223752999999875
-9.22189766666667,-2.063317800000006,0.35585448999999875
-9.205940000000004,-2.044168700000006,0.34947144999999874
-9.205940000000004,-2.044168700000006,0.34947144999999874
-9.241046666666671,-2.0409771333333393,0.34308840999999873
-9.27615333333334,-2.0377855666666727,0.3367053699999987
-9.31126000000001,-2.034594000000006,0.3303223299999987
-9.31126000000001,-2.034594000000006,0.3303223299999987
-9.31764300000001,-2.0569346666666726,0.34947145333333207
-9.324026000000009,-2.079275333333339,0.3686205766666654
-9.330409000000008,-2.1016160000000057,0.3877696999999987
-9.330409000000008,-2.1016160000000057,0.3877696999999987
-9.324026000000009,-2.146297266666673,0.4101103466666654
-9.31764300000001,-2.1909785333333396,0.4324509933333321
-9.31126000000001,-2.2356598000000063,0.4547916399999988
-9.31126000000001,-2.2356598000000063,0.4547916399999988
-9.215514333333342,-2.1909785333333396,0.45798314999999873
-9.119768666666674,-2.146297266666673,0.4611746599999988
-9.024023000000005,-2.1016160000000057,0.4643661699999988
-9.024023000000005,-2.1016160000000057,0.46436616999999886
-9.055938333333337,-2.146297266666673,0.37181209333333226
-9.08785366666667,-2.1909785333333396,0.27925801666666566
-9.119769000000003,-2.2356598000000063,0.18670393999999899
-9.237855333333336,-2.2292768000000063,0.10372441199999897
-9.355941666666668,-2.2228938000000062,0.020744883999998964
-9.474028000000002,-2.2165108000000058,-0.06223464400000104
-9.474028,-2.2165108000000058,-0.06223464400000104
-9.474028,-2.2165108000000058,-0.06223464400000104
-9.419772,-2.2580005333333393,-0.05266008266666771
-9.365516000000001,-2.2994902666666728,-0.043085521333334376
-9.31126,-2.340980000000006,-0.03351096000000104
-9.387856666666668,-2.366512200000006,-0.014361839333334377
-9.464453333333335,-2.3920444000000063,0.004787281333332289
-9.541050000000002,-2.417576600000006,0.023936401999998955
-9.541050000000004,-2.417576600000006,0.023936401999998955
-9.438921333333338,-2.526088266666673,-0.011170320333334377
-9.336792666666673,-2.6345999333333396,-0.04627704266666771
-9.234664000000008,-2.7431116000000064,-0.08138376500000104
-9.234664000000008,-2.7431116000000064,-0.08138376500000104
-9.103811666666672,-2.84843173333334,-0.04946856300000104
-8.972959333333337,-2.953751866666673,-0.017553361000001044
-8.842107000000004,-3.0590720000000062,0.014361840999998954
-8.842107000000004,-3.0590720000000062,0.014361840999998954
-8.925086333333338,-3.4803526666666733,0.0909583273333323
-9.008065666666672,-3.90163333333334,0.1675548136666656
-9.091045000000006,-4.322914000000007,0.24415129999999893
-9.091045000000006,-4.322914000000007,0.24415129999999893
-9.078279000000007,-4.479298500000007,0.493089879999999
-9.065513000000008,-4.635683000000006,0.742028459999999
-9.052747000000009,-4.792067500000005,0.9909670399999991
-9.253812666666674,-4.788876000000005,1.042031359999999
-9.454878333333342,-4.785684500000005,1.0930956799999991
-9.655944000000009,-4.782493000000005,1.1441599999999992
-9.65594400000001,-4.782493000000006,1.1441599999999992
-9.78998800000001,-4.77930133333334,1.099478699999999
-9.924032000000011,-4.776109666666674,1.054797399999999
-10.058076000000012,-4.772918000000008,1.0101160999999992
-10.058076000000012,-4.772918000000008,1.0101160999999992
-9.933606666666678,-4.798450333333341,0.8090503399999992
-9.809137333333346,-4.823982666666674,0.6079845799999991
-9.684668000000014,-4.849515000000007,0.40691881999999907
-9.684668000000014,-4.849515000000007,0.40691881999999907
-9.257004333333347,-4.6963220000000065,0.5473457133333324
-8.82934066666668,-4.543129000000007,0.6877726066666657
-8.401677000000012,-4.389936000000006,0.8281994999999992
-8.401677000000012,-4.389936000000006,0.8281994999999992
-8.191036666666678,-4.083550066666672,0.751602999999999
-7.980396333333346,-3.7771641333333386,0.675006499999999
-7.7697560000000125,-3.470778200000005,0.5984099999999989
-7.7697560000000125,-3.470778200000005,0.5984099999999989
-7.887842333333346,-3.3143936666666716,0.4675576799999989
-8.005928666666678,-3.1580091333333384,0.33670535999999895
-8.124015000000012,-3.001624600000005,0.20585303999999896
-8.325080666666679,-2.6473659000000054,0.24734280333333233
-8.526146333333346,-2.2931072000000055,0.2888325666666656
-8.727212000000014,-1.938848500000006,0.33032232999999894
-8.727212000000014,-1.938848500000006,0.33032232999999894
-8.727212000000014,-1.938848500000006,0.33032232999999894
-9.164450333333347,-1.370757910000006,0.14521416333333229
-9.60168866666668,-0.802667320000006,-0.03989400333333437
-10.038927000000013,-0.23457673000000598,-0.22500217000000103
-10.792125666666678,0.0079787966666607,-0.36223753333333436
-11.545324333333346,0.25053432333332737,-0.4994728966666677
-12.298523000000012,0.493089849999994,-0.636708260000001
-12.298523000000012,0.493089849999994,-0.636708260000001
-11.784688333333344,0.17712935333332727,-0.5026644166666677
-11.270853666666676,-0.13883114333333937,-0.3686205733333343
-10.757019000000009,-0.45479164000000605,-0.23457673000000093
-10.757019000000009,-0.45479164000000605,-0.23457673000000093
-10.083608333333343,-0.5154305133333393,-0.02393640000000093
-9.410197666666676,-0.5760693866666726,0.18670392999999907
-8.736787000000009,-0.6367082600000059,0.39734425999999906
-8.736787000000009,-0.6367082600000059,0.39734425999999906
-8.551678666666676,-0.7484114733333392,0.2952156166666658
-8.366570333333344,-0.8601146866666726,0.19308697333333244
-8.181462000000012,-0.9718179000000058,0.09095832999999909
-8.181462000000014,-0.9718179000000058,0.09095832999999909
-8.210185500000014,-1.3899070000000062,0.08776680833333243
-8.238909000000016,-1.8079961000000064,0.08457528666666576
-8.267632500000015,-2.2260852000000066,0.0813837649999991
-8.267632500000017,-2.2260852000000066,0.08138376499999911
-8.784658666666685,-2.6569404666666734,0.2122360866666658
-9.301684833333352,-3.08779573333334,0.3430884083333325
-9.81871100000002,-3.518651000000007,0.47394072999999914
-9.81871100000002,-3.518651000000007,0.47394072999999914
-10.632548666666686,-3.6622694333333397,0.5760693733333324
-11.446386333333352,-3.805887866666673,0.6781980166666658
-12.26022400000002,-3.949506300000006,0.7803266599999992
-13.323000333333352,-3.9303571333333394,0.8952213733333325
-14.385776666666684,-3.911207966666673,1.0101160866666659
-15.448553000000016,-3.8920588000000067,1.1250107999999992
-15.448553000000013,-3.8920588000000067,1.1250107999999992
-15.448553000000013,-3.8920588000000067,1.1250107999999992
-14.414500500000011,-3.3909901333333408,1.0260736999999993
-13.38044800000001,-2.8899214666666744,0.9271365999999993
-12.346395500000009,-2.388852800000008,0.8281994999999993
-12.85065600000001,-2.325022433333341,0.18351239999999927
-13.35491650000001,-2.261192066666674,-0.46117470000000077
-13.859177000000011,-2.197361700000007,-1.1058618000000007
-13.859177000000011,-2.197361700000007,-1.1058618000000007
-13.584706000000011,-2.181404133333341,-1.2654377666666672
-13.310235000000011,-2.1654465666666742,-1.4250137333333341
-13.03576400000001,-2.149489000000008,-1.584589700000001
-13.03576400000001,-2.1494890000000084,-1.584589700000001
-12.269799000000011,-1.8909758000000083,-1.3739494000000008
-11.503834000000012,-1.6324626000000082,-1.1633091000000007
-10.737869000000012,-1.373949400000008,-0.9526688000000006
-10.737869000000012,-1.373949400000008,-0.9526688000000006
-10.137863333333348,-1.2079903666666747,-1.010116133333334
-9.537857666666683,-1.0420313333333413,-1.0675634666666673
-8.937852000000017,-0.876072300000008,-1.1250108000000005
-8.937852000000017,-0.876072300000008,-1.1250108000000008
-8.334654666666683,-0.8345825333333413,-1.207990333333334
-7.731457333333349,-0.7930927666666746,-1.2909698666666671
-7.128260000000015,-0.7516030000000078,-1.3739494000000005
-7.128260000000015,-0.7516030000000077,-1.3739494000000005
-7.351666533333348,-0.882455333333341,-1.2335225333333337
-7.575073066666682,-1.0133076666666743,-1.093095666666667
-7.7984796000000145,-1.1441600000000076,-0.9526688000000002
-8.36657006666668,-1.0484143866666742,-0.9430942233333336
-8.934660533333345,-0.9526687733333409,-0.9335196466666669
-9.50275100000001,-0.8569231600000075,-0.9239450700000001
-9.502751000000009,-0.8569231600000075,-0.9239450699999999
-9.904882666666676,-0.6590489133333408,-0.8505401033333332
-10.307014333333344,-0.4611746666666742,-0.7771351366666664
-10.70914600000001,-0.26330042000000753,-0.7037301699999997
-10.70914600000001,-0.26330042000000753,-0.7037301699999997
-10.578293666666676,-0.8186249466666741,-0.3367053599999997
-10.447441333333341,-1.3739494733333408,0.03031945000000032
-10.31658900000001,-1.9292740000000073,0.39734426000000034
-10.31658900000001,-1.9292740000000073,0.3973442600000003
-11.688942666666676,-1.7888470666666738,0.13883112666666694
-13.061296333333344,-1.6484201333333406,-0.1196820066666664
-14.433650000000009,-1.5079932000000074,-0.3781951399999997
-14.433650000000009,-1.5079932000000074,-0.3781951399999997
-14.19428600000001,-1.4696950000000075,-0.46117465999999974
-13.95492200000001,-1.4313968000000077,-0.5441541799999997
-13.71555800000001,-1.3930986000000078,-0.6271336999999998
-13.71555800000001,-1.3930986000000078,-0.6271336999999998
-11.902774333333346,-1.571823733333341,-0.13883111999999978
-10.089990666666681,-1.750548866666674,0.3494714600000002
-8.277207000000015,-1.9292740000000073,0.8377740400000002
-8.277207000000015,-1.9292740000000073,0.8377740400000002
-8.18146156666668,-1.9228909333333408,0.5505372260000002
-8.085716133333346,-1.9165078666666744,0.26330041200000026
-7.989970700000011,-1.910124800000008,-0.02393640199999973
-8.586785133333345,-2.4877899666666745,-0.017553361333333063
-9.183599566666679,-3.065455133333341,-0.011170320666666395
-9.780414000000013,-3.643120300000007,-0.004787279999999728
-9.780414000000013,-3.643120300000007,-0.004787279999999729
-9.920840833333346,-3.898441966666674,0.37181208000000027
-10.06126766666668,-4.153763633333341,0.7484114400000004
-10.201694500000015,-4.409085300000008,1.1250108000000003
-10.201694500000015,-4.409085300000009,1.1250108000000003
-10.97085066666668,-4.31653120000001,1.150542966666667
-11.740006833333346,-4.2239771000000115,1.1760751333333337
-12.509163000000013,-4.131423000000013,1.2016073000000003
-12.509163000000013,-4.131423000000013,1.2016073000000003
-13.364490666666677,-3.9750384666666796,1.0260737000000004
-14.219818333333343,-3.8186539333333456,0.8505401000000004
-15.075146000000009,-3.6622694000000116,0.6750065000000003
-15.075146000000009,-3.6622694000000116,0.6750065000000003
-14.685780333333343,-3.1867328666666785,0.30159864333333364
-14.296414666666678,-2.7111963333333455,-0.07180921333333301
-13.907049000000013,-2.2356598000000125,-0.4452170699999997
-13.907049000000013,-2.2356598000000125,-0.4452170699999997
-14.10173166666668,-2.2165106666666787,-0.8122418799999997
-14.296414333333345,-2.197361533333345,-1.1792666899999997
-14.49109700000001,-2.1782124000000116,-1.5462915
-14.49109700000001,-2.1782124000000116,-1.5462915
-13.763430666666679,-2.021827933333345,-1.5430999666666665
-13.035764333333347,-1.8654434666666784,-1.539908433333333
-12.308098000000015,-1.7090590000000117,-1.5367168999999994
-11.261279333333349,-1.2750122733333449,-1.3260765799999994
-10.214460666666682,-0.8409655466666782,-1.1154362599999992
-9.167642000000015,-0.4069188200000115,-0.9047959399999991
-9.167642000000015,-0.4069188200000115,-0.9047959399999991
-9.167642000000015,-0.4069188200000115,-0.9047959399999991
-8.299548333333348,-0.35266298000001145,-0.8952213933333324
-7.431454666666681,-0.29840714000001145,-0.8856468466666657
-6.563361000000015,-0.24415130000001142,-0.8760722999999991
-6.537829000000014,-0.48989834666667814,-1.0164991666666656
-6.5122970000000135,-0.7356453933333449,-1.1569260333333324
-6.4867650000000125,-0.9813924400000116,-1.2973528999999988
-6.4867650000000125,-0.9813924400000116,-1.2973528999999988
-7.115494333333348,-0.8696892433333449,-1.2909698666666654
-7.744223666666682,-0.7579860466666782,-1.2845868333333321
-8.372953000000017,-0.6462828500000115,-1.278203799999999
-8.372953000000017,-0.6462828500000115,-1.278203799999999
-8.625083000000016,-0.7324538800000115,-1.0611804333333321
-8.877213000000014,-0.8186249100000116,-0.8441570666666655
-9.129343000000013,-0.9047959400000116,-0.6271336999999987
-9.129343000000013,-0.9047959400000116,-0.6271336999999987
-9.598496666666678,-1.2430970600000115,-0.44521705499999875
-10.067650333333345,-1.5813981800000116,-0.26330040999999876
-10.53680400000001,-1.919699300000012,-0.08138376499999882
-10.536804000000009,-1.919699300000012,-0.08138376499999882
-11.676176666666677,-1.9292738666666789,-0.08138376499999882
-12.815549333333342,-1.9388484333333456,-0.08138376499999882
-13.954922000000005,-1.9484230000000125,-0.08138376499999882
-13.954922000000005,-1.9484230000000125,-0.08138376499999882
-14.191094666666672,-1.9260824000000125,-0.046277042666665484
-14.427267333333338,-1.9037418000000124,-0.011170320333332151
-14.663440000000003,-1.8814012000000124,0.02393640200000118
-14.663440000000003,-1.8814012000000124,0.02393640200000118
-12.518738333333337,-2.107999133333346,0.681389534666668
-10.374036666666669,-2.3345970666666793,1.3388426673333342
-8.229335,-2.561195000000013,1.996295800000001
-8.025077666666668,-2.4335341333333464,1.8654435000000007
-7.820820333333335,-2.30587326666668,1.7345912000000006
-7.616563000000002,-2.1782124000000134,1.6037389000000004
-7.616563000000002,-2.1782124000000134,1.6037389000000004
-8.018694333333336,-2.3633206000000135,1.2367140833333339
-8.420825666666671,-2.5484288000000137,0.8696892666666672
-8.822957000000004,-2.733537000000014,0.5026644500000007
-8.822957000000004,-2.733537000000014,0.5026644500000006
-9.234663333333337,-2.8165165000000134,0.7484115000000005
-9.64636966666667,-2.8994960000000134,0.9941585500000004
-10.058076000000002,-2.9824755000000134,1.2399056000000004
-10.058076000000002,-2.9824755000000134,1.2399056000000004
-10.750636000000002,-3.1931158666666803,1.2271395000000005
-11.443196000000002,-3.403756233333347,1.2143734000000004
-12.135756000000002,-3.6143966000000134,1.2016073000000003
-12.135756000000002,-3.6143966000000134,1.2016073000000003
-13.271937000000003,-3.7580150666666796,0.959051776666667
-14.408118000000004,-3.901633533333346,0.7164962533333336
-15.544299000000004,-4.045252000000012,0.4739407300000001
-15.544299000000004,-4.045252000000011,0.4739407300000001
-14.516629333333336,-3.601630666666678,0.4388340100000001
-13.488959666666668,-3.1580093333333448,0.4037272900000001
-12.46129,-2.7143880000000116,0.3686205700000001
-12.770867666666668,-2.612259333333345,-0.12287355333333322
-13.080445333333335,-2.510130666666678,-0.6143676766666666
-13.390023000000001,-2.4080020000000117,-1.1058617999999998
-13.390023000000001,-2.4080020000000117,-1.1058618
-13.390023000000001,-2.4080020000000117,-1.1058618
-12.946401666666668,-2.0920414666666787,-1.0292653
-12.502780333333336,-1.7760809333333452,-0.9526688000000001
-12.059159000000003,-1.4601204000000116,-0.8760723000000001
-10.95808466666667,-0.8888383133333448,-0.5840482000000001
-9.857010333333335,-0.3175562266666782,-0.29202410000000006
-8.755936,0.25372585999998853,0.0
-8.755936,0.25372585999998853,0.0
-8.171887666666668,0.27606649333332184,-0.4164933666666668
-7.587839333333335,0.2984071266666551,-0.8329867333333336
-7.003791000000002,0.3207477599999884,-1.2494801000000004
-7.003791000000002,0.3207477599999884,-1.2494801000000004
-6.924003000000003,-0.11649050666667828,-1.3292681333333336
-6.844215000000003,-0.5537287733333449,-1.4090561666666668
-6.764427000000004,-0.9909670400000117,-1.4888442
-6.764427000000004,-0.9909670400000117,-1.4888442
-7.074004333333336,-0.8728807800000116,-1.4633120333333334
-7.383581666666668,-0.7547945200000115,-1.4377798666666666
-7.6931590000000005,-0.6367082600000114,-1.4122477
-7.693158999999999,-0.6367082600000112,-1.4122477
-8.111248333333334,-0.5345796166666779,-1.4090561666666666
-8.529337666666668,-0.43245097333334453,-1.405864633333333
-8.947427000000003,-0.33032233000001116,-1.4026730999999995
-8.947427000000003,-0.33032233000001116,-1.4026730999999995
-10.058076,-0.8313909866666779,-1.2430970899999996
-11.168725,-1.3324596433333444,-1.0835210799999995
-12.279373999999999,-1.833528300000011,-0.9239450699999995
-12.279373999999999,-1.833528300000011,-0.9239450699999994
-12.694271666666666,-2.0856584000000113,-0.4196848799999993
-13.109169333333332,-2.3377885000000114,0.08457531000000067
-13.524066999999997,-2.589918600000011,0.5888355000000006
-13.938964666666664,-1.929273933333344,-0.14521413333333258
-14.35386233333333,-1.2686292666666772,-0.879263766666666
-14.768759999999995,-0.6079846000000102,-1.6133133999999991
-14.768759999999995,-0.6079846000000102,-1.6133133999999991
-14.768759999999995,-0.6079846000000102,-1.6133133999999991
-13.495343333333329,-0.6718150000000103,-0.8633061799999991
-12.221926666666661,-0.7356454000000103,-0.11329895999999924
-10.948509999999994,-0.7994758000000104,0.6367082600000007
-9.416580233333327,-1.5143763333333438,0.5856439400000008
-7.884650466666661,-2.229276866666677,0.5345796200000007
-6.352720699999995,-2.9441774000000103,0.4835153000000006
-6.352720699999995,-2.9441774000000103,0.48351530000000054
-6.406976466666662,-2.8931130666666767,0.3335138533333339
-6.461232233333329,-2.8420487333333426,0.18351240666666724
-6.515487999999997,-2.7909844000000086,0.03351096000000057
-6.515487999999997,-2.7909844000000086,0.03351096000000057
-7.46656133333333,-2.7175794333333427,0.18989545666666727
-8.417634666666663,-2.644174466666676,0.3462799533333339
-9.368707999999996,-2.5707695000000093,0.5026644500000006
-9.368707999999998,-2.5707695000000093,0.5026644500000006
-10.198502999999997,-2.8963045666666765,0.7260708333333339
-11.028297999999998,-3.2218396333333437,0.9494772166666672
-11.858092999999997,-3.547374700000011,1.1728836000000005
-11.858092999999997,-3.547374700000011,1.1728836000000007
-12.780442333333331,-3.4484376000000108,0.9175620066666673
-13.702791666666664,-3.34950050000001,0.6622404133333339
-14.625141,-3.2505634000000097,0.4069188200000006
-14.736844333333332,-3.244180266666676,0.46117466333333396
-14.848547666666667,-3.2377971333333426,0.5154305066666672
-14.960251,-3.2314140000000093,0.5696863500000006
-14.960251,-3.2314140000000093,0.5696863500000006
-14.960251,-3.2314140000000093,0.5696863500000006
-13.970879666666667,-2.909070533333343,0.21542761666666724
-12.981508333333332,-2.5867270666666764,-0.1388311166666661
-11.992137,-2.2643836000000097,-0.49308984999999944
-12.458098999999999,-2.0792754000000095,-0.7675605999999994
-12.924061,-1.8941672000000096,-1.0420313499999991
-13.390023,-1.7090590000000094,-1.316502099999999
-13.390023,-1.7090590000000094,-1.316502099999999
-12.426184,-1.1760751480000093,-1.0675635166666657
-11.462345,-0.6430912960000092,-0.8186249333333325
-10.498505999999999,-0.11010744400000916,-0.5696863499999992
-10.498505999999999,-0.11010744400000916,-0.5696863499999991
-9.611263233333332,0.04627703733332417,-0.6303252333333323
-8.724020466666666,0.2026615186666575,-0.6909641166666657
-7.836777699999999,0.3590459999999908,-0.7516029999999989
-7.836777699999999,0.3590459999999908,-0.7516029999999988
-7.3963478,0.26968344333332417,-1.0005415666666655
-6.9559179,0.1803208866666575,-1.249480133333332
-6.515488000000001,0.09095832999999083,-1.4984186999999987
-6.515488000000001,0.09095832999999083,-1.4984186999999987
-6.643149000000001,-0.09734135666667583,-1.4441628666666653
-6.770810000000001,-0.28564104333334245,-1.3899070333333319
-6.898471000000001,-0.47394073000000914,-1.3356511999999985
-6.898471000000001,-0.47394073000000914,-1.3356511999999985
-7.555924333333333,-0.48670682000000914,-1.2718207999999986
-8.213377666666664,-0.4994729100000091,-1.2079903999999988
-8.870830999999995,-0.5122390000000091,-1.1441599999999987
-9.860201999999996,-0.5218135466666757,-1.1441599999999987
-10.849572999999998,-0.5313880933333422,-1.1441599999999987
-11.838943999999998,-0.5409626400000089,-1.1441599999999987
-11.838943999999998,-0.5409626400000089,-1.1441599999999987
-12.266607666666665,-1.2494800933333423,-0.6111761199999989
-12.694271333333333,-1.957997546666676,-0.0781922399999988
-13.121935,-2.6665150000000093,0.4547916400000012
-13.121935,-2.6665150000000093,0.4547916400000012
-13.176190666666669,-1.9260823566666758,-0.03351093999999879
-13.230446333333335,-1.1856497133333426,-0.5218135199999988
-13.284702000000003,-0.44521707000000904,-1.0101160999999987
-13.284702000000005,-0.44521707000000904,-1.0101160999999987
-13.016614333333342,-0.47074924666667567,-0.9718178666666656
-12.748526666666677,-0.49628142333334235,-0.9335196333333323
-12.480439000000013,-0.521813600000009,-0.8952213999999991
-12.480439000000013,-0.5218136000000089,-0.8952213999999991
-10.814465666666678,-1.361183400000009,-0.42925944999999893
-9.148492333333342,-2.200553200000009,0.03670250000000105
-7.48251900000001,-3.0399230000000093,0.502664450000001
-7.48251900000001,-3.0399230000000093,0.502664450000001
-7.40911410000001,-2.9154536666666764,0.512239000000001
-7.33570920000001,-2.790984333333343,0.521813550000001
-7.26230430000001,-2.6665150000000097,0.5313881000000009
-7.26230430000001,-2.6665150000000097,0.5313881000000009
-7.709116866666676,-2.5548118000000097,0.687772600000001
-8.155929433333343,-2.4431086000000093,0.8441571000000009
-8.60274200000001,-2.331405400000009,1.000541600000001
-9.46126100000001,-2.787792833333343,1.0388398333333342
-10.31978000000001,-3.2441802666666764,1.0771380666666674
-11.178299000000012,-3.70056770000001,1.1154363000000007
-11.178299000000012,-3.70056770000001,1.1154363000000007
-11.178299000000012,-3.70056770000001,1.1154363000000007
-11.96341300000001,-3.9271656666666765,1.0388398000000008
-12.748527000000008,-4.153763633333344,0.9622433000000008
-13.533641000000005,-4.38036160000001,0.8856468000000008
-14.159179000000004,-4.421851400000009,1.0324567333333343
-14.784717000000006,-4.463341200000009,1.1792666666666678
-15.410255000000006,-4.504831000000009,1.3260766000000013
-15.410255000000006,-4.504831000000009,1.3260766000000013
-14.564502000000006,-4.115465433333342,0.7420284166666677
-13.718749000000008,-3.726099866666676,0.15798023333333436
-12.872996000000008,-3.336734300000009,-0.42606794999999903
-12.872996000000008,-3.336734300000009,-0.42606794999999903
-13.342149666666673,-3.036731400000009,-0.6781980333333323
-13.81130333333334,-2.736728500000009,-0.9303281166666656
-14.280457000000006,-2.4367256000000084,-1.182458199999999
-14.280457000000006,-2.4367256000000084,-1.182458199999999
-14.18471133333334,-2.018636466666675,-1.1090532333333323
-14.088965666666674,-1.6005473333333418,-1.0356482666666655
-13.993220000000008,-1.1824582000000083,-0.9622432999999987
-13.993220000000008,-1.1824582000000083,-0.9622432999999987
-12.860230333333341,-0.9399026800000083,-1.1186277999999987
-11.727240666666674,-0.6973471600000082,-1.2750122999999987
-10.594251000000007,-0.4547916400000082,-1.4313967999999988
-10.594251000000007,-0.4547916400000082,-1.4313967999999988
-9.722966100000008,-0.16436329333334151,-1.5335254333333321
-8.851681200000009,0.12606505333332516,-1.6356540666666657
-7.9803963000000095,0.4164933999999918,-1.7377826999999992
-7.9803963000000095,0.4164933999999918,-1.7377826999999992
-7.367624300000009,0.2473428233333251,-1.6069303666666659
-6.754852300000008,0.07819224666665843,-1.4760780333333325
-6.142080300000007,-0.09095833000000823,-1.3452256999999992
-6.33357153333334,-0.15798025333334156,-1.3516087666666656
-6.5250627666666725,-0.2250021766666749,-1.357991833333332
-6.716554000000006,-0.2920241000000083,-1.3643748999999985
-6.716554000000005,-0.2920241000000083,-1.3643748999999985
-7.766564333333338,-0.2920241000000083,-1.2718207999999984
-8.81657466666667,-0.2920241000000083,-1.1792666999999983
-9.866585000000002,-0.2920241000000083,-1.0867125999999983
-9.866585000000002,-0.2920241000000083,-1.0867125999999983
-10.466590666666669,-0.6590489333333417,-0.8058588333333315
-11.066596333333335,-1.026073766666675,-0.5250050666666649
-11.666602,-1.3930986000000087,-0.24415129999999818
-11.666602,-1.3930986000000087,-0.24415129999999818
-11.893199833333334,-1.7920386000000086,-0.09095833333333155
-12.119797666666669,-2.1909786000000087,0.062234633333335114
-12.346395500000002,-2.589918600000009,0.21542760000000175
-12.346395500000002,-2.589918600000009,0.2154276000000018
-13.045338666666668,-2.117573600000009,-0.30479016666666486
-13.744281833333334,-1.645228600000009,-0.8250079333333314
-14.443225,-1.172883600000009,-1.3452256999999983
-14.443225,-1.172883600000009,-1.3452256999999983
-13.508109333333335,-1.3101189666666755,-0.7452199199999981
-12.572993666666669,-1.447354333333342,-0.14521413999999813
-11.637878000000002,-1.5845897000000086,0.4547916400000019
-11.637878000000002,-1.5845897000000086,0.4547916400000019
-10.766593000000002,-1.8909756333333416,0.45160011666666855
-9.895308000000002,-2.197361566666675,0.4484085933333352
-9.024023000000001,-2.503747500000008,0.4452170700000018
-8.995299333333335,-2.6505574666666747,0.39415274666666855
-8.966575666666671,-2.797367433333342,0.34308842333333517
-8.937852000000007,-2.9441774000000094,0.29202410000000184
-8.937852000000008,-2.9441774000000094,0.2920241000000018
-9.311260000000006,-3.062263666666676,0.5473457000000018
-9.684668000000004,-3.1803499333333427,0.8026673000000019
-10.058076000000002,-3.2984362000000096,1.0579889000000018
-10.058076,-3.2984362000000096,1.0579889000000018
-10.836806666666666,-4.109082233333342,1.0037330666666684
-11.61553733333333,-4.919728266666674,0.9494772333333351
-12.394267999999997,-5.730374300000006,0.8952214000000017
-12.394267999999997,-5.730374300000006,0.8952214000000017
-13.064487333333332,-5.61547953333334,1.105861733333335
-13.734706666666668,-5.500584766666674,1.3165020666666682
-14.404926000000003,-5.385690000000008,1.5271424000000018
-14.404926000000003,-5.385690000000008,1.5271424000000018
-14.136838333333335,-5.175049800000008,1.112244780000002
-13.868750666666665,-4.964409600000008,0.697347160000002
-13.600662999999997,-4.7537694000000075,0.282449540000002
-13.600662999999997,-4.7537694000000075,0.282449540000002
-14.337904166666666,-3.5186510333333403,-0.46436617333333147
-15.075145333333333,-2.2835326666666735,-1.211181886666665
-15.812386500000002,-1.0484143000000066,-1.9579975999999986
-15.671959666666668,-0.96862633333334,-1.6739523333333317
-15.531532833333335,-0.8888383666666734,-1.3899070666666649
-15.391106,-0.8090504000000068,-1.1058617999999978
-15.391106,-0.8090504000000068,-1.1058617999999976
-15.391106,-0.8090504000000068,-1.1058617999999976
-14.159179333333334,-0.7994758200000068,-1.1122447999999978
-12.927252666666668,-0.7899012400000069,-1.118627799999998
-11.695326000000001,-0.780326660000007,-1.125010799999998
-10.581485333333335,-0.5026644133333403,-1.3165020333333315
-9.46764466666667,-0.22500216666667375,-1.5079932666666647
-8.353804000000004,0.05266007999999289,-1.699484499999998
-8.353804000000006,0.05266007999999289,-1.699484499999998
-7.808054000000005,0.12925656666665955,-1.6931014666666648
-7.262304000000004,0.20585305333332624,-1.6867184333333316
-6.716554000000003,0.2824495399999929,-1.6803353999999981
-6.716554000000002,0.2824495399999929,-1.6803353999999981
-6.856981000000002,0.22181065333332625,-1.5941643333333317
-6.997408000000003,0.16117176666665958,-1.5079932666666653
-7.137835000000003,0.10053287999999294,-1.4218221999999987
-7.137835000000003,0.10053287999999294,-1.4218221999999987
-7.817629000000001,0.2409597866666596,-1.472886533333332
-8.497423,0.38138669333332625,-1.5239508666666655
-9.177216999999999,0.5218135999999929,-1.5750151999999986
-9.177216999999999,0.5218135999999929,-1.5750151999999986
-10.105949,0.04308555333332623,-1.629271033333332
-11.034681,-0.43564249333334043,-1.6835268666666652
-11.963413000000003,-0.914370540000007,-1.7377826999999983
-11.963413000000003,-0.914370540000007,-1.737782699999998
-12.461290333333338,-1.7856554933333404,-1.0420313166666646
-12.959167666666673,-2.656940446666674,-0.34627993333333135
-13.457045000000008,-3.5282254000000073,0.34947145000000196
-13.457045000000008,-3.5282254000000073,0.34947145000000196
-14.104923666666673,-2.3760866666666742,-0.48989836666666475
-14.75280233333334,-1.2239479333333405,-1.3292681833333315
-15.400681000000006,-0.07180920000000723,-2.1686379999999983
-14.593226000000007,-0.5058559333333407,-1.3739494666666647
-13.785771000000006,-0.939902666666674,-0.5792609333333313
-12.978316000000007,-1.3739494000000076,0.21542760000000202
-12.978316000000007,-1.3739494000000076,0.21542760000000202
-12.978316000000007,-1.3739494000000076,0.21542760000000202
-11.507025666666673,-1.7026759333333408,0.5760693666666686
-10.03573533333334,-2.031402466666674,0.9367111333333353
-8.564445000000006,-2.3601290000000072,1.297352900000002
-8.538912666666674,-2.5835354333333407,0.9079874533333353
-8.51338033333334,-2.806941866666674,0.5186220066666687
-8.487848000000007,-3.030348300000007,0.12925656000000205
-8.487848000000007,-3.030348300000007,0.12925656000000205
-9.228280666666672,-3.2409886666666736,0.3015986566666687
-9.96871333333334,-3.45162903333334,0.47394075333333535
-10.70914600000001,-3.6622694000000067,0.6462828500000021
-10.70914600000001,-3.6622694000000067,0.6462828500000021
-11.31872633333334,-4.329297100000008,0.847348600000002
-11.928306666666671,-4.996324800000008,1.048414350000002
-12.537887000000003,-5.663352500000009,1.249480100000002
-12.537887000000003,-5.663352500000009,1.249480100000002
-13.176191000000003,-5.615479666666675,1.2239479333333352
-13.814495000000003,-5.567606833333341,1.1984157666666684
-14.452799000000004,-5.519734000000007,1.1728836000000014
-14.452799000000004,-5.519734000000007,1.1728836000000011
-14.191094500000004,-4.929302833333341,0.978200900000001
-13.929390000000003,-4.338871666666674,0.783518200000001
-13.667685500000003,-3.748440500000008,0.5888355000000011
-13.667685500000003,-3.748440500000008,0.5888355000000011
-13.846410333333337,-3.3941817333333417,-0.030319433333332202
-14.02513516666667,-3.039922966666675,-0.6494743666666656
-14.203860000000004,-2.6856642000000086,-1.2686292999999988
-14.867696666666673,-2.5548119000000082,-1.3069275333333321
-15.531533333333341,-2.4239596000000083,-1.3452257666666656
-16.195370000000008,-2.293107300000008,-1.3835239999999993
-16.19537000000001,-2.293107300000008,-1.3835239999999995
-15.260254333333345,-1.8814011666666748,-1.5239508999999998
-14.32513866666668,-1.4696950333333418,-1.6643777999999998
-13.390023000000014,-1.0579889000000084,-1.8048047
-13.390023000000014,-1.0579889000000087,-1.8048047
-12.26660766666668,-0.5952184900000087,-1.7888471
-11.143192333333346,-0.13244808000000866,-1.7728894999999998
-10.019777000000012,0.33032232999999134,-1.7569318999999997
-10.019777000000012,0.33032232999999134,-1.7569318999999997
-8.960192466666678,0.464366186666658,-1.6324625999999995
-7.900607933333345,0.5984100433333247,-1.5079932999999996
-6.841023400000012,0.7324538999999913,-1.3835239999999995
-6.841023400000012,0.7324538999999911,-1.3835239999999995
-6.426125800000012,0.4452170799999911,-1.4282052999999995
-6.011228200000011,0.1579802599999911,-1.4728865999999996
-5.59633060000001,-0.12925656000000893,-1.5175678999999995
-5.596330600000009,-0.12925656000000893,-1.5175678999999995
-6.017611300000008,-0.04946855866667559,-1.6260795666666663
-6.438892000000007,0.03031944266665774,-1.734591233333333
-6.860172700000007,0.11010744399999106,-1.8431028999999999
-6.860172700000007,0.11010744399999106,-1.8431028999999999
-8.229334800000006,-0.15478873733334225,-1.7920385666666665
-9.598496900000006,-0.41968491866667557,-1.7409742333333333
-10.967659000000005,-0.6845811000000088,-1.6899099
-11.644261333333338,-1.6133134666666755,-1.06118044
-12.320863666666673,-2.542045833333342,-0.4324509800000002
-12.997466000000008,-3.4707782000000087,0.19627847999999962
-12.997466000000008,-3.4707782000000087,0.19627847999999962
-12.997466000000008,-3.4707782000000087,0.19627847999999962
-13.78896300000001,-2.7558776666666756,-0.3079817133333337
-14.580460000000011,-2.0409771333333424,-0.812241906666667
-15.371957000000014,-1.3260766000000093,-1.3165021000000003
-14.838973166666678,-1.2143734133333426,-0.981392466666667
-14.305989333333345,-1.1026702266666757,-0.6462828333333336
-13.773005500000012,-0.990967040000009,-0.3111732000000003
-13.773005500000016,-0.990967040000009,-0.3111732000000003
-12.375119666666683,-1.5175678600000089,0.01755336666666631
-10.977233833333349,-2.0441686800000087,0.346279933333333
-9.579348000000014,-2.570769500000009,0.6750064999999995
-9.579348000000014,-2.570769500000009,0.6750064999999995
-9.493176666666681,-2.7303455333333417,0.32393928666666627
-9.407005333333348,-2.8899215666666755,-0.02712792666666704
-9.320834000000016,-3.0494976000000094,-0.3781951400000003
-9.320834000000017,-3.0494976000000094,-0.3781951400000003
-9.924031333333351,-3.1229025333333422,-0.11010744333333367
-10.527228666666685,-3.1963074666666755,0.157980253333333
-11.13042600000002,-3.2697124000000084,0.4260679499999996
-11.13042600000002,-3.2697124000000084,0.4260679499999996
-11.746389333333353,-3.917591066666675,0.5888354799999996
-12.362352666666686,-4.565469733333342,0.7516030099999996
-12.978316000000019,-5.213348400000009,0.9143705399999996
-13.41874600000002,-5.216539933333343,0.8920298933333329
-13.859176000000021,-5.219731466666676,0.8696892466666662
-14.299606000000024,-5.2229230000000095,0.8473485999999996
-14.299606000000026,-5.2229230000000095,0.8473485999999996
-14.299606000000026,-5.2229230000000095,0.8473485999999996
-13.498534333333359,-4.871855666666676,0.6941556333333327
-12.69746266666669,-4.520788333333342,0.540962666666666
-11.896391000000023,-4.169721000000007,0.3877696999999994
-12.29533100000002,-4.083550000000007,-0.1260650666666673
-12.694271000000022,-3.997379000000007,-0.639899833333334
-13.093211000000023,-3.911208000000007,-1.1537346000000008
-13.093211000000025,-3.911208000000007,-1.1537346000000008
-14.18471133333336,-3.2792870000000067,-1.3803325000000009
-15.276211666666692,-2.6473660000000065,-1.606930400000001
-16.367712000000026,-2.0154450000000064,-1.833528300000001
-16.367712000000026,-2.0154450000000064,-1.833528300000001
-15.30174366666669,-1.4601204833333394,-1.686718400000001
-14.235775333333356,-0.9047959666666728,-1.539908500000001
-13.16980700000002,-0.349471450000006,-1.393098600000001
-13.16980700000002,-0.349471450000006,-1.393098600000001
-11.99532800000002,-0.16755480666667266,-1.4633120333333343
-10.820849000000019,0.014361836666660688,-1.5335254666666673
-9.646370000000019,0.19627847999999404,-1.6037389000000006
-9.646370000000019,0.19627847999999404,-1.6037389000000006
-8.807000000000018,0.16117176333332736,-1.6228880000000008
-7.967630000000021,0.12606504666666066,-1.6420371000000011
-7.128260000000021,0.09095832999999398,-1.6611862000000013
-7.128260000000021,0.09095832999999398,-1.6611862000000013
-7.364432566666687,-0.07180920000000603,-1.6962929333333345
-7.600605133333353,-0.234576730000006,-1.7313996666666676
-7.836777700000019,-0.39734426000000606,-1.7665064000000008
-7.836777700000019,-0.39734426000000606,-1.7665064000000008
-8.18465313333335,-0.11329896000000601,-1.6739523333333342
-8.532528566666684,0.170746339999994,-1.5813982666666675
-8.880404000000018,0.45479163999999406,-1.4888442000000008
-9.215514000000018,0.09414985999999409,-1.383524000000001
-9.550624000000019,-0.2664919200000059,-1.278203800000001
-9.885734000000019,-0.6271337000000059,-1.1728836000000007
-9.885734000000019,-0.6271337000000058,-1.1728836000000007
-10.389994000000017,-1.0069246000000058,-0.8760722466666673
-10.894254000000018,-1.3867155000000058,-0.579260893333334
-11.398514000000018,-1.766506400000006,-0.2824495400000006
-11.398514000000018,-1.766506400000006,-0.2824495400000006
-12.45490733333335,-1.654803200000006,-0.4292594600000006
-13.511300666666683,-1.543100000000006,-0.5760693800000006
-14.567694000000015,-1.431396800000006,-0.7228793000000007
-14.567694000000012,-1.431396800000006,-0.7228793000000007
-13.67725966666668,-1.559057600000006,-0.6462828166666673
-12.786825333333349,-1.6867184000000062,-0.569686333333334
-11.896391000000017,-1.8143792000000063,-0.49308985000000055
-11.896391000000017,-1.8143792000000063,-0.49308985000000055
-11.14957533333335,-1.9356569333333395,-0.030319433333333923
-10.402759666666682,-2.056934666666673,0.43245098333333276
-9.655944000000014,-2.1782124000000063,0.8952213999999995
-9.655944000000014,-2.1782124000000067,0.8952213999999995
-9.83466933333335,-2.4271510333333404,0.5026644199999994
-10.013394666666683,-2.6760896666666745,0.11010743999999946
-10.192120000000015,-2.925028300000008,-0.2824495400000005
-11.095320000000015,-3.378224200000009,-0.07180921000000051
-11.998520000000013,-3.8314201000000097,0.1388311199999995
-12.901720000000012,-4.28461600000001,0.3494714499999995
-12.901720000000012,-4.284616000000011,0.3494714499999995
-12.901720000000012,-4.284616000000011,0.3494714499999995
-13.297468333333347,-4.792067666666677,0.4292594666666662
-13.69321666666668,-5.299519333333342,0.5090474833333328
-14.088965000000016,-5.806971000000009,0.5888354999999994
-14.187902333333348,-5.526117333333342,0.6590489333333327
-14.28683966666668,-5.245263666666676,0.7292623666666661
-14.385777000000012,-4.964410000000009,0.7994757999999994
-14.385777000000012,-4.964410000000009,0.7994757999999994
-13.654919000000014,-4.546320700000009,0.544154186666666
-12.924061000000016,-4.128231400000008,0.28883257333333273
-12.193203000000018,-3.710142100000007,0.03351095999999939
-12.19320300000002,-3.710142100000007,0.03351095999999939
-12.805974666666685,-3.7963131666666734,-0.3526629600000007
-13.41874633333335,-3.88248423333334,-0.7388368800000008
-14.031518000000014,-3.9686553000000067,-1.1250108000000008
-14.031518000000014,-3.9686553000000067,-1.1250108000000008
-14.041092666666684,-3.231414166666673,-1.2271394666666673
-14.050667333333351,-2.4941730333333396,-1.3292681333333338
-14.060242000000018,-1.756931900000006,-1.4313968000000006
-14.060242000000018,-1.756931900000006,-1.4313968000000006
-13.236830000000019,-1.2143734533333395,-1.3579918333333338
-12.41341800000002,-0.6718150066666727,-1.284586866666667
-11.590006000000018,-0.12925656000000604,-1.2111819000000004
-11.590006000000018,-0.12925656000000604,-1.2111819000000004
-10.849573333333351,-0.0813837596666727,-1.3452257333333337
-10.109140666666683,-0.03351095933333937,-1.479269566666667
-9.368708000000014,0.014361840999993958,-1.6133134000000007
-9.368708000000014,0.014361840999993958,-1.6133134000000007
-8.82614933333335,-0.06223463933333937,-1.680335333333334
-8.283590666666685,-0.1388311196666727,-1.7473572666666675
-7.741032000000021,-0.21542760000000605,-1.814379200000001
-7.99316200000002,-0.2026615233333394,-1.8814011333333343
-8.245292000000022,-0.18989544666667277,-1.9484230666666678
-8.49742200000002,-0.17712937000000614,-2.015445000000001
-8.49742200000002,-0.17712937000000614,-2.0154450000000015
-8.49742200000002,-0.17712937000000614,-2.0154450000000015
-8.810191000000017,-0.06861768333333945,-1.9899128333333345
-9.122960000000015,0.03989400333332722,-1.9643806666666677
-9.435729000000014,0.1484056899999939,-1.9388485000000006
-9.908074000000015,-0.9175620733333395,-1.3994815866666672
-10.380419000000016,-1.9835298366666727,-0.8601146733333339
-10.852764000000017,-3.0494976000000062,-0.32074776000000066
-10.852764000000017,-3.0494976000000062,-0.32074776000000066
-11.305960000000015,-2.468640866666673,-0.464366173333334
-11.759156000000017,-1.887784133333339,-0.6079845866666674
-12.212352000000017,-1.3069274000000057,-0.7516030000000007
-12.212352000000019,-1.3069274000000055,-0.7516030000000006
-12.502780333333353,-1.0452228000000054,-0.9973500666666671
-12.793208666666686,-0.7835182000000053,-1.2430971333333336
-13.083637000000019,-0.5218136000000052,-1.4888442000000002
-13.083637000000019,-0.5218136000000052,-1.4888442000000002
-11.822986333333352,-1.2175649666666721,-0.7771351833333336
-10.562335666666685,-1.913316333333339,-0.06542616666666697
-9.301685000000019,-2.609067700000006,0.6462828499999996
-9.30168500000002,-2.609067700000006,0.6462828499999996
-9.56339000000002,-2.3984273666666724,0.4611746766666663
-9.82509500000002,-2.1877870333333393,0.276066503333333
-10.086800000000023,-1.9771467000000058,0.09095832999999968
-10.552761666666688,-2.3824698000000057,0.13244808666666633
-11.018723333333355,-2.7877929000000052,0.17393784333333298
-11.484685000000022,-3.193116000000005,0.2154275999999997
-11.484685000000022,-3.193116000000005,0.21542759999999972
-12.06554166666669,-3.6558863333333385,0.6111760999999998
-12.646398333333357,-4.118656666666672,1.0069245999999998
-13.227255000000023,-4.581427000000005,1.4026730999999997
-13.227255000000023,-4.581427000000004,1.4026731000000001
-13.36449066666669,-4.996324666666672,1.552674566666667
-13.501726333333357,-5.411222333333339,1.702676033333334
-13.638962000000022,-5.826120000000006,1.852677500000001
-13.638962000000022,-5.826120000000006,1.852677500000001
-13.44108766666669,-5.609096666666672,1.8909757333333346
-13.243213333333356,-5.392073333333339,1.929273966666668
-13.045339000000022,-5.175050000000005,1.9675722000000018
-13.045339000000022,-5.175050000000005,1.9675722000000018
-12.700654666666688,-4.779301466666671,1.2079904000000017
-12.355970333333355,-4.3835529333333385,0.44840860000000177
-12.011286000000021,-3.9878044000000066,-0.31117319999999826
-12.011286000000021,-3.9878044000000066,-0.31117319999999826
-13.380448333333357,-3.6143966000000063,-0.6654319333333316
-14.749610666666692,-3.240988800000006,-1.019690666666665
-16.11877300000003,-2.867581000000006,-1.3739493999999983
-16.11877300000003,-2.867581000000006,-1.3739493999999983
-15.92089833333336,-2.283532766666673,-1.4920356666666652
-15.723023666666691,-1.6994845333333395,-1.6101219333333319
-15.525149000000022,-1.1154363000000063,-1.7282081999999985
-15.525149000000022,-1.1154363000000063,-1.7282081999999985
-14.248541333333357,-0.8122418800000064,-1.7505487999999987
-12.971933666666692,-0.5090474600000064,-1.7728893999999986
-11.695326000000025,-0.2058530400000064,-1.7952299999999985
-10.677231000000026,0.0015957733333269257,-1.8973586666666653
-9.659136000000025,0.20904458666666026,-1.9994873333333318
-8.641041000000024,0.4164933999999936,-2.1016159999999986
-8.641041000000024,0.4164933999999936,-2.1016159999999986
-7.741032333333358,0.2026615433333269,-2.0122534333333317
-6.841023666666691,-0.011170313333339768,-1.9228908666666653
-5.941015000000024,-0.22500217000000644,-1.8335282999999987
-5.941015000000024,-0.22500217000000644,-1.8335282999999987
-6.659107000000024,-0.08457528666667309,-1.852677433333332
-7.377199000000023,0.05585159666666024,-1.8718265666666654
-8.095291000000023,0.19627847999999357,-1.8909756999999987
-8.095291000000023,0.19627847999999357,-1.8909756999999987
-8.59316816666669,0.2122360866666602,-1.8271452999999986
-9.091045333333357,0.22819369333332684,-1.7633148999999986
-9.588922500000022,0.2441512999999935,-1.6994844999999987
-9.588922500000022,0.2441512999999935,-1.6994844999999987
-10.21765200000002,-0.9335196333333399,-1.057988943333332
-10.84638150000002,-2.1111905666666733,-0.41649338666666536
-11.475111000000018,-3.2888615000000065,0.22500217000000133
-11.475111000000018,-3.2888615000000065,0.22500217000000133
-12.850656333333353,-2.6633235666666732,-0.349471453333332
-14.226201666666688,-2.0377856333333404,-0.9239450766666654
-15.601747000000023,-1.412247700000007,-1.4984186999999987
-15.601747000000023,-1.412247700000007,-1.4984186999999987
-15.234721666666687,-1.1441600000000072,-1.1186277999999987
-14.86769633333335,-0.8760723000000071,-0.7388368999999987
-14.500671000000017,-0.6079846000000071,-0.3590459999999988
-12.620866000000015,-1.361183400000007,0.07180922000000119
-10.741061000000016,-2.1143822000000068,0.5026644400000012
-8.861256000000015,-2.8675810000000066,0.9335196600000012
-8.861256000000017,-2.8675810000000066,0.9335196600000012
-8.861256000000017,-2.8675810000000066,0.9335196600000012
-9.116577333333352,-3.276095466666673,0.45479162333333445
-9.371898666666686,-3.6846099333333395,-0.023936413333332223
-9.62722000000002,-4.093124400000006,-0.5026644499999989
-10.16658700000002,-4.160146400000007,-0.3590460333333321
-10.705954000000018,-4.227168400000007,-0.21542761666666543
-11.245321000000017,-4.294190400000008,-0.07180919999999875
-11.245321000000013,-4.294190400000008,-0.07180919999999875
-11.755964333333347,-4.79525893333334,0.2952156333333346
-12.266607666666681,-5.296327466666672,0.6622404666666679
-12.777251000000016,-5.797396000000005,1.0292653000000012
-12.777251000000016,-5.797396000000005,1.0292653000000012
-13.051721666666682,-6.142080333333339,0.9782009666666679
-13.326192333333351,-6.486764666666672,0.9271366333333346
-13.600663000000019,-6.831449000000005,0.8760723000000014
-13.60066300000002,-6.831449000000005,0.8760723000000014
-13.249595833333354,-6.304848166666672,1.048414400000001
-12.898528666666687,-5.778247333333339,1.220756500000001
-12.54746150000002,-5.251646500000006,1.393098600000001
-12.54746150000002,-5.251646500000006,1.393098600000001
-13.02299800000002,-4.779301466666673,0.5952185333333343
-13.49853450000002,-4.306956433333339,-0.20266153333333245
-13.974071000000018,-3.8346114000000058,-1.0005415999999991
-13.974071000000018,-3.8346114000000058,-1.0005415999999991
-14.609183666666686,-3.416522266666673,-1.1250108666666658
-15.244296333333352,-2.9984331333333394,-1.2494801333333323
-15.879409000000019,-2.580344000000006,-1.373949399999999
-15.879409000000019,-2.580344000000006,-1.373949399999999
-14.94429333333335,-1.977146710000006,-1.4250137333333324
-14.009177666666682,-1.373949420000006,-1.4760780666666655
-13.074062000000014,-0.7707521300000059,-1.527142399999999
-12.263416000000015,-0.5856439533333392,-1.654803199999999
-11.452770000000017,-0.40053577666667256,-1.7824639999999992
-10.642124000000019,-0.21542760000000585,-1.9101247999999993
-10.642124000000019,-0.21542760000000585,-1.9101247999999993
-9.802754333333352,0.017553366666660797,-1.8622519999999991
-8.963384666666684,0.2505343333333274,-1.8143791999999992
-8.124015000000016,0.48351529999999404,-1.766506399999999
-8.124015000000016,0.48351529999999404,-1.766506399999999
-7.441029500000017,0.21861913333332736,-1.699484499999999
-6.758044000000017,-0.0462770333333393,-1.632462599999999
-6.075058500000018,-0.311173200000006,-1.565440699999999
-6.075058500000018,-0.311173200000006,-1.565440699999999
-6.521871433333351,-0.2281936813333393,-1.6739523666666658
-6.968684366666685,-0.14521416266667267,-1.7824640333333326
-7.415497300000019,-0.062234644000006,-1.8909756999999994
-7.41549730000002,-0.062234644000006,-1.8909756999999994
-8.018694533333353,-0.3175562626666727,-1.5239508866666658
-8.621891766666687,-0.5728778813333394,-1.1569260733333324
-9.22508900000002,-0.828199500000006,-0.7899012599999988
-9.22508900000002,-0.828199500000006,-0.7899012599999988
-10.153821333333353,-1.0069246333333393,-0.7292623733333321
-11.082553666666689,-1.1856497666666723,-0.6686234866666654
-12.011286000000021,-1.3643749000000056,-0.6079845999999987
-13.447470000000024,-1.6420371666666724,-0.6909641199999986
-14.883654000000027,-1.9196994333333393,-0.7739436399999987
-16.31983800000003,-2.197361700000006,-0.8569231599999987
-16.31983800000003,-2.197361700000006,-0.8569231599999987
-15.269827666666695,-2.1494888333333395,-0.7388369233333321
-14.219817333333362,-2.1016159666666727,-0.6207506866666654
-13.169807000000029,-2.053743100000006,-0.5026644499999988
-13.169807000000029,-2.053743100000006,-0.5026644499999988
-12.122988666666698,-1.8462943333333393,-0.17393786666666544
-11.076170333333364,-1.6388455666666726,0.1547887166666679
-10.02935200000003,-1.431396800000006,0.48351530000000126
-10.029352000000028,-1.431396800000006,0.48351530000000126
-10.211268666666694,-1.788847033333339,0.32074777333333465
-10.39318533333336,-2.146297266666672,0.157980246666668
-10.575102000000026,-2.503747500000005,-0.004787279999998673
-10.575102000000024,-2.503747500000005,-0.004787279999998672
-10.916594666666692,-3.0399229000000054,0.21223609666666798
-11.258087333333359,-3.5760983000000053,0.42925947333333464
-11.599580000000026,-4.112273700000006,0.6462828500000013
-11.599580000000026,-4.112273700000006,0.6462828500000013
-11.94426433333336,-4.415468133333339,0.8633062000000012
-12.288948666666693,-4.718662566666673,1.0803295500000012
-12.633633000000026,-5.021857000000007,1.2973529000000013
-12.633633000000026,-5.021857000000007,1.297352900000001
-13.01980666666669,-5.33143433333334,1.3994815666666678
-13.405980333333355,-5.641011666666674,1.5016102333333343
-13.79215400000002,-5.950589000000007,1.6037389000000009
-13.578322333333352,-5.452712000000006,1.2494801466666676
-13.364490666666683,-4.954835000000006,0.8952213933333345
-13.150659000000013,-4.456958000000006,0.5409626400000012
-13.150659000000013,-4.456958000000006,0.5409626400000013
-13.150659000000013,-4.456958000000006,0.5409626400000013
-13.428321000000013,-3.9335486666666726,0.07819222666666792
-13.705983000000016,-3.410139333333339,-0.3845781866666654
-13.983645000000017,-2.886730000000006,-0.8473485999999987
-15.129400666666683,-2.6984303333333393,-1.1984157999999987
-16.275156333333353,-2.5101306666666723,-1.5494829999999986
-17.42091200000002,-2.3218310000000053,-1.9005501999999985
-17.42091200000002,-2.3218310000000053,-1.9005501999999985
-16.386859666666684,-1.8462944666666719,-1.9260823666666653
-15.35280733333335,-1.3707579333333382,-1.9516145333333323
-14.318755000000015,-0.8952214000000048,-1.9771466999999994
-14.318755000000015,-0.8952214000000048,-1.9771466999999994
-13.147467333333347,-0.5154305000000048,-1.906933266666666
-11.976179666666681,-0.13563960000000483,-1.8367198333333328
-10.804892000000015,0.24415129999999516,-1.7665063999999997
-10.804892000000015,0.24415129999999516,-1.7665063999999997
-9.90807466666668,0.2984071399999952,-1.7856554999999996
-9.011257333333347,0.3526629799999952,-1.8048045999999995
-8.114440000000014,0.4069188199999952,-1.8239536999999995
-8.114440000000014,0.4069188199999952,-1.8239536999999995
-7.782521900000013,0.45160009333332857,-1.859060466666666
-7.450603800000013,0.4962813666666619,-1.8941672333333328
-7.118685700000012,0.5409626399999952,-1.9292739999999997
-7.118685700000012,0.5409626399999952,-1.9292740000000002
-7.1537923666666785,1.0005415266666617,-1.9133164
-7.188899033333345,1.4601204133333283,-1.8973588
-7.224005700000011,1.919699299999995,-1.8814011999999998
-7.224005700000011,1.919699299999995,-1.8814011999999998
-7.859118133333344,1.204798809999995,-1.6548032333333331
-8.494230566666678,0.48989831999999484,-1.4282052666666665
-9.129343000000011,-0.2250021700000052,-1.2016072999999998
-10.06445850000001,-0.8154333800000053,-1.0101160999999996
-10.99957400000001,-1.4058645900000055,-0.8186248999999997
-11.93468950000001,-1.9962958000000057,-0.6271336999999996
-11.93468950000001,-1.9962958000000057,-0.6271336999999996
-13.243212666666677,-1.6579946800000058,-0.8473485999999997
-14.551735833333344,-1.319693560000006,-1.0675634999999997
-15.860259000000012,-0.9813924400000059,-1.2877783999999999
-15.860259000000012,-0.9813924400000059,-1.2877784
-15.633661333333345,-1.077138060000006,-1.5367169333333333
-15.407063666666678,-1.172883680000006,-1.7856554666666664
-15.18046600000001,-1.2686293000000062,-2.034594
-15.18046600000001,-1.2686293000000062,-2.034594
-14.053859333333344,-1.5494830666666732,-1.0133075666666662
-12.92725266666668,-1.83033683333334,0.007978866666667065
-11.800646000000015,-2.111190600000007,1.0292653000000003
-11.800646000000015,-2.111190600000007,1.0292653000000003
-11.628304000000014,-2.5643864666666736,0.9399027133333336
-11.455962000000014,-3.01758233333334,0.8505401266666669
-11.283620000000013,-3.4707782000000065,0.7611775400000002
-11.283620000000013,-3.4707782000000065,0.7611775399999999
-11.404897333333347,-3.796313266666673,1.0739465266666668
-11.526174666666682,-4.12184833333334,1.386715513333333
-11.647452000000015,-4.447383400000008,1.6994844999999998
-11.647452000000015,-4.447383400000008,1.6994844999999998
-11.781496000000013,-4.533554400000008,2.1558718999999997
-11.915540000000012,-4.619725400000008,2.6122593
-12.04958400000001,-4.705896400000008,3.0686467
-12.04958400000001,-4.705896400000008,3.0686467
-12.209160333333344,-4.964409600000008,2.880346966666666
-12.368736666666678,-5.222922800000009,2.6920472333333323
-12.528313000000011,-5.481436000000009,2.503747499999999
-12.92725266666668,-5.197390666666676,1.8718265333333324
-13.326192333333347,-4.913345333333342,1.2399055666666656
-13.725132000000016,-4.629300000000009,0.6079845999999992
-13.725132000000016,-4.629300000000008,0.6079845999999992
-15.097486000000016,-3.592055966666674,-0.004787300000000716
-16.469840000000016,-2.554811933333341,-0.6175592000000006
-17.842194000000017,-1.5175679000000069,-1.2303311000000006
-17.842194000000017,-1.5175679000000069,-1.2303311000000006
-17.456020000000017,-1.252671700000007,-1.3420343000000006
-17.069846000000016,-0.9877755000000071,-1.4537375000000006
-16.683672000000012,-0.7228793000000072,-1.5654407000000006
-16.683672000000012,-0.7228793000000072,-1.5654407000000006
-15.400681000000011,-0.45479161166667387,-1.6675693000000005
-14.11769000000001,-0.18670392333334052,-1.7696979000000006
-12.83469900000001,0.08138376499999282,-1.8718265000000007
-12.83469900000001,0.08138376499999282,-1.8718265000000007
-11.433621333333344,0.33032234333332616,-1.7601233000000007
-10.032543666666678,0.5792609216666595,-1.6484201000000007
-8.631466000000012,0.828199499999993,-1.5367169000000007
-8.631466000000014,0.828199499999993,-1.5367169000000007
-7.906991000000016,0.8345825333333261,-1.5750151666666674
-7.1825160000000166,0.8409655666666594,-1.613313433333334
-6.458041000000017,0.8473485999999927,-1.6516117000000008
-6.458041000000017,0.8473485999999927,-1.6516117000000008
-6.4133596666666834,0.917562033333326,-1.6292710333333342
-6.368678333333349,0.9877754666666592,-1.6069303666666677
-6.323997000000015,1.0579888999999925,-1.584589700000001
-6.73570313333335,1.0452227999999923,-1.5750151666666679
-7.147409266666685,1.0324566999999922,-1.5654406333333348
-7.55911540000002,1.0196905999999923,-1.5558661000000018
-7.55911540000002,1.0196905999999923,-1.5558661000000018
-7.55911540000002,1.0196905999999923,-1.5558661000000018
-8.711254266666685,0.6877725339999922,-1.3835240000000015
-9.863393133333352,0.3558544679999922,-1.2111819000000015
-11.015532000000016,0.023936401999992214,-1.0388398000000014
-11.63149533333335,-0.6271337320000078,-0.620750666666668
-12.247458666666683,-1.2782038660000077,-0.20266153333333467
-12.863422000000016,-1.9292740000000077,0.2154275999999987
-12.863422000000016,-1.9292740000000077,0.2154275999999987
-14.178328666666681,-1.6611862666666746,-0.4101103333333347
-15.49323533333335,-1.3930985333333414,-1.0356482666666682
-16.808142000000018,-1.1250108000000083,-1.6611862000000015
-16.808142000000018,-1.1250108000000083,-1.6611862000000015
-15.825153666666685,-1.3548002666666752,-1.2367140333333346
-14.84216533333335,-1.5845897333333419,-0.8122418666666679
-13.859177000000017,-1.8143792000000085,-0.38776970000000105
-13.859177000000017,-1.8143792000000085,-0.38776970000000105
-12.30490633333335,-1.8462944000000086,0.20585306666666567
-10.750635666666682,-1.8782096000000086,0.7994758333333323
-9.196365000000014,-1.9101248000000084,1.393098599999999
-9.196365000000014,-1.9101248000000084,1.393098599999999
-9.33040866666668,-2.3090648000000082,1.0611804866666654
-9.464452333333346,-2.708004800000008,0.7292623733333321
-9.598496000000011,-3.1069448000000075,0.3973442599999988
-9.821902666666677,-3.3080105666666744,0.7101132399999988
-10.045309333333345,-3.5090763333333417,1.0228822199999985
-10.26871600000001,-3.710142100000009,1.3356511999999985
-10.268716000000012,-3.710142100000009,1.3356511999999985
-10.268716000000012,-3.710142100000009,1.3356511999999985
-10.846381333333346,-4.000570400000009,1.5271423999999987
-11.424046666666678,-4.290998700000008,1.7186335999999987
-12.001712000000012,-4.581427000000008,1.9101247999999986
-11.854902000000012,-4.728237000000008,2.018636466666665
-11.708092000000013,-4.8750470000000075,2.127148133333332
-11.561282000000013,-5.021857000000007,2.2356597999999988
-11.561282000000013,-5.021857000000007,2.2356597999999988
-12.158096333333347,-5.108028000000005,1.9165077999999987
-12.754910666666682,-5.194199000000006,1.5973557999999983
-13.351725000000016,-5.280370000000006,1.2782037999999984
-13.351725000000016,-5.280370000000007,1.2782037999999982
-14.99854933333335,-4.472915400000007,0.24415129999999832
-16.645373666666686,-3.665460800000007,-0.7899012000000015
-18.292198000000017,-2.8580062000000073,-1.8239537000000015
-18.292198000000017,-2.8580062000000073,-1.8239537000000015
-18.218793000000012,-2.1941700333333407,-1.7473572666666681
-18.145388000000008,-1.530333866666674,-1.6707608333333346
-18.071983000000007,-0.8664977000000071,-1.5941644000000013
-18.071983000000003,-0.8664977000000071,-1.594164400000001
-16.648565000000005,-0.8601146666666738,-1.5622491666666676
-15.225147000000007,-0.8537316333333406,-1.5303339333333341
-13.801729000000009,-0.8473486000000072,-1.4984187000000009
-13.801729000000009,-0.8473486000000072,-1.4984187000000009
-12.44852433333334,-0.6143676300000073,-1.737782733333334
-11.095319666666674,-0.3813866600000073,-1.9771467666666673
-9.742115000000005,-0.14840569000000733,-2.2165108000000004
-8.905936866666673,0.13563959666665937,-2.0920415000000006
-8.06975873333334,0.419684883333326,-1.9675722000000004
-7.233580600000006,0.7037301699999926,-1.8431029000000005
-7.233580600000006,0.7037301699999926,-1.8431029000000005
-6.563361400000006,0.9367111466666592,-1.5845897666666673
-5.893142200000007,1.169692123333326,-1.326076633333334
-5.222923000000008,1.4026730999999923,-1.067563500000001
-5.222923000000008,1.4026730999999923,-1.067563500000001
-5.529308766666674,1.1345853999999924,-1.1186278000000005
-5.835694533333339,0.8664976999999925,-1.1696921
-6.142080300000006,0.5984099999999924,-1.2207563999999997
-6.142080300000006,0.5984099999999924,-1.2207563999999995
-7.39634753333334,0.30798167333332577,-1.064371933333333
-8.650614766666674,0.017553346666659125,-0.9079874666666664
-9.904882000000006,-0.27287498000000754,-0.7516029999999998
-9.904882000000006,-0.27287498000000754,-0.7516029999999997
-11.057021166666672,-0.9047959866666742,-0.24415128999999966
-12.209160333333338,-1.5367169933333409,0.26330042000000037
-13.361299500000007,-2.1686380000000076,0.7707521300000003
-13.361299500000007,-2.168638000000008,0.7707521300000003
-14.899611666666672,-1.8814011333333411,0.017553353333333632
-16.43792383333334,-1.5941642666666744,-0.735645423333333
-17.976236000000004,-1.3069274000000077,-1.4888441999999997
-17.976236000000004,-1.3069274000000075,-1.4888441999999997
-16.68367066666667,-1.3803324000000075,-1.042031363333333
-15.391105333333337,-1.4537374000000074,-0.5952185266666663
-14.098540000000005,-1.5271424000000071,-0.14840568999999962
-12.962359000000005,-1.9643806666666739,0.03670248000000038
-11.826178000000004,-2.401618933333341,0.22181065000000041
-10.689997000000004,-2.838857200000007,0.4069188200000004
-10.689997000000004,-2.838857200000007,0.4069188200000004
-10.801700000000004,-3.027156833333341,-0.04627705333333295
-10.913403000000004,-3.2154564666666747,-0.49947292666666626
-11.025106000000006,-3.4037561000000083,-0.9526687999999996
-11.025106000000006,-3.4037561000000083,-0.9526687999999996
-11.593196666666673,-3.8090790666666745,-0.5792609299999997
-12.161287333333341,-4.214402033333341,-0.20585305999999967
-12.72937800000001,-4.619725000000008,0.1675548100000003
-12.729378000000011,-4.619725000000009,0.1675548100000003
-12.598526000000012,-5.200581866666675,0.387769706666667
-12.467674000000011,-5.781438733333342,0.6079846033333337
-12.336822000000012,-6.362295600000009,0.8281995000000005
-12.336822000000012,-6.362295600000009,0.8281995000000005
-12.078308666666679,-5.950589466666677,0.8345825333333338
-11.819795333333346,-5.538883333333344,0.8409655666666671
-11.561282000000013,-5.127177200000012,0.8473486000000005
-11.427238000000015,-5.203773633333346,0.4516001000000005
-11.293194000000016,-5.280370066666679,0.05585160000000052
-11.159150000000018,-5.356966500000013,-0.33989689999999945
-11.15915000000002,-5.356966500000013,-0.33989689999999945
-12.959167333333355,-4.820791166666679,-0.8409655666666662
-14.75918466666669,-4.284615833333346,-1.3420342333333328
-16.559202000000024,-3.748440500000012,-1.8431028999999992
-16.559202000000024,-3.7484405000000116,-1.8431028999999992
-17.207080666666688,-3.033539966666678,-1.7824639999999994
-17.854959333333355,-2.3186394333333444,-1.7218250999999996
-18.502838000000022,-1.6037389000000113,-1.6611861999999997
-18.502838000000022,-1.6037389000000113,-1.6611861999999997
-17.24857066666669,-1.2047988733333448,-1.6548031999999997
-15.994303333333358,-0.8058588466666782,-1.6484201999999994
-14.740036000000023,-0.4069188200000115,-1.6420371999999992
-14.740036000000023,-0.4069188200000115,-1.6420371999999992
-13.383640000000023,-0.11010744666667815,-1.7984216666666661
-12.027244000000024,0.18670392666665517,-1.954806133333333
-10.670848000000026,0.48351529999998855,-2.1111906
-10.670848000000026,0.48351529999998855,-2.1111906
-9.272962000000026,0.5186220333333219,-1.7409742666666663
-7.875076000000026,0.5537287666666552,-1.3707579333333328
-6.477190000000026,0.5888354999999885,-1.0005415999999994
-6.477190000000026,0.5888354999999885,-1.0005415999999994
-5.94420623333336,0.41011035999998846,-0.9750094233333328
-5.411222466666693,0.23138521999998843,-0.9494772466666662
-4.8782387000000265,0.05266007999998845,-0.9239450699999997
-5.628245800000027,-0.08138376333334489,-1.0930956466666661
-6.378252900000027,-0.21542760666667823,-1.2622462233333327
-7.128260000000027,-0.34947145000001156,-1.4313967999999992
-7.128260000000027,-0.34947145000001156,-1.4313967999999992
-7.128260000000027,-0.34947145000001156,-1.4313967999999992
-8.13039733333336,-0.7516030000000115,-1.316502066666666
-9.132534666666691,-1.1537345500000116,-1.2016073333333328
-10.134672000000025,-1.5558661000000116,-1.0867125999999996
-11.069787666666691,-1.8877841333333445,-0.8569231533333331
-12.004903333333358,-2.2197021666666776,-0.6271337066666665
-12.940019000000023,-2.5516202000000106,-0.3973442599999997
-12.940019000000023,-2.5516202000000106,-0.39734425999999967
-14.452799333333358,-2.526088133333344,-0.5696863533333331
-15.965579666666692,-2.500556066666677,-0.7420284466666662
-17.478360000000027,-2.47502400000001,-0.9143705399999994
-17.478360000000027,-2.4750240000000097,-0.9143705399999993
-15.866642333333358,-2.2516175666666767,-0.6622404433333327
-14.254924666666689,-2.0282111333333437,-0.41011034666666596
-12.64320700000002,-1.80480470000001,-0.1579802499999993
-12.643207000000018,-1.80480470000001,-0.15798024999999932
-11.698517000000018,-1.894167266666677,0.06542616666666734
-10.75382700000002,-1.9835298333333438,0.288832583333334
-9.80913700000002,-2.072892400000011,0.5122390000000007
-9.80913700000002,-2.072892400000011,0.5122390000000007
-9.828286333333352,-2.6314084333333434,0.13883113333333405
-9.847435666666685,-3.189924466666677,-0.23457673333333262
-9.86658500000002,-3.7484405000000103,-0.6079845999999992
-10.351696000000018,-3.9463146666666766,-0.19627849999999927
-10.836807000000016,-4.1441888333333425,0.2154276000000007
-11.321918000000016,-4.342063000000009,0.6271337000000007
-11.321918000000016,-4.342063000000009,0.6271337000000007
-11.321918000000016,-4.342063000000009,0.6271337000000007
-12.020860666666684,-4.766535166666675,0.617559133333334
-12.719803333333351,-5.191007333333342,0.6079845666666673
-13.418746000000018,-5.615479500000009,0.5984100000000007
-13.18576533333335,-5.392073166666677,0.9590518000000006
-12.952784666666682,-5.1686668333333445,1.3196936000000006
-12.719804000000016,-4.945260500000013,1.6803354000000006
-12.719804000000016,-4.945260500000013,1.6803354000000006
-12.515546666666685,-5.127177000000013,1.1920328000000007
-12.311289333333354,-5.309093500000013,0.7037302000000007
-12.107032000000023,-5.491010000000013,0.21542760000000075
-12.107032000000023,-5.491010000000013,0.21542760000000075
-13.287894333333355,-4.485681333333346,-0.3526629999999992
-14.468756666666687,-3.4803526666666804,-0.9207535999999991
-15.64961900000002,-2.475024000000014,-1.488844199999999
-15.64961900000002,-2.475024000000014,-1.488844199999999
-15.837918666666686,-1.9516146466666806,-1.4026731666666656
-16.02621833333335,-1.4282052933333471,-1.3165021333333324
-16.214518000000016,-0.9047959400000135,-1.230331099999999
-16.214518000000016,-0.9047959400000135,-1.230331099999999
-15.193231666666684,-0.9462857266666802,-1.281395399999999
-14.17194533333335,-0.9877755133333469,-1.3324596999999991
-13.150659000000017,-1.0292653000000136,-1.3835239999999993
-13.150659000000017,-1.0292653000000136,-1.3835239999999995
-12.04958433333335,-0.6367083033333469,-1.3962900666666662
-10.948509666666682,-0.24415130666668028,-1.4090561333333327
-9.847435000000017,0.1484056899999864,-1.4218221999999994
-9.847435000000015,0.1484056899999864,-1.4218221999999994
-8.74316916666668,0.22181064999998637,-1.252671646666666
-7.638903333333347,0.29521560999998636,-1.0835210933333326
-6.534637500000013,0.3686205699999863,-0.9143705399999993
-6.563361200000013,0.25691736666665305,-1.0356482933333326
-6.592084900000014,0.14521416333331968,-1.1569260466666658
-6.620808600000014,0.03351095999998636,-1.2782037999999991
-6.620808600000015,0.03351095999998636,-1.2782037999999991
-6.86655573333335,-0.0590431266666803,-1.2399055666666658
-7.112302866666684,-0.15159721333334697,-1.2016073333333326
-7.358050000000017,-0.24415130000001362,-1.1633090999999993
-7.358050000000017,-0.24415130000001362,-1.1633090999999993
-8.612317166666685,-0.2984071400000136,-1.2367140666666658
-9.866584333333352,-0.3526629800000136,-1.3101190333333326
-11.12085150000002,-0.4069188200000136,-1.3835239999999993
-11.12085150000002,-0.4069188200000136,-1.3835239999999995
-11.443195333333351,-1.3420342133333467,-0.8122418899999996
-11.765539166666684,-2.2771496066666805,-0.24095977999999954
-12.087883000000017,-3.212265000000014,0.33032233000000044
-12.087883000000017,-3.212265000000014,0.33032233000000044
-13.345341666666684,-2.7080048333333475,-0.2601089133333329
-14.60280033333335,-2.203744666666681,-0.8505401566666663
-15.860259000000019,-1.699484500000014,-1.4409713999999996
-15.860259000000019,-1.699484500000014,-1.4409713999999993
-15.49642600000002,-1.5239508666666808,-1.2111819333333327
-15.13259300000002,-1.3484172333333475,-0.9813924666666659
-14.76876000000002,-1.1728836000000142,-0.7516029999999992
-13.335767333333353,-1.613313400000014,-0.21542761333333252
-11.902774666666687,-2.0537432000000138,0.32074777333333415
-10.469782000000022,-2.4941730000000137,0.8569231600000009
-10.469782000000022,-2.4941730000000137,0.8569231600000009
-10.469782000000022,-2.4941730000000137,0.8569231600000009
-9.914457333333353,-2.7590691666666802,0.5569202656666676
-9.359132666666683,-3.0239653333333467,0.2569173713333343
-8.803808000000016,-3.288861500000013,-0.04308552299999905
-9.177216000000017,-3.58886446666668,0.15159719800000096
-9.550624000000017,-3.888867433333347,0.346279919000001
-9.924032000000016,-4.188870400000013,0.540962640000001
-9.924032000000016,-4.188870400000013,0.5409626400000009
-10.954893000000018,-5.130368833333347,0.4579831266666676
-11.98575400000002,-6.071867266666682,0.37500361333333415
-13.016615000000021,-7.013365700000016,0.2920241000000008
-13.016615000000021,-7.013365700000016,0.29202410000000073
-13.642153000000022,-5.985696133333349,0.30479017666666747
-14.267691000000022,-4.958026566666682,0.31755625333333415
-14.893229000000025,-3.930357000000015,0.33032233000000083
-14.893229000000025,-3.930357000000015,0.3303223300000009
-14.03151866666669,-3.831419866666682,-0.05266007999999911
-13.169808333333355,-3.732482733333349,-0.4356424899999991
-12.30809800000002,-3.6335456000000157,-0.8186248999999991
-12.30809800000002,-3.6335456000000157,-0.8186248999999991
-13.319809666666686,-3.333542733333349,-1.4633119333333326
-14.33152133333335,-3.0335398666666826,-2.1079989666666665
-15.343233000000017,-2.733537000000016,-2.752686
-15.343233000000017,-2.733537000000016,-2.752686
-15.445361666666685,-2.3792782666666827,-2.2388513
-15.547490333333352,-2.0250195333333494,-1.7250165999999993
-15.64961900000002,-1.670760800000016,-1.2111818999999993
-15.64961900000002,-1.670760800000016,-1.2111818999999995
-14.49109700000002,-1.1186278136666827,-1.1569260333333329
-13.33257500000002,-0.5664948273333494,-1.1026701666666663
-12.17405300000002,-0.014361841000016065,-1.0484143
-11.05063800000002,0.1611717726666506,-1.2239479333333332
-9.927223000000021,0.3367053863333172,-1.3994815666666665
-8.803808000000023,0.5122389999999838,-1.5750152
-8.803808000000023,0.5122389999999838,-1.5750152
-8.803808000000023,0.5122389999999838,-1.5750152
-8.18146166666669,0.2824495433333171,-1.4058646333333333
-7.5591153333333585,0.05266008666665049,-1.2367140666666667
-6.936769000000026,-0.1771293700000162,-1.0675635
-7.125068666666692,0.17074631999998377,-1.2271394999999998
-7.313368333333358,0.5186220099999838,-1.3867155
-7.5016680000000235,0.8664976999999836,-1.5462915
-7.5016680000000235,0.8664976999999836,-1.5462915
-7.938906333333358,0.6462828133333169,-1.5016102333333332
-8.376144666666692,0.4260679266666503,-1.4569289666666663
-8.813383000000025,0.20585303999998364,-1.4122476999999993
-8.813383000000023,0.2058530399999836,-1.4122476999999993
-9.333600666666689,-0.3718121066666831,-1.3356511999999994
-9.853818333333356,-0.9494772533333498,-1.2590546999999994
-10.374036000000023,-1.5271424000000164,-1.1824581999999995
-10.374036000000023,-1.5271424000000164,-1.1824581999999995
-11.120852000000022,-1.89735873333335,-0.9111789899999995
-11.867668000000023,-2.267575066666683,-0.6398997799999996
-12.614484000000024,-2.6377914000000167,-0.36862056999999954
-12.614484000000024,-2.637791400000017,-0.36862056999999954
-13.977262666666691,-2.395235866666684,-0.7675606133333327
-15.340041333333362,-2.152680333333351,-1.166500656666666
-16.702820000000035,-1.910124800000018,-1.5654406999999992
-16.702820000000035,-1.910124800000018,-1.5654406999999992
-15.225146333333365,-1.9292739333333513,-1.0516059339999995
-13.747472666666695,-1.9484230666666846,-0.5377711679999995
-12.269799000000026,-1.967572200000018,-0.023936401999999468
-11.251704000000025,-2.136722800000018,0.0877667986666672
-10.233609000000024,-2.305873400000018,0.19946999933333387
-9.215514000000026,-2.475024000000018,0.31117320000000054
-9.215514000000026,-2.475024000000018,0.3111732000000005
-9.017640000000023,-2.7654523333333514,-0.02393640999999952
-8.819766000000024,-3.0558806666666847,-0.3590460199999996
-8.621892000000026,-3.346309000000018,-0.6941556299999996
-8.621892000000027,-3.346309000000018,-0.6941556299999996
-9.37189900000003,-3.5569492666666847,-0.515430503333333
-10.12190600000003,-3.7675895333333513,-0.3367053766666663
-10.87191300000003,-3.9782298000000176,-0.1579802499999996
-10.87191300000003,-3.9782298000000176,-0.15798024999999963
-11.803837166666696,-4.718662433333352,-0.3686205866666663
-12.735761333333363,-5.459095066666684,-0.579260923333333
-13.667685500000028,-6.199527700000018,-0.7899012599999997
-13.667685500000028,-6.199527700000018,-0.7899012599999997
-13.45066200000003,-5.81973693333335,-0.390961233333333
-13.233638500000032,-5.439946166666683,0.007978793333333697
-13.016615000000032,-5.060155400000016,0.4069188200000004
-12.442141333333366,-4.891004733333349,-0.017553353333332928
-11.867667666666698,-4.721854066666682,-0.4420255266666662
-11.29319400000003,-4.5527034000000155,-0.8664976999999996
-11.29319400000003,-4.552703400000015,-0.8664976999999996
-11.29319400000003,-4.552703400000015,-0.8664976999999996
-12.14533000000003,-4.022911100000014,-1.048414366666666
-12.997466000000031,-3.4931188000000137,-1.2303310333333328
-13.849602000000033,-2.9633265000000133,-1.4122476999999993
-13.891091666666702,-2.3473631000000137,-1.204798886666666
-13.932581333333369,-1.7313997000000134,-0.9973500733333326
-13.974071000000038,-1.1154363000000134,-0.7899012599999993
-13.974071000000038,-1.1154363000000134,-0.7899012599999993
-13.054913333333369,-0.68777259666668,-0.7707521399999991
-12.135755666666702,-0.2601088933333467,-0.7516030199999991
-11.216598000000033,0.16755480999998662,-0.732453899999999
-11.216598000000033,0.16755480999998662,-0.7324538999999989
-10.096374333333367,0.32393929333332,-0.9016044666666655
-8.976150666666703,0.4803237766666533,-1.070755033333332
-7.855927000000037,0.6367082599999866,-1.2399055999999986
-7.855927000000037,0.6367082599999867,-1.2399055999999986
-7.482519166666703,0.3079816899999867,-1.1856497666666652
-7.109111333333369,-0.020744880000013326,-1.1313939333333318
-6.735703500000035,-0.34947145000001334,-1.0771380999999984
-6.735703500000035,-0.34947145000001334,-1.0771380999999984
-7.303794000000035,-0.33351385666668,-1.2750123333333319
-7.871884500000036,-0.31755626333334663,-1.4728865666666653
-8.439975000000038,-0.3015986700000133,-1.6707607999999985
-8.439975000000038,-0.3015986700000133,-1.6707607999999985
-8.960192666666705,-0.41011034666667995,-1.5686321666666654
-9.480410333333372,-0.5186220233333466,-1.4665035333333318
-10.00062800000004,-0.6271337000000131,-1.3643748999999985
-10.000628000000042,-0.6271337000000132,-1.3643748999999985
-10.648506666666707,-1.0516058666666799,-1.1218193533333316
-11.296385333333374,-1.4760780333333468,-0.879263806666665
-11.94426400000004,-1.9005502000000132,-0.6367082599999985
-12.170862000000037,-1.8111876333333463,-0.7196877733333317
-12.397460000000038,-1.7218250666666794,-0.8026672866666651
-12.624058000000039,-1.6324625000000126,-0.8856467999999985
-12.624058000000039,-1.6324625000000126,-0.8856467999999985
-12.624058000000039,-1.6324625000000126,-0.8856467999999985
-12.627249666666707,-1.6899099000000126,-0.8505400866666651
-12.630441333333373,-1.7473573000000127,-0.8154333733333319
-12.633633000000039,-1.8048047000000127,-0.7803266599999986
-11.414472166666707,-1.9101248666666795,-0.4069188066666653
-10.195311333333375,-2.015445033333346,-0.03351095333333195
-8.976150500000042,-2.120765200000013,0.3398969000000014
-8.97615050000004,-2.120765200000013,0.3398969000000014
-9.036789333333374,-2.289915700000013,0.07500072000000137
-9.097428166666708,-2.4590662000000134,-0.1898954599999986
-9.15806700000004,-2.628216700000013,-0.45479163999999866
-9.15806700000004,-2.628216700000013,-0.45479163999999866
-9.429346333333372,-2.8452401000000136,-0.3718121066666653
-9.700625666666705,-3.062263500000013,-0.28883257333333195
-9.971905000000037,-3.279286900000013,-0.20585303999999863
-9.971905000000037,-3.279286900000013,-0.20585303999999863
-10.495314000000038,-3.4835442000000136,0.132448106666668
-11.018723000000039,-3.6878015000000146,0.47074925333333467
-11.54213200000004,-3.892058800000015,0.8090504000000013
-11.54213200000004,-3.892058800000015,0.8090504000000013
-12.384693666666706,-3.9973789666666817,0.821816466666668
-13.227255333333373,-4.102699133333348,0.8345825333333345
-14.069817000000038,-4.208019300000014,0.8473486000000011
-14.069817000000038,-4.208019300000014,0.847348600000001
-13.849602000000038,-4.393127533333348,0.959051800000001
-13.629387000000037,-4.578235766666681,1.070755000000001
-13.409172000000035,-4.763344000000014,1.182458200000001
-13.409172000000035,-4.763344000000014,1.182458200000001
-12.505972000000037,-4.705896500000015,0.5856439333333344
-11.602772000000039,-4.6484490000000145,-0.011170333333332247
-10.69957200000004,-4.591001500000015,-0.6079845999999989
-11.848519000000044,-3.9080162666666816,-0.7292623666666657
-12.997466000000045,-3.225031033333348,-0.8505401333333323
-14.146413000000047,-2.542045800000015,-0.971817899999999
-14.146413000000047,-2.5420458000000146,-0.971817899999999
-13.830452333333382,-1.9643806666666812,-0.7771351666666656
-13.514491666666713,-1.3867155333333478,-0.5824524333333323
-13.198531000000044,-0.8090504000000146,-0.38776969999999905
-13.19853100000004,-0.8090504000000146,-0.38776969999999905
-12.068733000000043,-0.8888383666666813,-0.6781980333333323
-10.938935000000043,-0.9686263333333479,-0.9686263666666658
-9.809137000000044,-1.0484143000000146,-1.2590546999999992
-9.809137000000042,-1.0484143000000143,-1.2590546999999992
-9.145300800000042,-0.8122418333333478,-1.3611833666666657
-8.48146460000004,-0.5760693666666811,-1.4633120333333325
-7.817628400000039,-0.33989690000001443,-1.565440699999999
-7.817628400000039,-0.33989690000001443,-1.565440699999999
-7.578264400000038,-0.37181210000001436,-1.476078099999999
-7.338900400000039,-0.40372730000001433,-1.386715499999999
-7.09953640000004,-0.4356425000000143,-1.297352899999999
-7.099536400000041,-0.4356425000000143,-1.297352899999999
-7.354858066666708,-0.2313852100000143,-1.306927466666666
-7.610179733333375,-0.027127920000014277,-1.3165020333333326
-7.865501400000042,0.17712936999998571,-1.3260765999999995
-8.47508176666671,0.11808624666665236,-1.1696921199999994
-9.084662133333376,0.059043123333319035,-1.0133076399999992
-9.694242500000044,0.0,-0.8569231599999991
-9.694242500000044,0.0,-0.8569231599999991
-9.694242500000044,0.0,-0.8569231599999991
-10.278290666666711,-0.3398968666666809,-0.8920298733333324
-10.862338833333377,-0.6797937333333476,-0.9271365866666658
-11.446387000000044,-1.019690600000014,-0.962243299999999
-12.231501000000044,-1.5750151333333475,-0.8888383333333324
-13.016615000000044,-2.130339666666681,-0.8154333666666659
-13.801729000000044,-2.6856642000000144,-0.7420283999999993
-13.801729000000044,-2.6856642000000144,-0.7420283999999993
-14.165562333333376,-2.468640800000015,-0.8856467999999992
-14.529395666666709,-2.251617400000015,-1.029265199999999
-14.89322900000004,-2.034594000000015,-1.1728835999999991
-14.893229000000039,-2.034594000000015,-1.1728835999999991
-13.364490666666706,-1.8303367333333487,-0.4835152666666658
-11.835752333333375,-1.6260794666666822,0.20585306666666756
-10.307014000000041,-1.421822200000016,0.8952214000000008
-10.30701400000004,-1.421822200000016,0.8952214000000008
-10.000628166666706,-1.6452286333333495,0.6718149900000007
-9.69424233333337,-1.8686350666666824,0.4484085800000008
-9.387856500000035,-2.0920415000000157,0.22500217000000078
-9.387856500000035,-2.092041500000015,0.22500217000000078
-9.518709000000037,-2.6186423333333484,0.18032089000000076
-9.649561500000038,-3.1452431666666816,0.13563961000000077
-9.780414000000038,-3.6718440000000148,0.09095833000000075
-10.374036666666704,-4.042060333333349,0.3143647333333341
-10.967659333333371,-4.412276666666681,0.5377711366666674
-11.561282000000036,-4.782493000000014,0.7611775400000008
-11.561282000000036,-4.782493000000014,0.7611775400000008
-11.561282000000036,-4.782493000000014,0.7611775400000008
-11.72404933333337,-5.034623000000014,0.6973471433333343
-11.886816666666705,-5.286753000000015,0.6335167466666676
-12.04958400000004,-5.538883000000016,0.5696863500000008
-12.69107966666671,-5.4463290000000155,0.6494743666666675
-13.332575333333375,-5.353775000000016,0.7292623833333342
-13.974071000000043,-5.261221000000015,0.8090504000000007
-13.974071000000043,-5.261221000000016,0.8090504000000007
-13.923006666666708,-4.654832166666683,0.2505343666666674
-13.871942333333374,-4.04844333333335,-0.3079816666666659
-13.820878000000041,-3.4420545000000167,-0.8664976999999991
-13.820878000000041,-3.4420545000000167,-0.8664976999999991
-14.653864666666708,-3.046306000000017,-1.0133075999999992
-15.486851333333375,-2.650557500000017,-1.1601174999999992
-16.31983800000004,-2.254809000000017,-1.3069273999999993
-16.319838000000036,-2.254809000000017,-1.3069273999999993
-15.490043000000037,-1.7633148866666837,-1.3292680666666659
-14.660248000000038,-1.2718207733333504,-1.3516087333333324
-13.83045300000004,-0.7803266600000173,-1.373949399999999
-13.83045300000004,-0.7803266600000173,-1.373949399999999
-12.687888666666707,-0.41011033000001723,-1.354800299999999
-11.545324333333374,-0.03989400000001723,-1.3356511999999992
-10.402760000000042,0.33032232999998273,-1.3165020999999992
-10.402760000000042,0.33032232999998273,-1.3165020999999992
-9.713391666666707,0.21542760633331606,-1.3324596999999991
-9.024023333333373,0.10053288266664939,-1.3484172999999993
-8.334655000000039,-0.01436184100001727,-1.3643748999999994
-8.334655000000039,-0.01436184100001727,-1.3643748999999996
-7.98039623333337,0.05585159933331607,-1.3707579333333328
-7.626137466666703,0.12606503966664942,-1.3771409666666663
-7.271878700000035,0.19627847999998274,-1.3835239999999995
-7.335709133333368,0.2633004066666494,-1.3962900666666662
-7.399539566666701,0.330322333333316,-1.4090561333333327
-7.463370000000034,0.39734425999998274,-1.4218221999999994
-7.463370000000034,0.39734425999998263,-1.4218221999999994
-8.270824666666703,0.2569173726666493,-1.4792695999999994
-9.07827933333337,0.116490485333316,-1.5367169999999992
-9.885734000000037,-0.023936402000017343,-1.5941643999999988
-9.885734000000037,-0.023936402000017343,-1.5941643999999986
-10.56233633333337,-1.061180434666684,-1.089904188333332
-11.238938666666703,-2.0984244673333508,-0.5856439766666653
-11.915541000000035,-3.1356685000000173,-0.08138376499999866
-11.915541000000035,-3.1356685000000173,-0.08138376499999866
-12.853847666666702,-2.7941758666666843,-0.442025543333332
-13.79215433333337,-2.4526832333333513,-0.8026673216666653
-14.730461000000036,-2.1111906000000182,-1.1633090999999987
-14.730461000000036,-2.1111906000000182,-1.1633090999999987
-14.025135333333369,-1.6739523333333513,-1.0164991666666652
-13.319809666666702,-1.2367140666666845,-0.8696892333333318
-12.614484000000035,-0.7994758000000175,-0.7228792999999983
-12.614484000000035,-0.7994758000000175,-0.7228792999999983
-11.455962000000035,-1.1505430333333508,-0.2441512799999983
-10.297440000000035,-1.5016102666666844,0.2345767400000017
-9.138918000000034,-1.8526775000000175,0.7133047600000016
-9.451687000000033,-2.1175736666666842,0.42606794333333503
-9.764456000000035,-2.3824698333333507,0.13883112666666841
-10.077225000000036,-2.647366000000017,-0.14840568999999826
-10.077225000000036,-2.647366000000017,-0.14840568999999826
-10.077225000000036,-2.647366000000017,-0.14840568999999826
-10.536803666666705,-2.8867300000000173,0.12925657333333507
-10.996382333333372,-3.1260940000000175,0.40691883666666834
-11.45596100000004,-3.3654580000000176,0.6845811000000017
-11.803837000000039,-3.652694866666684,0.8409656000000018
-12.151713000000038,-3.9399317333333506,0.9973501000000017
-12.499589000000038,-4.227168600000017,1.1537346000000017
-12.499589000000038,-4.227168600000017,1.1537346000000017
-12.247458666666704,-4.5527035666666835,1.1505430666666685
-11.99532833333337,-4.878238533333351,1.1473515333333353
-11.743198000000037,-5.203773500000018,1.144160000000002
-11.743198000000037,-5.203773500000018,1.144160000000002
-11.851709666666705,-5.379307100000017,0.9175620566666686
-11.960221333333372,-5.554840700000017,0.6909641133333352
-12.068733000000039,-5.730374300000015,0.46436617000000174
-12.068733000000039,-5.730374300000015,0.46436617000000185
-13.192148333333373,-4.958026466666683,-0.12606501999999817
-14.315563666666707,-4.18567863333335,-0.7164962099999981
-15.43897900000004,-3.4133308000000184,-1.3069273999999982
-15.43897900000004,-3.4133308000000184,-1.3069273999999982
-15.806003333333374,-2.8228996000000186,-1.3228850333333313
-16.17302766666671,-2.2324684000000183,-1.3388426666666646
-16.540052000000042,-1.6420372000000185,-1.354800299999998
