accx,accy,accz
14.586843,-3.5760984,1.79523
14.586843,-3.5760984,1.79523
14.586843,-3.5760984,1.79523
14.586843,-3.5760984,1.79523
15.212380999999999,-4.820791266666667,1.8462943333333335
15.837919,-6.065484133333334,1.8973586666666666
16.463457000000002,-7.310177,1.948423
16.463457000000002,-7.310177,1.948423
14.800674999999998,-6.9910249,2.1782124666666665
13.137892999999996,-6.6718728,2.408001933333333
11.475110999999993,-6.3527207,2.6377913999999993
11.475110999999993,-6.3527207,2.6377913999999993
11.155958666666661,-5.203773466666667,2.8739639333333327
10.836806333333328,-4.054826233333333,3.1101364666666664
10.517653999999995,-2.905879,3.3463089999999998
10.517653999999995,-2.905879,3.3463089999999998
10.517653999999995,-2.905879,3.3463089999999998
10.01020233333333,-2.0792753166666667,3.2537549
9.502750666666664,-1.2526716333333332,3.1612008
8.995298999999997,-0.42606794999999975,3.0686467000000004
8.998490666666664,-0.4835152999999997,2.8133250333333337
9.00168233333333,-0.5409626499999998,2.5580033666666675
9.004873999999996,-0.5984099999999998,2.302681700000001
9.004873999999996,-0.5984099999999999,2.302681700000001
9.193173666666661,-0.9430941666666666,2.238851333333334
9.381473333333327,-1.2877783333333332,2.175020966666667
9.569772999999993,-1.6324625,2.1111906000000005
9.569772999999993,-1.6324625,2.1111906000000005
9.569772999999993,-1.6324625,2.1111906000000005
9.681475999999995,-1.3548002666666665,2.165446466666667
9.793178999999995,-1.0771380333333331,2.2197023333333328
9.904881999999995,-0.7994757999999997,2.273958199999999
9.917648333333327,-0.6079845899999996,2.3090648666666658
9.930414666666659,-0.41649337999999964,2.344171533333333
9.94318099999999,-0.22500216999999959,2.3792781999999995
9.94318099999999,-0.22500216999999959,2.3792782
9.888925333333322,-0.4962813799999996,2.2739580666666668
9.834669666666654,-0.7675605899999995,2.168637933333333
9.780413999999988,-1.0388397999999996,2.0633178
9.780413999999986,-1.0388397999999996,2.0633178
9.780413999999986,-1.0388397999999996,2.0633178
9.716583499999986,-1.0388397999999996,2.088849966666667
9.652752999999988,-1.0388397999999996,2.114382133333334
9.588922499999988,-1.0388397999999996,2.139914300000001
9.63679533333332,-1.029265233333333,2.1654464666666677
9.684668166666652,-1.0196906666666665,2.190978633333334
9.732540999999983,-1.0101161,2.216510800000001
9.732540999999983,-1.0101161,2.2165108000000013
9.735732333333317,-1.0388397666666664,2.1941702000000016
9.73892366666665,-1.0675634333333333,2.171829600000002
9.742114999999984,-1.0962870999999998,2.149489000000002
9.742114999999984,-1.0962871,2.149489000000002
9.742114999999984,-1.0962871,2.149489000000002
9.796370666666652,-1.1569260000000001,2.1239568000000024
9.850626333333318,-1.2175649000000004,2.098424600000002
9.904881999999986,-1.2782038000000004,2.072892400000002
9.904881999999986,-1.2782038000000007,2.072892400000002
9.857009666666654,-1.3388426666666673,2.111190600000002
9.80913733333332,-1.399481533333334,2.1494888000000016
9.761264999999987,-1.4601204000000008,2.1877870000000015
9.796371666666653,-1.4250137000000007,2.2228937666666675
9.83147833333332,-1.3899070000000007,2.258000533333334
9.866584999999986,-1.3548003000000006,2.2931073000000004
9.866584999999986,-1.3548003000000006,2.2931073000000004
9.866584999999986,-1.3548003000000006,2.2931073000000004
9.860201666666654,-1.3484172666666672,2.258000533333334
9.853818333333322,-1.342034233333334,2.2228937666666675
9.84743499999999,-1.3356512000000007,2.1877870000000015
9.847434999999992,-1.3356512000000007,2.1877870000000015
9.834668999999993,-1.3356512000000007,2.1654464000000018
9.821902999999994,-1.3356512000000007,2.143105800000002
9.809136999999994,-1.3356512000000007,2.1207652000000023
9.783604999999994,-1.2877784000000008,2.1239566666666687
9.758072999999994,-1.239905600000001,2.127148133333335
9.732540999999992,-1.1920328000000013,2.130339600000002
9.732540999999992,-1.1920328000000013,2.130339600000002
9.732540999999992,-1.1920328000000013,2.130339600000002
9.777222333333327,-1.2941614333333347,2.1048074333333355
9.821903666666662,-1.396290066666668,2.0792752666666687
9.866584999999995,-1.4984187000000013,2.0537431000000015
9.866584999999995,-1.4984187000000013,2.0537431000000015
9.793179999999994,-1.466503500000001,2.098424400000001
9.719774999999993,-1.4345883000000008,2.1431057000000013
9.646369999999992,-1.4026731000000006,2.1877870000000015
9.671901999999994,-1.4218222000000005,2.2197022000000017
9.697433999999994,-1.4409713000000004,2.251617400000002
9.722965999999994,-1.4601204000000003,2.2835326000000022
9.722965999999994,-1.4601204000000003,2.2835326000000022
9.722965999999994,-1.4601204000000003,2.2835326000000022
9.719774333333328,-1.4760780000000002,2.2835326000000022
9.716582666666662,-1.4920356000000001,2.2835326000000022
9.713390999999996,-1.5079931999999998,2.2835326000000022
9.671901499999997,-1.5590575333333334,2.2580004333333354
9.630411999999998,-1.610121866666667,2.2324682666666686
9.588922499999997,-1.6611862000000006,2.2069361000000014
9.588922499999997,-1.6611862000000006,2.2069361000000014
9.614454666666662,-1.619696433333334,2.2037446333333346
9.639986833333326,-1.5782066666666672,2.200553166666668
9.66551899999999,-1.5367169000000003,2.1973617000000014
9.66551899999999,-1.5367169000000003,2.1973617000000014
9.633603666666657,-1.562249066666667,2.1686380000000014
9.601688333333325,-1.5877812333333337,2.1399143000000014
9.569772999999993,-1.6133134000000002,2.111190600000002
9.569772999999993,-1.6133134000000002,2.111190600000002
9.569772999999993,-1.6133134000000002,2.111190600000002
9.604879999999994,-1.5941643000000003,2.098424533333335
9.639986999999996,-1.5750152000000004,2.0856584666666684
9.675093999999996,-1.5558661000000005,2.072892400000002
9.703817666666664,-1.5271424000000005,2.0473602000000017
9.73254133333333,-1.4984187000000002,2.0218280000000015
9.761264999999996,-1.469695,1.9962958000000015
9.761264999999996,-1.469695,1.9962958000000015
9.722966666666663,-1.4377798000000002,2.0154449000000016
9.684668333333327,-1.4058646000000001,2.0345940000000016
9.646369999999992,-1.3739494,2.0537431000000015
9.646369999999992,-1.3739494,2.0537431000000015
9.646369999999992,-1.3739494,2.0537431000000015
9.684668333333327,-1.380332466666667,2.0697007333333346
9.722966666666663,-1.3867155333333336,2.0856583666666677
9.761264999999996,-1.3930986000000003,2.1016160000000013
9.82509533333333,-1.4090562000000002,2.123956666666668
9.888925666666664,-1.4250138000000003,2.1462973333333344
9.952755999999995,-1.4409714000000005,2.168638000000001
9.952755999999995,-1.4409714000000005,2.168638000000001
9.952755999999995,-1.4409714000000005,2.168638000000001
9.952755999999995,-1.4409714000000005,2.168638000000001
9.952755999999995,-1.4409714000000005,2.168638000000001
9.952755999999995,-1.4409714000000005,2.168638000000001
9.86339333333333,-1.4313968333333336,2.2037447333333344
9.774030666666663,-1.421822266666667,2.2388514666666683
9.684667999999997,-1.4122477,2.2739582000000023
9.697433999999996,-1.4856526333333333,2.254809066666669
9.710199999999995,-1.5590575666666666,2.235659933333335
9.722965999999994,-1.6324625,2.2165108000000013
9.722965999999994,-1.6324625,2.2165108000000013
9.694242333333328,-1.6324625,2.1654464666666677
9.665518666666662,-1.6324625,2.1143821333333346
9.636794999999994,-1.6324625,2.0633178000000014
9.636794999999994,-1.6324625,2.0633178000000014
9.636794999999994,-1.6324625,2.0633178000000014
9.72296616666666,-1.6292710000000001,1.9931043666666681
9.809137333333327,-1.6260795000000003,1.9228909333333348
9.895308499999993,-1.6228880000000006,1.8526775000000015
9.895308499999993,-1.6228880000000008,1.8526775000000015
9.770838999999995,-1.6260795000000006,1.8526775000000015
9.646369499999997,-1.6292710000000004,1.8526775000000015
9.521899999999997,-1.6324625000000001,1.8526775000000015
9.58573033333333,-1.5590575666666668,1.9228909333333348
9.649560666666664,-1.4856526333333335,1.9931043666666681
9.713390999999996,-1.4122477000000002,2.0633178000000014
9.713390999999996,-1.4122477000000002,2.0633178000000014
9.732540333333331,-1.4856526333333335,2.095232966666668
9.751689666666664,-1.5590575666666668,2.127148133333334
9.770838999999997,-1.6324625000000001,2.159063300000001
9.770838999999997,-1.6324625000000001,2.159063300000001
9.74211533333333,-1.6675692333333336,2.1973616000000007
9.713391666666665,-1.7026759666666669,2.2356599000000004
9.684667999999997,-1.7377827000000001,2.2739582000000005
9.684667999999997,-1.7377826999999997,2.2739582
9.700625666666662,-1.7026759666666667,2.2643836333333334
9.716583333333327,-1.6675692333333334,2.2548090666666663
9.732540999999992,-1.6324625000000001,2.2452344999999996
9.732540999999992,-1.6324625000000001,2.245234499999999
9.732540999999992,-1.6324625000000001,2.245234499999999
9.72615766666666,-1.6739523,2.222893799999999
9.719774333333328,-1.7154421000000004,2.2005530999999987
9.713390999999996,-1.7569319000000005,2.1782123999999983
9.774030166666662,-1.740974266666667,2.226085266666665
9.834669333333329,-1.7250166333333337,2.273958133333332
9.895308499999993,-1.7090590000000005,2.321830999999998
9.895308499999993,-1.7090590000000005,2.321830999999998
9.863392999999995,-1.6643777333333338,2.289915733333332
9.831477499999997,-1.6196964666666673,2.2580004666666653
9.799561999999996,-1.5750152000000008,2.2260851999999987
9.799561999999996,-1.5750152000000008,2.2260851999999987
9.799561999999996,-1.5750152000000008,2.2260851999999987
9.761263999999997,-1.5877812666666673,2.181403966666666
9.722965999999998,-1.600547333333334,2.1367227333333325
9.684667999999997,-1.6133134000000007,2.092041499999999
9.630411999999998,-1.6356540666666672,2.0314025999999994
9.576155999999997,-1.6579947333333338,1.9707636999999991
9.521899999999997,-1.6803354000000004,1.910124799999999
9.521899999999997,-1.6803354000000004,1.910124799999999
9.569772999999998,-1.6548032333333336,1.9165078666666655
9.617645999999999,-1.629271066666667,1.922890933333332
9.665518999999998,-1.6037389000000004,1.9292739999999984
9.665519,-1.6037389000000004,1.9292739999999984
9.662327333333334,-1.6548032333333336,1.8909757333333317
9.659135666666668,-1.705867566666667,1.852677466666665
9.655944000000002,-1.7569319000000003,1.8143791999999983
9.655944000000003,-1.7569319000000003,1.8143791999999983
9.66871016666667,-1.7441658333333336,1.8367198666666649
9.681476333333338,-1.731399766666667,1.8590605333333314
9.694242500000007,-1.7186337000000005,1.881401199999998
9.694242500000007,-1.7186337000000005,1.881401199999998
9.691051000000007,-1.7441658000000004,1.9643806666666646
9.687859500000007,-1.7696979000000006,2.047360133333331
9.684668000000007,-1.7952300000000008,2.130339599999998
9.684668000000007,-1.7952300000000008,2.130339599999998
9.662327333333339,-1.8016130666666674,2.1845954999999977
9.639986666666672,-1.807996133333334,2.2388513999999975
9.617646000000006,-1.814379200000001,2.2931072999999977
9.617646000000006,-1.814379200000001,2.2931072999999977
9.630412000000005,-1.8207622333333342,2.2931072999999977
9.643178000000004,-1.8271452666666674,2.2931072999999977
9.655944000000003,-1.8335283000000009,2.2931072999999977
9.655944000000003,-1.8335283000000009,2.2931072999999977
9.67828466666667,-1.8654435333333341,2.2803411999999983
9.700625333333337,-1.8973587666666676,2.2675750999999984
9.722966000000005,-1.929274000000001,2.2548089999999985
9.722966000000005,-1.9292740000000013,2.2548089999999985
9.764455666666672,-1.938848533333335,2.2165107666666652
9.80594533333334,-1.9484230666666686,2.1782125333333315
9.84743500000001,-1.9579976000000023,2.139914299999998
9.84743500000001,-1.9579976000000023,2.139914299999998
9.774030000000009,-1.9228909000000023,2.155871866666664
9.700625000000008,-1.8877842000000022,2.1718294333333303
9.627220000000007,-1.8526775000000022,2.187786999999997
9.627220000000007,-1.8526775000000022,2.1877869999999966
9.595305000000005,-1.8526775000000022,2.1973615999999967
9.563390000000005,-1.8526775000000022,2.2069361999999964
9.531475000000006,-1.8526775000000022,2.2165107999999965
9.531475000000006,-1.8526775000000022,2.2165107999999965
9.550624166666672,-1.9101248666666688,2.1718294666666633
9.56977333333334,-1.9675722333333354,2.12714813333333
9.588922500000008,-2.025019600000002,2.082466799999997
9.588922500000008,-2.025019600000002,2.082466799999997
9.665518666666673,-2.009061966666669,2.09523293333333
9.74211483333334,-1.9931043333333356,2.107999066666663
9.818711000000006,-1.9771467000000023,2.1207651999999957
9.793179000000004,-2.0409771333333353,2.1239566666666625
9.767647000000004,-2.1048075666666684,2.1271481333333293
9.742115000000004,-2.1686380000000014,2.130339599999996
9.742115000000004,-2.1686380000000014,2.130339599999996
9.713391333333336,-2.1877870666666683,2.1462971999999962
9.68466766666667,-2.206936133333335,2.1622547999999964
9.655944000000003,-2.2260852000000018,2.1782123999999965
9.655944000000003,-2.2260852000000018,2.1782123999999965
9.569773000000003,-2.1622548000000017,2.21331913333333
9.483602000000003,-2.098424400000002,2.2484258666666634
9.397431000000003,-2.034594000000002,2.2835325999999974
9.397431000000003,-2.034594000000002,2.283532599999998
9.330409000000003,-2.0058703333333354,2.261191999999998
9.263387000000003,-1.9771466666666686,2.2388513999999984
9.196365000000005,-1.9484230000000018,2.2165107999999987
9.196365000000005,-1.9484230000000018,2.2165107999999987
9.327217500000005,-1.989912800000002,2.194170199999999
9.458070000000006,-2.031402600000002,2.1718295999999992
9.588922500000008,-2.0728924000000024,2.1494889999999995
9.588922500000008,-2.0728924000000024,2.149489
9.614454666666672,-2.031402600000002,2.203744766666667
9.639986833333337,-1.989912800000002,2.2580005333333335
9.665519000000002,-1.9484230000000018,2.3122563000000005
9.665519,-1.9484230000000018,2.312256300000001
9.627220666666664,-1.9260824000000019,2.312256300000001
9.58892233333333,-1.9037418000000017,2.312256300000001
9.550623999999996,-1.8814012000000018,2.312256300000001
9.585730666666663,-1.8558690333333352,2.3058733000000005
9.620837333333329,-1.8303368666666684,2.2994903000000004
9.655943999999996,-1.8048047000000018,2.2931073000000004
9.655943999999996,-1.8048047000000018,2.2931073000000004
9.655943999999996,-1.8048047000000018,2.2931073000000004
9.598496999999997,-1.8239538000000017,2.328214033333334
9.541049999999998,-1.8431029000000017,2.363320766666668
9.483603,-1.8622520000000016,2.3984275000000017
9.483603,-1.8622520000000016,2.3984275000000017
9.572965333333334,-1.935656933333335,2.449491733333335
9.662327666666664,-2.0090618666666686,2.5005559666666684
9.751689999999996,-2.0824668000000024,2.5516202000000017
9.802753999999997,-2.1973615333333356,2.6377913000000017
9.853817999999999,-2.312256266666669,2.723962400000002
9.904881999999999,-2.427151000000002,2.8101335000000023
9.904882,-2.427151000000002,2.8101335000000027
9.904882,-2.427151000000002,2.8101335000000027
10.093182,-2.8994960000000023,3.0016246666666695
10.281482000000002,-3.371841000000002,3.193115833333336
10.469782000000002,-3.8441860000000023,3.3846070000000026
10.469782000000002,-3.8441860000000023,3.3846070000000026
10.220843333333335,-4.204827666666669,3.8505690000000024
9.971904666666667,-4.565469333333335,4.316531000000002
9.722966,-4.9261110000000015,4.782493000000002
9.722966,-4.9261110000000015,4.782493000000002
9.078279,-5.092070100000002,4.913345333333336
8.433591999999999,-5.258029200000003,5.044197666666669
7.788905,-5.423988300000004,5.175050000000002
7.788905,-5.423988300000004,5.175050000000002
6.761235466666666,-6.119739866666669,5.12398566666667
5.733565933333334,-6.815491433333334,5.072921333333337
4.705896399999999,-7.5112429999999994,5.021857000000004
4.7058964,-7.511242999999998,5.021857000000004
3.630354133333334,-8.55487,5.331434333333338
2.554811866666667,-9.598497,5.641011666666671
1.4792696000000003,-10.642124,5.950589000000004
1.4792696000000003,-10.642124,5.950589000000004
1.7250166666666669,-12.818740666666665,6.039951666666671
1.9707637333333334,-14.995357333333331,6.129314333333337
2.2165108,-17.171973999999995,6.218677000000003
2.2165108,-17.171974,6.218677000000003
6.445274866666668,-17.979428333333335,6.218677000000003
10.674038933333334,-18.786882666666667,6.218677000000003
14.902802999999999,-19.594337000000003,6.218677000000003
14.902802999999999,-19.594337000000007,6.218677000000003
15.116635,-16.64856433333334,4.463340933333337
15.330467,-13.702791666666675,2.7080048666666703
15.544299000000002,-10.757019000000009,0.9526688000000038
15.544299000000002,-10.757019000000009,0.9526688000000038
12.707037533333335,-5.047389333333342,-2.1814041333333294
9.869776066666667,0.6622403333333248,-5.315477066666663
7.032514599999999,6.3718699999999915,-8.449549999999997
7.032514599999999,6.3718699999999915,-8.449549999999995
10.938935066666666,10.782550666666658,-8.759127333333327
14.845355533333333,15.193231333333324,-9.06870466666666
18.751776,19.60391199999999,-9.378281999999992
18.751776,19.60391199999999,-9.378281999999992
19.03262966666667,11.921923166666659,-7.137834833333325
19.313483333333334,4.239934333333326,-4.897387666666658
19.594337000000003,-3.442054500000008,-2.656940499999991
19.594337000000007,-3.442054500000008,-2.656940499999991
19.14752433333334,-8.826148666666674,1.1345853333333427
18.700711666666678,-14.210242833333341,4.926111166666676
18.253899000000015,-19.59433700000001,8.717637000000009
18.253899000000015,-19.59433700000001,8.717637000000009
10.284673333333346,-17.574105000000014,7.0548550666666765
2.3154476666666794,-15.553873000000015,5.392073133333344
-5.6537779999999875,-13.533641000000017,3.7292912000000116
-5.6537779999999875,-13.533641000000017,3.7292912000000116
-10.303822666666653,-11.347449666666686,2.526088136666678
-14.95386733333332,-9.161258333333354,1.3228850733333446
-19.603911999999983,-6.975067000000021,0.11968201000001111
-19.603911999999983,-6.975067000000021,0.11968201000001111
-17.85815066666665,-9.649560833333352,0.7675606066666778
-16.112389333333315,-12.324054666666685,1.4154392033333447
-14.366627999999979,-14.998548500000018,2.063317800000011
-14.366627999999979,-14.998548500000018,2.063317800000011
-3.5633323333333133,-16.530478000000016,6.617616866666677
7.239963333333353,-18.062407500000017,11.171915933333345
18.043259000000017,-19.594337000000014,15.726215000000012
18.043259000000017,-19.594337000000014,15.726215000000016
18.560285000000018,-17.93155533333335,8.286781666666682
19.07731100000002,-16.268773666666686,0.8473483333333492
19.59433700000002,-14.60599200000002,-6.592084999999984
19.594337000000024,-14.60599200000002,-6.592084999999984
19.45391066666669,-4.332488666666687,-10.929360666666653
19.31348433333336,5.941014666666646,-15.266636333333318
19.173058000000026,16.21451799999998,-19.60391199999999
19.173058000000026,16.21451799999998,-19.60391199999999
19.22093033333336,16.820906666666644,-19.23369566666666
19.268802666666698,17.42729533333331,-18.863479333333327
19.316675000000032,18.033683999999976,-18.493262999999995
19.316675000000032,18.033683999999973,-18.493263
19.40922900000003,5.589946999999974,-11.092127966666666
19.501783000000028,-6.853790000000026,-3.690992933333334
19.594337000000024,-19.297527000000027,3.710142099999999
19.594337000000024,-19.297527000000027,3.710142099999999
17.140058333333357,-19.12837633333336,7.389964733333334
14.68577966666669,-18.959225666666693,11.069787366666668
12.231501000000023,-18.790075000000027,14.749610000000004
1.6516116666666896,-13.240021433333359,9.467644300000005
-8.928277666666643,-7.6899678666666915,4.185678600000004
-19.50816699999998,-2.1399143000000245,-1.096287099999996
-19.508166999999982,-2.139914300000025,-1.0962870999999959
-19.508166999999982,-2.139914300000025,-1.0962870999999959
-19.54008199999998,-4.032485666666691,-3.563332066666663
-19.57199699999998,-5.925057033333357,-6.0303770333333295
-19.603911999999976,-7.817628400000024,-8.497421999999995
-19.603911999999973,-7.817628400000024,-8.497421999999995
-12.579376333333306,-11.743197933333358,-0.06542566666666143
-5.554840666666638,-15.668767466666688,8.366570666666673
1.4696950000000293,-19.59433700000002,16.798567000000006
1.4696950000000293,-19.59433700000002,16.798567000000006
7.511242333333361,-19.59433700000002,16.89750366666667
13.552789666666692,-19.59433700000002,16.996440333333336
19.594337000000024,-19.59433700000002,17.095377
19.594337000000024,-19.59433700000002,17.095377
19.575188000000026,-15.521957566666686,7.310176666666666
19.556039000000027,-11.449578133333352,-2.475023666666667
19.536890000000028,-7.377198700000019,-12.260224
19.536890000000028,-7.377198700000019,-12.260224
19.259227666666693,1.456929199999981,-14.70812
18.98156533333336,10.29105709999998,-17.156015999999997
18.703903000000025,19.12518499999998,-19.603911999999998
18.703903000000025,19.125184999999977,-19.603911999999998
18.866671000000025,16.677288999999977,-17.57410533333333
19.029439000000025,14.229392999999979,-15.544298666666661
19.192207000000025,11.781496999999979,-13.514491999999992
19.192207000000025,11.781496999999979,-13.51449199999999
19.32625033333336,1.3228856666666449,-5.75909799999999
19.46029366666669,-9.135725666666689,1.9962960000000105
19.594337000000024,-19.59433700000002,9.75169000000001
19.594337000000024,-19.594337000000024,9.751690000000009
17.411337666666693,-19.46348466666669,10.983616666666677
15.22833833333336,-19.33263233333336,12.215543333333343
13.045339000000027,-19.201780000000028,13.44747000000001
13.045339000000027,-19.201780000000028,13.44747000000001
2.5197060000000273,-14.491096666666694,8.283590433333343
-8.005926999999973,-9.780413333333362,3.119710866666677
-18.53155999999997,-5.069730000000028,-2.0441686999999895
-18.53155999999997,-5.069730000000028,-2.0441686999999895
-18.53155999999997,-5.069730000000028,-2.0441686999999895
-18.53155999999997,-5.069730000000028,-2.0441686999999895
-18.53155999999997,-5.069730000000028,-2.0441686999999895
-18.53155999999997,-5.069730000000028,-2.0441686999999895
-11.267660733333303,-9.911265666666695,4.728236866666677
-4.003761466666638,-14.752801333333364,11.500642433333345
3.2601378000000287,-19.59433700000003,18.273048000000014
8.704870866666695,-19.5911456666667,14.625140666666681
14.14960393333336,-19.587954333333368,10.97723333333335
19.594337000000028,-19.584763000000034,7.329326000000017
19.594337000000028,-19.584763000000034,7.329326000000017
19.594337000000028,-19.584763000000034,7.329326000000017
19.559230333333364,-12.2251176666667,-0.560111666666649
19.5241236666667,-4.865472333333366,-8.449549333333314
19.489017000000036,2.4941729999999667,-16.33898699999998
19.489017000000036,2.4941729999999667,-16.338986999999978
19.17944000000004,8.1974193333333,-17.42729533333331
18.869863000000038,13.900665666666635,-18.515603666666646
18.560286000000037,19.60391199999997,-19.60391199999998
18.560286000000037,19.603911999999973,-19.603911999999983
18.9049696666667,13.361298766666637,-17.752830666666647
19.249653333333367,7.118685533333303,-15.901749333333312
19.594337000000028,0.8760722999999698,-14.050667999999979
19.594337000000028,0.8760722999999698,-14.050667999999979
19.57518800000003,-5.947397466666697,-4.409085333333311
19.55603900000003,-12.770867233333362,5.232497333333355
19.53689000000003,-19.594337000000028,14.87408000000002
19.53689000000003,-19.594337000000028,14.87408000000002
13.536832300000034,-18.936884333333364,12.324055233333354
7.536774600000034,-18.279431666666696,9.774030466666687
1.536716900000035,-17.621979000000028,7.224005700000021
1.536716900000035,-17.621979000000028,7.224005700000021
-5.510159399999966,-15.818770000000029,2.1622548000000203
-12.557035699999966,-14.015561000000028,-2.8994960999999795
-19.60391199999997,-12.21235200000003,-7.961246999999979
-19.60391199999997,-12.21235200000003,-7.961246999999979
-16.795374333333303,-14.523012333333364,-3.119710999999979
-13.986836666666635,-16.8336726666667,1.7218250000000213
-11.178298999999969,-19.144333000000035,6.563361000000022
-11.178298999999969,-19.144333000000035,6.563361000000022
-1.1026699999999696,-19.294334333333367,9.914457333333354
8.97295900000003,-19.4443356666667,13.265553666666689
19.04858800000003,-19.594337000000028,16.61665000000002
19.048588000000034,-19.594337000000028,16.616650000000018
19.230504333333368,-17.596445666666696,8.181462333333352
19.4124206666667,-15.598554333333363,-0.25372533333331465
19.594337000000035,-13.600663000000031,-8.688912999999982
19.594337000000035,-13.600663000000031,-8.688912999999983
19.4315696666667,-2.8292826666666975,-12.327245999999983
19.268802333333365,7.942097666666636,-15.965578999999984
19.10603500000003,18.713477999999967,-19.603911999999983
19.106035000000027,18.713477999999967,-19.603911999999983
19.15709933333336,16.9485673333333,-18.72624466666665
19.208163666666696,15.183656666666636,-17.848577333333314
19.25922800000003,13.41874599999997,-16.97090999999998
19.25922800000003,13.41874599999997,-16.970909999999975
19.37093100000003,2.4143849999999705,-7.15379366666664
19.48263400000003,-8.58997600000003,2.663322666666693
19.59433700000003,-19.594337000000028,12.480439000000027
19.594337000000035,-19.594337000000028,12.480439000000027
16.016643333333366,-19.437953000000032,13.166616000000028
12.438949666666701,-19.281569000000033,13.852793000000029
8.861256000000035,-19.125185000000034,14.53897000000003
8.861256000000035,-19.125185000000034,14.53897000000003
-0.19627799999996456,-13.830452900000035,7.559115400000032
-9.253811999999963,-8.535720800000037,0.5792608000000316
-18.31134599999996,-3.240988700000037,-6.400593799999968
-18.31134599999996,-3.240988700000037,-6.400593799999968
-18.742201333333295,-3.339925800000037,-5.136751766666635
-19.173056666666625,-3.438862900000036,-3.872909733333303
-19.603911999999955,-3.537800000000036,-2.60906769999997
-19.603911999999955,-3.537800000000035,-2.60906769999997
-14.321946333333287,-8.889979000000034,4.504830866666697
-9.03998066666662,-14.242158000000034,11.618729433333362
-3.758014999999953,-19.594337000000035,18.732628000000027
-3.758014999999953,-19.59433700000004,18.732628000000027
4.02610233333338,-19.59433700000004,17.031547666666693
11.810219666666713,-19.59433700000004,15.330467333333361
19.59433700000005,-19.59433700000004,13.62938700000003
19.59433700000005,-19.59433700000004,13.62938700000003
19.59433700000005,-13.817685866666707,3.53460900000003
19.59433700000005,-8.041034733333374,-6.56016899999997
19.59433700000005,-2.2643836000000412,-16.65494699999997
19.59433700000005,-2.2643836000000412,-16.65494699999997
18.435815666666716,5.025048266666626,-17.637935333333306
17.277294333333387,12.314480133333292,-18.620923666666638
16.118773000000058,19.603911999999962,-19.603911999999973
16.118773000000058,19.603911999999962,-19.603911999999973
17.277294333333387,12.818740333333295,-16.773033999999974
18.435815666666716,6.0335686666666275,-13.942155999999974
19.59433700000005,-0.7516030000000397,-11.111277999999972
19.59433700000005,-0.7516030000000397,-11.111277999999972
19.37731400000005,-7.032514333333373,-1.0994793333333057
19.160291000000054,-13.313425666666705,8.912319333333361
18.943268000000057,-19.59433700000004,18.924118000000025
18.943268000000057,-19.59433700000004,18.92411800000003
11.937881200000055,-17.42091200000004,15.793237000000032
4.932494400000054,-15.24748700000004,12.662356000000031
-2.072892399999946,-13.07406200000004,9.53147500000003
-2.072892399999946,-13.07406200000004,9.53147500000003
-2.072892399999946,-13.07406200000004,9.53147500000003
-7.916565599999946,-8.679338852000042,3.758015000000031
-13.760238799999946,-4.284615704000041,-2.0154449999999695
-19.603911999999948,0.11010744399995905,-7.78890499999997
-19.03901333333328,-4.447383370666707,-4.233551566666636
-18.474114666666615,-9.004874185333374,-0.6781981333333018
-17.90921599999995,-13.56236500000004,2.877155300000032
-17.909215999999955,-13.56236500000004,2.877155300000032
-8.302739999999952,-15.573022333333375,8.449549200000034
1.3037360000000475,-17.583679666666708,14.021943100000035
10.91021200000005,-19.59433700000004,19.594337000000035
10.91021200000005,-19.59433700000004,19.594337000000035
13.80492033333338,-18.79326600000004,13.268744376666698
16.69962866666671,-17.99219500000004,6.943151753333364
19.594337000000042,-17.191124000000045,0.6175591300000308
19.594337000000042,-17.191124000000045,0.6175591300000308
19.450719000000046,-6.936769666666712,-5.2356885799999695
19.307101000000046,3.317584666666622,-11.08893628999997
19.163483000000046,13.571938999999956,-16.942183999999965
19.163483000000046,13.571938999999956,-16.94218399999997
18.311347000000044,15.582596666666623,-16.74430999999997
17.459211000000042,17.59325433333329,-16.54643599999997
16.60707500000004,19.603911999999955,-16.348561999999973
16.60707500000004,19.603911999999955,-16.348561999999973
17.602829000000042,9.767647333333286,-11.765539099999971
18.598583000000044,-0.06861733333338076,-7.182516199999971
19.594337000000042,-9.904882000000049,-2.5994932999999705
19.594337000000042,-9.904882000000049,-2.59949329999997
19.016672333333375,-13.13470033333338,3.5505661333333634
18.439007666666708,-16.36451866666671,9.700625566666696
17.861343000000037,-19.594337000000042,15.850685000000029
17.861343000000037,-19.594337000000042,15.850685000000029
8.446358333333373,-14.893228000000045,11.050638633333364
-0.9686263333332921,-10.192119000000046,6.250592266666698
-10.383610999999958,-5.491010000000046,1.4505459000000318
-10.383610999999958,-5.491010000000046,1.4505459000000318
-13.457044666666624,-2.17182933333338,-1.4856527333333016
-16.53047833333329,1.147351333333287,-4.421851366666635
-19.603911999999955,4.466531999999954,-7.358049999999968
-19.603911999999955,4.466531999999954,-7.358049999999968
-19.603911999999955,4.466531999999954,-7.358049999999968
-18.36560233333329,-2.3218313333333795,-3.6048221666666347
-17.127292666666623,-9.110194666666713,0.14840566666669877
-15.888982999999955,-15.898558000000046,3.9016335000000324
-5.944206333333291,-17.130484333333378,9.132534666666698
4.000570333333375,-18.36241066666671,14.363435833333364
13.94534700000004,-19.594337000000046,19.594337000000028
13.94534700000004,-19.59433700000005,19.594337000000028
15.828343666666706,-18.43900700000005,13.323000220000031
17.71134033333337,-17.283677000000054,7.051663440000031
19.59433700000004,-16.12834700000006,0.7803266600000308
19.59433700000004,-16.12834700000006,0.7803266600000308
19.59433700000004,-16.12834700000006,0.7803266600000308
19.25922733333337,-6.183570333333392,-5.765481559999969
18.924117666666707,3.7612063333332753,-12.311289779999969
18.589008000000046,13.705982999999941,-18.85709799999997
17.66985033333338,15.671959333333277,-18.31773099999997
16.750692666666712,17.63793566666661,-17.77836399999997
15.831535000000043,19.603911999999944,-17.238996999999973
15.831535000000043,19.603911999999944,-17.238996999999973
15.831535000000043,19.603911999999944,-17.238996999999973
17.085802333333376,8.20699366666661,-10.594251733333307
18.340069666666707,-3.1899246666667236,-3.949506466666641
19.59433700000004,-14.586843000000059,2.6952388000000265
18.544327000000038,-16.256007666666722,7.137834866666694
17.49431700000004,-17.92517233333339,11.58043093333336
16.444307000000048,-19.594337000000053,16.023027000000027
16.444307000000048,-19.594337000000053,16.023027000000027
7.610179333333382,-15.898557000000054,10.070841900000028
-1.2239483333332852,-12.202777000000054,4.1186568000000285
-10.058075999999952,-8.506997000000053,-1.833528299999971
-10.058075999999952,-8.506997000000055,-1.833528299999971
-13.240021333333287,-4.929302933333388,-4.677172866666638
-16.42196666666662,-1.3516088666667219,-7.5208174333333035
-19.60391199999995,2.226085199999945,-10.36446199999997
-19.603911999999955,2.226085199999945,-10.36446199999997
-17.957087999999953,-3.780355866666722,-4.552703766666635
-16.310263999999954,-9.78679693333339,1.2590544666666983
-14.663439999999953,-15.793238000000057,7.070812700000032
-14.663439999999953,-15.793238000000057,7.070812700000032
-4.1665299999999545,-17.060271000000057,11.24532080000003
6.330380000000044,-18.327304000000055,15.419828900000027
16.827290000000044,-19.594337000000053,19.594337000000024
16.827290000000044,-19.594337000000053,19.594337000000024
17.749639000000048,-16.935801000000055,12.531503200000026
18.67198800000005,-14.277265000000057,5.468669400000028
19.59433700000005,-11.618729000000059,-1.594164399999972
19.594337000000053,-11.618729000000059,-1.594164399999972
19.594337000000053,-11.618729000000059,-1.594164399999972
18.984756666666723,-2.1048076666667246,-6.413359599999971
18.37517633333339,7.4091136666666095,-11.232554799999972
17.76559600000006,16.923034999999945,-16.051749999999974
17.62836100000006,17.06027066666661,-16.26558233333331
17.49112600000006,17.19750633333328,-16.479414666666642
17.35389100000006,17.33474199999995,-16.693246999999975
17.35389100000006,17.33474199999995,-16.693246999999975
18.10070633333339,5.570798666666615,-11.475111266666643
18.847521666666722,-6.1931446666667185,-6.256975533333308
19.594337000000053,-17.957088000000052,-1.0388397999999757
19.594337000000053,-17.957088000000052,-1.0388397999999757
18.908160333333388,-18.502837666666718,1.8590604666666912
18.221983666666727,-19.048587333333383,4.756960733333358
17.535807000000062,-19.59433700000005,7.654861000000025
17.535807000000062,-19.59433700000005,7.654861000000025
8.752743666666728,-17.97623666666672,5.005899300000025
-0.03031966666660561,-16.358136333333388,2.356937600000025
-8.81338299999994,-14.740036000000051,-0.29202409999997503
-8.81338299999994,-14.740036000000051,-0.292024099999975
-12.41022599999994,-12.285756900000052,0.16117176666669172
-16.00706899999994,-9.831477800000053,0.6143676333333584
-19.603911999999937,-7.377198700000055,1.0675635000000252
-19.603911999999934,-7.377198700000055,1.0675635000000252
-15.435786799999933,-11.449578133333388,4.591001666666692
-11.267661599999933,-15.521957566666721,8.114439833333359
-7.0995363999999315,-19.594337000000056,11.637878000000027
-7.0995363999999315,-19.594337000000056,11.637878000000027
1.5271424000000682,-19.594337000000056,13.361299333333358
10.153821200000067,-19.594337000000056,15.084720666666692
18.780500000000067,-19.594337000000056,16.80814200000003
18.780500000000064,-19.594337000000056,16.80814200000003
19.051779000000064,-16.632606666666728,9.091045900000028
19.32305800000006,-13.670876333333396,1.3739498000000268
19.594337000000056,-10.709146000000066,-6.343146299999973
19.594337000000056,-10.709146000000066,-6.343146299999973
18.853904666666725,-0.8473490000000652,-9.02083186666664
18.113472333333394,9.014447999999936,-11.698517433333308
17.373040000000064,18.876244999999937,-14.376202999999975
17.373040000000064,18.876244999999937,-14.376202999999975
17.373040000000064,18.876244999999937,-14.376202999999975
17.446444666666732,17.669850666666605,-13.616620999999975
17.519849333333397,16.463456333333273,-12.857038999999977
17.593254000000062,15.257061999999943,-12.097456999999977
18.260281666666728,3.6399289999999436,-7.444220666666645
18.927309333333394,-7.977204000000056,-2.790984333333311
19.594337000000056,-19.594337000000056,1.8622520000000222
19.594337000000056,-19.594337000000056,1.8622520000000222
16.99005700000006,-19.594337000000056,2.7814096666666894
14.385777000000061,-19.594337000000056,3.7005673333333564
11.781497000000064,-19.594337000000056,4.619725000000023
11.781497000000064,-19.594337000000056,4.619725000000024
11.781497000000064,-19.594337000000056,4.619725000000024
3.43567166666673,-15.61770333333339,1.9452313000000236
-4.910153666666603,-11.641069666666723,-0.7292623999999764
-13.255978999999938,-7.664436000000058,-3.4037560999999763
-15.371956666666605,-5.321860086666724,-2.6920471666666432
-17.48793433333327,-2.9792841733333906,-1.9803382333333097
-19.60391199999994,-0.6367082600000575,-1.2686292999999762
-19.603911999999944,-0.6367082600000574,-1.2686292999999764
-19.603911999999944,-0.6367082600000574,-1.2686292999999764
-17.478359666666613,-6.665489840000057,-0.14840569999997633
-15.352807333333281,-12.694271420000057,0.9718179000000237
-13.227254999999948,-18.723053000000057,2.0920415000000236
-13.227254999999948,-18.723053000000057,2.0920415000000236
-3.671843666666613,-19.01348100000006,5.905908000000022
5.883567666666721,-19.303909000000058,9.719774500000023
15.438979000000055,-19.59433700000006,13.533641000000022
16.824098333333385,-17.61559500000006,7.01974846666669
18.209217666666717,-15.636853000000059,0.5058559333333564
19.59433700000005,-13.658111000000057,-6.0080365999999765
19.59433700000005,-13.658111000000057,-6.0080365999999765
19.59433700000005,-13.658111000000057,-6.0080365999999765
19.21135466666672,-3.9750386666667246,-8.328271733333311
18.828372333333387,5.7080336666666085,-10.648506866666645
18.445390000000057,15.391105999999942,-12.96874199999998
18.445390000000057,15.391105999999942,-12.96874199999998
17.47835966666672,16.64856499999994,-12.199585666666648
16.511329333333382,17.906023999999938,-11.430429333333315
15.544299000000047,19.16348299999994,-10.661272999999982
15.544299000000047,19.163482999999943,-10.661272999999982
16.894311666666713,8.041035333333276,-8.226143133333316
18.244324333333378,-3.08141233333339,-5.79101326666665
19.594337000000046,-14.203860000000057,-3.3558833999999838
19.59433700000005,-14.203860000000057,-3.3558833999999838
18.965607666666717,-16.000685666666723,0.6494744000000163
18.336878333333384,-17.797511333333393,4.654832200000016
17.70814900000005,-19.59433700000006,8.660190000000016
17.708149000000045,-19.594337000000063,8.660190000000014
10.82084873333338,-16.970908000000065,6.614425600000014
3.933548466666714,-14.347479000000064,4.568661200000013
-2.9537517999999516,-11.724050000000062,2.5228968000000123
-2.9537517999999516,-11.724050000000062,2.5228968000000123
-8.503805199999952,-7.3899654000000625,0.3367054000000123
-14.053858599999954,-3.055880800000063,-1.8494859999999875
-19.603911999999955,1.2782037999999372,-4.0356773999999875
-19.603911999999955,1.2782037999999372,-4.035677399999987
-19.048587666666617,-3.5888644666667293,-3.38141573333332
-18.49326333333328,-8.455932733333396,-2.727154066666653
-17.937938999999947,-13.323001000000062,-2.072892399999987
-17.937938999999943,-13.323001000000062,-2.0728923999999864
-9.001682333333278,-15.413446333333395,3.748440400000014
-0.06542566666661287,-17.50389166666673,9.569773200000014
8.870831000000052,-19.594337000000063,15.391106000000015
8.870831000000052,-19.594337000000067,15.391106000000015
12.445333000000053,-18.442198666666737,10.750635666666682
16.019835000000054,-17.290060333333404,6.110165333333349
19.594337000000053,-16.137922000000074,1.4696950000000157
19.594337000000053,-16.137922000000074,1.4696950000000157
19.479442333333385,-7.211240000000074,-2.5867273333333176
19.36454766666672,1.7154419999999266,-6.643149666666652
19.249653000000052,10.642123999999926,-10.699571999999984
19.249653000000052,10.642123999999926,-10.699571999999984
17.306017333333386,13.629386666666592,-9.965521999999984
15.362381666666721,16.61664933333326,-9.231471999999984
13.418746000000056,19.603911999999927,-8.497421999999982
13.418746000000056,19.603911999999927,-8.49742199999998
15.477276333333387,8.554869333333258,-6.620808333333315
17.53580666666672,-2.494173333333409,-4.744194666666648
19.594337000000053,-13.543216000000077,-2.867580999999982
19.594337000000053,-13.543216000000077,-2.867580999999982
18.936884333333385,-15.560256333333408,1.1760753333333513
18.27943166666672,-17.57729666666674,5.219731666666685
17.621979000000053,-19.59433700000007,9.263388000000019
17.621979000000053,-19.59433700000007,9.263388000000019
12.292140166666721,-18.336878333333406,7.645287100000019
6.962301333333389,-17.07941966666674,6.02718620000002
1.6324625000000559,-15.821961000000078,4.40908530000002
1.6324625000000559,-15.821961000000078,4.40908530000002
1.6324625000000559,-15.821961000000078,4.40908530000002
1.6324625000000559,-15.821961000000078,4.40908530000002
1.6324625000000559,-15.821961000000078,4.40908530000002
-5.082495999999943,-14.408117666666746,3.5186511000000196
-11.797454499999944,-12.994274333333413,2.62821690000002
-18.512412999999942,-11.58043100000008,1.7377827000000206
-18.512412999999942,-11.58043100000008,1.7377827000000206
-12.087882819999942,-14.251733000000078,6.29846480000002
-5.663352639999943,-16.923035000000073,10.859146900000022
0.7611775400000553,-19.59433700000007,15.419829000000023
0.7611775400000553,-19.59433700000007,15.419829000000023
0.7611775400000553,-19.59433700000007,15.419829000000023
7.038897360000056,-19.067736666666736,11.577238933333357
13.316617180000057,-18.5411363333334,7.734648866666691
19.594337000000056,-18.014536000000067,3.8920588000000245
19.584763000000056,-10.313397666666736,-2.8994957999999755
19.575189000000062,-2.612259333333403,-9.691050399999975
19.565615000000065,5.08887899999993,-16.482604999999975
19.56561500000007,5.08887899999993,-16.482604999999975
19.56561500000007,5.08887899999993,-16.482604999999975
17.7592143333334,9.927223333333265,-14.430457666666642
15.952813666666735,14.765567666666598,-12.37831033333331
14.146413000000068,19.603911999999934,-10.326162999999978
14.146413000000068,19.603911999999934,-10.326162999999978
15.962387666666736,9.710199666666602,-9.512325566666645
17.7783623333334,-0.18351266666673163,-8.698488133333312
19.59433700000007,-10.077225000000064,-7.884650699999978
19.04539600000007,-13.24959566666673,-1.4409714666666449
18.496455000000072,-16.421966333333398,5.002707766666688
17.947514000000073,-19.594337000000063,11.446387000000023
17.947514000000073,-19.594337000000063,11.446387000000023
17.947514000000073,-19.594337000000063,11.446387000000023
11.398514500000076,-16.667713333333396,8.762318566666687
4.849515000000076,-13.74108966666673,6.078250133333356
-1.6994844999999248,-10.814466000000062,3.3941817000000225
-1.6994844999999248,-10.814466000000062,3.3941817000000225
-7.555923999999924,-6.978258790000062,0.033511000000022495
-13.412363499999925,-3.142051580000062,-3.327159699999978
-19.268802999999924,0.6941556299999382,-6.687830399999978
-19.268802999999924,0.6941556299999382,-6.687830399999978
-19.30390966666659,-1.954806046666729,-6.432508766666644
-19.33901633333326,-4.603767723333397,-6.1771871333333115
-19.37412299999993,-7.252729400000065,-5.921865499999978
-19.37412299999993,-7.252729400000066,-5.921865499999978
-13.415554899999933,-11.366598600000067,0.5345796666666885
-7.456986799999933,-15.480467800000069,6.991024833333355
-1.498418699999932,-19.59433700000007,13.447470000000022
-1.498418699999932,-19.59433700000007,13.447470000000024
5.5324998666667335,-19.584763000000077,12.735761333333357
12.563418433333402,-19.57518900000008,12.024052666666691
19.594337000000067,-19.565615000000083,11.312344000000024
19.594337000000067,-19.565615000000086,11.312344000000024
19.453910666666733,-12.308097966666752,3.9303576666666906
19.313484333333403,-5.050580933333419,-3.4516286666666427
19.17305800000007,2.206936099999915,-10.833614999999975
19.17305800000007,2.206936099999915,-10.833614999999975
18.44539100000007,8.005928066666582,-12.177244999999976
17.71772400000007,13.804920033333248,-13.520874999999975
16.990057000000075,19.603911999999916,-14.864504999999975
16.990057000000075,19.603911999999916,-14.864504999999975
17.842193000000076,11.235746333333248,-14.516629333333308
18.694329000000078,2.8675806666665813,-14.16875366666664
19.54646500000008,-5.500585000000086,-13.820877999999974
19.546465000000083,-5.500585000000086,-13.820877999999974
19.43476166666675,-10.198502333333417,-7.03251466666664
19.323058333333417,-14.89641966666675,-0.24415133333330688
19.211355000000083,-19.59433700000008,6.544212000000027
19.211355000000083,-19.59433700000008,6.544212000000026
13.383639400000083,-17.529423666666748,5.178241433333359
7.555923800000081,-15.464510333333417,3.812270866666692
1.7282082000000816,-13.399597000000085,2.446300300000025
1.7282082000000816,-13.399597000000085,2.4463003000000247
-4.492064533333252,-13.255978666666751,2.417576533333358
-10.712337266666585,-13.112360333333418,2.3888527666666914
-16.932609999999915,-12.968742000000084,2.3601290000000246
-16.932609999999915,-12.968742000000084,2.360129000000024
-17.730489999999918,-14.711311666666752,3.1548175000000236
-18.52836999999992,-16.45388133333342,3.949506000000023
-19.32624999999992,-18.19645100000009,4.744194500000023
-19.32624999999992,-18.196451000000092,4.744194500000023
-12.493205466666588,-18.66241300000009,6.394210500000024
-5.6601609333332545,-19.12837500000009,8.044226500000024
1.1728836000000797,-19.594337000000092,9.694242500000025
1.17288360000008,-19.594337000000092,9.694242500000025
7.313368066666747,-19.393271333333427,6.853789533333358
13.453852533333416,-19.192205666666762,4.01333656666669
19.594337000000085,-18.991140000000097,1.1728836000000242
19.594337000000085,-18.991140000000097,1.1728836000000242
19.587954666666757,-11.740006433333429,-4.262275266666642
19.581572333333423,-4.488872866666763,-9.697434133333308
19.575190000000088,2.7622606999999046,-15.132592999999973
19.575190000000084,2.7622606999999046,-15.132592999999973
17.67304366666675,8.37614446666657,-14.162370999999974
15.770897333333416,13.99002823333324,-13.192148999999974
13.868751000000081,19.603911999999905,-12.221926999999974
13.86875100000008,19.603911999999905,-12.221926999999974
15.777279666666743,14.242158333333238,-11.353833333333307
17.68580833333341,8.880404666666571,-10.48573966666664
19.59433700000007,3.518650999999904,-9.617645999999974
19.59433700000007,3.518650999999904,-9.617645999999974
19.59433700000007,-4.1856783333334295,-3.5473746666666415
19.59433700000007,-11.890007666666762,2.5228966666666914
19.59433700000007,-19.594337000000092,8.593168000000025
19.59433700000007,-19.594337000000095,8.593168000000025
16.476222000000075,-18.968799333333433,7.1218771666666925
13.358107000000075,-18.343261666666766,5.650586333333361
10.239992000000075,-17.717724000000104,4.179295500000028
10.239992000000077,-17.717724000000104,4.179295500000029
1.7888470000000762,-12.67831376666677,2.2133191000000285
-6.662297999999924,-7.638903533333437,0.24734270000002864
-15.113442999999924,-2.5994933000001033,-1.7186336999999714
-15.113442999999924,-2.599493300000103,-1.7186336999999714
-15.68791666666659,-2.2867242666667695,-2.031402633333305
-16.262390333333258,-1.9739552333334365,-2.3441715666666383
-16.836863999999924,-1.6611862000001034,-2.656940499999972
-16.836863999999924,-1.6611862000001034,-2.6569404999999717
-16.76984266666659,-7.2527294666667705,-2.6409828999999716
-16.702821333333258,-12.844272733333435,-2.6250252999999715
-16.63579999999992,-18.435816000000102,-2.6090676999999713
-16.63579999999992,-18.435816000000102,-2.609067699999971
-7.43783866666659,-18.821989666666767,2.4431087000000296
1.7601226666667433,-19.20816333333343,7.49528510000003
10.958084000000076,-19.594337000000095,12.547461500000031
10.958084000000076,-19.594337000000095,12.547461500000031
13.836835000000073,-18.174110666666763,9.333600666666696
16.715586000000073,-16.75388433333343,6.119739833333362
19.59433700000007,-15.3336580000001,2.9058790000000285
19.59433700000007,-15.3336580000001,2.9058790000000285
19.121992333333406,-7.772947000000099,-1.9739551666666386
18.649647666666738,-0.21223600000009965,-6.853789333333306
18.17730300000007,7.3484749999999,-11.733623499999972
18.17730300000007,7.3484749999999,-11.733623499999972
14.921952333333403,11.433620666666569,-10.798508333333304
11.666601666666736,15.518766333333234,-9.863393166666638
8.41125100000007,19.6039119999999,-8.92827799999997
8.411251000000071,19.6039119999999,-8.92827799999997
12.138946333333406,13.31342596666657,-8.264441666666636
15.86664166666674,7.0229399333332365,-7.600605333333303
19.594337000000074,0.7324538999999023,-6.93676899999997
19.594337000000078,0.7324538999999023,-6.93676899999997
19.594337000000078,-6.043143066666764,-1.6356539999999697
19.594337000000078,-12.818740033333432,3.6654610000000303
19.594337000000078,-19.5943370000001,8.96657600000003
19.594337000000078,-19.5943370000001,8.966576000000028
14.91876033333341,-17.851767333333438,7.725074533333362
10.243183666666743,-16.109197666666773,6.483573066666694
5.567607000000077,-14.366628000000105,5.242071600000028
5.567607000000077,-14.366628000000105,5.242071600000028
5.567607000000077,-14.366628000000105,5.242071600000028
-2.037785666666589,-9.438920866666772,2.877155233333361
-9.643178333333255,-4.511213733333439,0.5122388666666945
-17.24857099999992,0.4164933999998948,-1.852677499999972
-17.867725666666587,0.2984071479998949,-2.4303426333333054
-18.48688033333325,0.18032089599989487,-3.0080077666666387
-19.106034999999917,0.06223464399989487,-3.585672899999972
-19.106034999999913,0.06223464399989487,-3.585672899999972
-17.468784999999915,-5.918673904000105,-1.887784199999972
-15.831534999999915,-11.899582452000104,-0.18989549999997216
-14.194284999999915,-17.880491000000102,1.5079932000000278
-14.194284999999915,-17.880491000000102,1.5079932000000278
-14.194284999999915,-17.880491000000102,1.5079932000000278
-3.633545333333249,-18.451773000000106,6.486764466666695
6.927194333333418,-19.023055000000106,11.465535733333361
17.487934000000084,-19.594337000000106,16.444307000000027
18.190068333333418,-16.757076000000108,8.982533000000027
18.89220266666675,-13.919815000000108,1.5207590000000266
19.594337000000085,-11.08255400000011,-5.941014999999974
19.594337000000085,-11.08255400000011,-5.941014999999974
19.594337000000085,-11.08255400000011,-5.941014999999974
18.320920666666755,-0.8537320000001104,-7.801671333333307
17.047504333333425,9.375089999999892,-9.662327666666641
15.774088000000097,19.60391199999989,-11.522983999999974
15.774088000000097,19.60391199999989,-11.522983999999974
15.084719666666762,18.924118333333222,-11.538941333333307
14.395351333333428,18.244324666666554,-11.55489866666664
13.705983000000094,17.564530999999885,-11.570855999999972
15.66876766666676,6.493147666666553,-7.128260033333308
17.631552333333428,-4.57823566666678,-2.6856640666666407
19.5943370000001,-15.649619000000113,1.7569319000000256
19.5943370000001,-15.649619000000113,1.7569319000000256
19.5943370000001,-15.649619000000113,1.7569319000000256
18.295388666666767,-16.964525000000112,4.511213600000025
16.996440333333435,-18.279431000000113,7.265495300000025
15.697492000000102,-19.59433700000011,10.019777000000024
15.697492000000102,-19.59433700000011,10.019777000000026
8.232526333333434,-14.717694666666779,7.667626833333361
0.7675606666667664,-9.841052333333446,5.315476666666695
-6.697404999999901,-4.964410000000111,2.9633265000000275
-6.697404999999901,-4.964410000000111,2.963326500000027
-10.913403333333235,-1.3962903333334447,1.2845868666666933
-15.129401666666567,2.171829333333222,-0.39415276666664
-19.3453999999999,5.739948999999889,-2.0728923999999735
-19.3453999999999,5.739948999999889,-2.0728923999999735
-19.383698333333232,2.111190666666556,-2.0218280333333065
-19.42199666666657,-1.5175676666667777,-1.9707636666666393
-19.460294999999903,-5.146326000000111,-1.9196992999999722
-19.460294999999903,-5.146326000000111,-1.9196992999999722
-12.863422556666569,-9.962329666666777,2.6569408000000276
-6.266550113333235,-14.778333333333444,7.233580900000028
0.3303223300000984,-19.59433700000011,11.810221000000027
0.3303223300000984,-19.59433700000011,11.810221000000027
6.751660553333431,-19.27199400000011,10.83042433333336
13.172998776666764,-18.949651000000113,9.850627666666691
19.594337000000095,-18.627308000000113,8.870831000000024
19.594337000000095,-18.627308000000113,8.870831000000024
18.8156060000001,-12.30490636666678,2.8005593333333576
18.036875000000098,-5.982504733333447,-3.269712333333308
17.2581440000001,0.3398968999998857,-9.339983999999973
17.2581440000001,0.3398968999998857,-9.339983999999973
16.2751560000001,6.761235266666553,-9.23466366666664
15.292168000000098,13.18257363333322,-9.129343333333304
14.309180000000097,19.603911999999887,-9.024022999999971
14.309180000000097,19.603911999999887,-9.024022999999971
15.876216666666764,15.362381866666555,-9.059129666666637
17.44325333333343,11.12085173333322,-9.094236333333305
19.010290000000097,6.879321599999886,-9.12934299999997
19.010290000000097,6.879321599999886,-9.12934299999997
19.20497233333343,-1.9452312666667806,-3.9175907666666365
19.399654666666763,-10.769784133333447,1.2941614666666974
19.594337000000095,-19.594337000000113,6.505913700000032
19.594337000000095,-19.594337000000113,6.505913700000032
15.869833333333432,-18.818798000000115,6.308039466666699
12.145329666666763,-18.043259000000116,6.110165233333366
8.420826000000096,-17.267720000000114,5.912291000000034
8.420826000000098,-17.267720000000114,5.912291000000034
-0.349471333333236,-10.776167966666781,3.1867328000000334
-9.119768666666568,-4.2846159333334475,0.4611746000000328
-17.8900659999999,2.2069360999998864,-2.264383599999968
-17.8900659999999,2.2069360999998864,-2.264383599999968
-18.461347999999898,2.468640799999886,-2.7877928666666345
-19.032629999999894,2.730345499999886,-3.311202133333301
-19.60391199999989,2.992050199999886,-3.8346113999999676
-19.603911999999887,2.992050199999886,-3.8346113999999676
-14.711311666666553,-4.536745533333447,-0.06861759999996793
-9.81871133333322,-12.065541266666783,3.6973762000000314
-4.926110999999885,-19.594337000000117,7.4633700000000305
-4.926110999999885,-19.59433700000012,7.4633700000000305
3.247371666666781,-19.59433700000012,10.3516956666667
11.420854333333446,-19.59433700000012,13.240021333333369
19.594337000000113,-19.59433700000012,16.128347000000037
19.594337000000113,-19.59433700000012,16.128347000000037
19.594337000000113,-15.474084866666786,7.619754333333372
19.594337000000113,-11.353832733333453,-0.888838333333295
19.594337000000113,-7.233580600000118,-9.397430999999962
19.594337000000113,-7.233580600000118,-9.397430999999962
17.83580966666678,1.7122502666665487,-11.267661666666628
16.077282333333446,10.658081133333216,-13.137892333333296
14.318755000000115,19.60391199999988,-15.008122999999962
14.318755000000115,19.603911999999877,-15.008122999999962
15.05918733333345,18.451772999999882,-14.542161333333297
15.799619666666786,17.299633999999887,-14.076199666666632
16.54005200000012,16.14749499999989,-13.610237999999967
16.54005200000012,16.147494999999893,-13.610237999999967
17.55814700000012,4.233550999999891,-6.965492999999967
18.576242000000118,-7.6803930000001115,-0.3207479999999663
19.594337000000113,-19.594337000000113,6.323997000000034
19.594337000000113,-19.594337000000113,6.323997000000034
18.00815166666678,-19.55923033333345,7.7027336666667
16.421966333333447,-19.524123666666785,9.08147033333337
14.835781000000116,-19.48901700000012,10.460207000000038
14.835781000000116,-19.48901700000012,10.460207000000038
5.625054000000116,-14.057050000000123,7.485710300000037
-3.5856729999998844,-8.625083000000123,4.511213600000037
-12.796399999999885,-3.193116000000123,1.5367169000000367
-12.796399999999885,-3.193116000000123,1.5367169000000367
-13.92619833333322,-1.6931015333334567,0.39734420000003673
-15.055996666666557,-0.19308706666678996,-0.7420284999999632
-16.185794999999892,1.3069273999998767,-1.8814011999999634
-16.185794999999896,1.3069273999998767,-1.8814011999999634
-15.573022999999893,-4.699513400000123,-3.359074999999963
-14.960250999999891,-10.705954200000123,-4.836748799999962
-14.347478999999888,-16.712395000000125,-6.314422599999962
-14.347478999999888,-16.712395000000125,-6.314422599999962
-7.300602533333222,-17.673042333333456,-0.7707520666666294
-0.2537260666665541,-18.633689666666786,4.772918466666703
6.793150400000113,-19.59433700000012,10.316589000000036
6.793150400000113,-19.59433700000012,10.316589000000036
11.060212600000114,-18.99114000000012,10.555953000000036
15.327274800000112,-18.38794300000012,10.795317000000034
19.59433700000011,-17.784746000000123,11.034681000000035
19.59433700000011,-17.784746000000123,11.034681000000035
19.565613666666778,-11.385748100000121,5.9984621333333665
19.536890333333446,-4.986750200000121,0.9622432666666997
19.508167000000114,1.412247699999878,-4.073975599999968
19.508167000000114,1.412247699999878,-4.073975599999968
16.894312000000113,7.476135799999878,-9.250621066666634
14.280457000000112,13.540023899999879,-14.427266533333302
11.666602000000111,19.603911999999877,-19.60391199999997
11.666602000000111,19.603911999999877,-19.603911999999973
14.009178000000112,15.99749433333321,-18.103897666666636
16.351754000000113,12.391076666666542,-16.603883333333304
18.694330000000118,8.784658999999875,-15.103868999999968
18.694330000000114,8.784658999999875,-15.103868999999966
18.99433233333345,-0.6750063333334584,-7.306985333333298
19.29433466666678,-10.13467166666679,0.4898983333333688
19.594337000000117,-19.59433700000012,8.286782000000036
19.59433700000012,-19.594337000000124,8.286782000000036
19.59433700000012,-19.594337000000124,8.286782000000036
14.408117133333453,-17.91240633333346,8.10486533333337
9.221897266666785,-16.230475666666795,7.922948666666703
4.035677400000119,-14.548545000000132,7.741032000000037
-3.390990399999881,-11.599580200000133,2.120765000000037
-10.817658199999881,-8.650615400000133,-3.4995019999999637
-18.24432599999988,-5.701650600000133,-9.119768999999964
-18.244325999999877,-5.701650600000133,-9.119768999999964
-18.237942666666545,-7.188899066666799,-8.500614099999966
-18.231559333333212,-8.676147533333465,-7.881459199999969
-18.22517599999988,-10.163396000000132,-7.262304299999968
-18.22517599999988,-10.163396000000132,-7.262304299999968
-18.22517599999988,-10.163396000000132,-7.262304299999968
-15.24429616666655,-12.93363500000013,-2.9760926666666343
-12.263416333333216,-15.703874000000129,1.310118966666699
-9.282536499999882,-18.474113000000127,5.596330600000033
0.0781923333334517,-18.84752100000013,9.841052400000033
9.438921166666786,-19.220929000000126,14.085774200000031
18.799650000000117,-19.594337000000124,18.33049600000003
18.799650000000117,-19.594337000000124,18.33049600000003
18.799650000000117,-19.594337000000124,18.33049600000003
19.064545666666785,-17.286868000000126,11.475110733333361
19.32944133333345,-14.979399000000129,4.6197254666666945
19.594337000000113,-12.671930000000131,-2.235659799999972
17.880491000000116,-2.832473333333464,-7.763372533333306
16.166645000000116,7.006983333333203,-13.29108526666664
14.452799000000118,16.84643999999987,-18.818797999999973
14.452799000000118,16.84643999999987,-18.818797999999973
14.226201166666783,17.765597333333204,-18.394325999999975
13.999603333333448,18.68475466666654,-17.969853999999973
13.773005500000115,19.603911999999877,-17.545381999999975
13.773005500000115,19.603911999999877,-17.545381999999975
13.773005500000115,19.603911999999877,-17.545381999999975
15.713449333333449,9.02721433333321,-13.195339999999973
17.65389316666678,-1.5494833333334572,-8.845297999999973
19.594337000000113,-12.126181000000125,-4.495255999999973
18.956033333333448,-14.615566333333456,-1.0547973333333058
18.317729666666782,-17.10495166666679,2.385661333333361
17.67942600000012,-19.59433700000012,5.826120000000028
17.679426000000124,-19.59433700000012,5.826120000000028
17.679426000000124,-19.59433700000012,5.826120000000028
9.40062266666679,-15.930472000000123,5.267604000000028
1.1218193333334554,-12.266607000000121,4.709088000000029
-7.156983999999878,-8.602742000000122,4.150572000000029
-7.156983999999878,-8.602742000000122,4.150572000000029
-10.60701733333321,-7.702733533333455,3.432479933333362
-14.057050666666543,-6.802725066666788,2.7143878666666956
-17.507083999999875,-5.902716600000121,1.9962958000000288
-16.157070999999878,-8.806999733333456,0.9430941666666954
-14.807057999999877,-11.71128286666679,-0.11010746666663788
-13.457044999999878,-14.615566000000124,-1.1633090999999711
-13.457044999999878,-14.615566000000124,-1.1633090999999711
-13.457044999999878,-14.615566000000124,-1.1633090999999711
-7.686776499999877,-16.275156333333456,1.3675664333333628
-1.916507999999877,-17.934746666666786,3.8984419666666965
3.853760500000123,-19.59433700000012,6.429317500000029
3.853760500000123,-19.59433700000012,6.429317500000029
9.100619333333457,-19.374122333333457,7.2208143333333625
14.34747816666679,-19.153907666666793,8.012311166666697
19.59433700000012,-18.93369300000013,8.80380800000003
19.594337000000124,-18.93369300000013,8.803808000000028
19.594337000000124,-13.62300353333346,3.917590800000029
19.594337000000124,-8.312314066666792,-0.968626399999971
19.594337000000124,-3.001624600000125,-5.854843599999971
19.594337000000124,-3.001624600000125,-5.854843599999971
17.39218833333346,4.533554266666542,-9.42934639999997
15.190039666666797,12.06873313333321,-13.00384919999997
12.987891000000127,19.603911999999877,-16.57835199999997
12.987891000000127,19.603911999999877,-16.57835199999997
14.941101666666794,17.111334999999876,-16.49856366666664
16.894312333333463,14.618757999999877,-16.41877533333331
18.84752300000013,12.126180999999876,-16.338986999999978
18.847523000000134,12.126180999999876,-16.338986999999978
19.096461000000133,1.552674999999877,-9.317642766666646
19.345399000000132,-9.020831000000124,-2.2962985333333124
19.594337000000134,-19.594337000000124,4.72504570000002
19.594337000000134,-19.594337000000124,4.72504570000002
15.432595100000134,-18.03049233333346,5.558032366666687
11.270853200000133,-16.4666476666668,6.391019033333354
7.109111300000134,-14.902803000000134,7.224005700000021
7.109111300000133,-14.902803000000134,7.224005700000021
-1.4154391333332008,-11.4400037666668,4.798450440000021
-9.939989566666535,-7.977204533333468,2.372895180000021
-18.464539999999868,-4.514405300000134,-0.05266007999997916
-18.464539999999868,-4.514405300000135,-0.05266007999997916
-17.93793899999987,-6.059101200000135,-1.6228880533333125
-17.41133799999987,-7.603797100000134,-3.1931160266666456
-16.88473699999987,-9.148493000000133,-4.763343999999979
-16.88473699999987,-9.148493000000133,-4.763343999999979
-11.692133799999867,-12.630441000000133,-3.1707753863333124
-6.499530599999868,-16.11238900000013,-1.5782067726666458
-1.3069273999998667,-19.594337000000127,0.0143618410000211
-1.3069273999998667,-19.594337000000127,0.0143618410000211
5.660160733333466,-19.594337000000127,3.225031227333355
12.627248866666799,-19.594337000000127,6.435700613666689
19.59433700000013,-19.594337000000127,9.646370000000022
19.594337000000134,-19.594337000000127,9.646370000000024
19.594337000000134,-17.130483666666795,4.01333686666669
19.594337000000134,-14.666630333333464,-1.619696266666643
19.594337000000134,-12.20277700000013,-7.252729399999976
19.594337000000134,-12.20277700000013,-7.252729399999976
17.548573000000136,-1.6994846666667975,-9.445303933333308
15.502809000000136,8.803807666666534,-11.637878466666642
13.457045000000136,19.307099999999867,-13.830452999999975
13.457045000000136,19.307099999999867,-13.830452999999975
13.457045000000136,18.88581966666653,-12.793208666666642
13.457045000000136,18.4645393333332,-11.755964333333308
13.457045000000136,18.043258999999868,-10.718719999999974
13.457045000000136,18.043258999999868,-10.718719999999974
15.502809000000134,5.829311666666534,-6.8346401133333075
17.548573000000136,-6.384635666666799,-2.9505602266666404
19.594337000000134,-18.598583000000133,0.9335196600000261
19.594337000000138,-18.598583000000133,0.9335196600000261
18.40390033333347,-18.93050100000013,-0.2058530266666406
17.213463666666808,-19.262419000000126,-1.3452257133333072
16.02302700000014,-19.594337000000124,-2.484598399999974
16.02302700000014,-19.594337000000124,-2.484598399999974
7.322943000000142,-17.819852333333458,-3.228222599999974
-1.3771409999998578,-16.04536766666679,-3.9718467999999745
-10.077224999999858,-14.270883000000126,-4.715470999999975
-10.077224999999858,-14.270883000000126,-4.715470999999975
-13.252787333333194,-13.737898666666794,-4.913345333333308
-16.428349666666527,-13.204914333333463,-5.111219666666642
-19.603911999999863,-12.671930000000131,-5.309093999999976
-19.60391199999986,-12.671930000000131,-5.309093999999976
-17.140058666666526,-14.883653333333465,-3.008007866666643
-14.676205333333193,-17.095376666666798,-0.7069217333333094
-12.21235199999986,-19.307100000000133,1.5941644000000241
-12.212351999999862,-19.30710000000013,1.5941644000000241
-3.2665209999998637,-19.4028456666668,5.570798600000024
5.679310000000136,-19.49859133333347,9.547432800000022
14.625141000000136,-19.594337000000134,13.524067000000024
14.625141000000136,-19.594337000000138,13.524067000000024
16.281539666666802,-18.432624000000143,9.32721788666669
17.937938333333467,-17.270911000000144,5.130368773333357
19.594337000000134,-16.10919800000015,0.9335196600000236
19.594337000000134,-16.10919800000015,0.9335196600000236
19.49859133333347,-7.415497000000147,-4.054826226666643
19.402845666666803,1.2782039999998556,-9.043172113333311
19.307100000000133,9.971904999999857,-14.031517999999977
19.30710000000013,9.971904999999857,-14.031517999999977
17.0698446666668,13.182573999999859,-15.033655333333312
14.832589333333466,16.39324299999986,-16.035792666666644
12.595334000000134,19.60391199999986,-17.037929999999978
12.595334000000134,19.60391199999986,-17.037929999999974
14.928335000000134,9.180407333333193,-11.819794666666644
17.261336000000135,-1.243097333333474,-6.60165933333331
19.594337000000134,-11.66660200000014,-1.3835239999999775
19.594337000000138,-11.66660200000014,-1.3835239999999775
18.62092366666681,-14.309180333333472,2.1941700000000224
17.647510333333475,-16.951758666666805,5.771864000000022
16.674097000000145,-19.594337000000138,9.349558000000023
16.674097000000145,-19.594337000000138,9.349558000000023
7.208048000000146,-15.161315766666808,7.514434000000023
-2.258000999999854,-10.728294533333473,5.679310000000022
-11.724049999999854,-6.295273300000139,3.8441860000000223
-11.724049999999854,-6.29527330000014,3.8441860000000223
-12.866613999999855,-2.005870333333473,1.294161433333356
-14.009177999999855,2.2835326333331936,-1.2558631333333108
-15.151741999999855,6.57293559999986,-3.805887699999978
-15.151741999999855,6.57293559999986,-3.805887699999978
-13.093211499999855,2.9569433999998593,-3.5569491333333114
-11.034680999999857,-0.6590488000001411,-3.308010566666645
-8.976150499999859,-4.275041000000141,-3.0590719999999787
-8.976150499999859,-4.275041000000141,-3.0590719999999787
-2.1016163333331908,-9.381473000000142,1.3484173333333551
4.7729178333334765,-14.48790500000014,5.7559066666666885
11.647452000000143,-19.594337000000138,10.163396000000022
11.647452000000143,-19.594337000000138,10.163396000000022
11.647452000000143,-19.594337000000138,10.163396000000022
14.296413666666808,-19.58476300000014,9.726157666666689
16.945375333333473,-19.575189000000147,9.288919333333356
19.594337000000138,-19.56561500000015,8.851681000000022
19.453910666666804,-14.886846333333482,4.310148000000023
19.313484333333474,-10.208077666666815,-0.231384999999977
19.17305800000014,-5.529309000000147,-4.772917999999977
19.17305800000014,-5.529309000000147,-4.772917999999977
17.194315333333474,2.5580033333331857,-7.083578666666643
15.215572666666807,10.645315666666518,-9.394239333333308
13.23683000000014,18.73262799999985,-11.704899999999975
13.23683000000014,18.732627999999846,-11.704899999999975
13.23683000000014,18.732627999999846,-11.704899999999975
12.911294666666807,18.732627999999846,-11.315534666666643
12.585759333333476,18.732627999999846,-10.926169333333307
12.260224000000143,18.732627999999846,-10.536803999999973
14.704928333333477,8.468698999999846,-6.735703433333306
17.14963266666681,-1.7952300000001522,-2.9346028666666393
19.594337000000145,-12.05915900000015,0.8664977000000272
19.59433700000015,-12.05915900000015,0.8664977000000272
19.59433700000015,-12.05915900000015,0.8664977000000272
18.61773200000015,-14.570885000000148,3.4995021333333605
17.641127000000154,-17.08261100000015,6.132506566666694
16.664522000000158,-19.59433700000015,8.765511000000027
16.664522000000158,-19.594337000000152,8.765511000000028
8.376144333333489,-15.052804166666823,5.123986233333362
0.08776666666682213,-10.511271333333488,1.4824614666666953
-8.200610999999846,-5.9697385000001555,-2.1590632999999713
-10.772976166666512,-3.435671500000156,-1.8909756333333043
-13.34534133333318,-0.9016045000001558,-1.6228879666666376
-15.917706499999845,1.6324624999998443,-1.3548002999999706
-15.917706499999845,1.6324624999998443,-1.3548002999999706
-15.917706499999845,1.6324624999998443,-1.3548002999999706
-16.428349666666513,-0.13883113333348915,-1.0484143666666375
-16.938992833333177,-1.9101247666668224,-0.7420284333333041
-17.44963599999984,-3.681418400000156,-0.43564249999997084
-17.44963599999984,-3.681418400000156,-0.43564249999997084
-11.034680666666503,-8.985724600000156,3.8473776666666963
-4.619725333333171,-14.290030800000158,8.130397833333364
1.7952300000001624,-19.594337000000156,12.41341800000003
1.7952300000001624,-19.594337000000156,12.41341800000003
7.728265666666829,-19.514549666666824,10.364461866666696
13.661301333333492,-19.43476233333349,8.315505733333362
19.594337000000156,-19.354975000000156,6.26654960000003
19.594337000000156,-19.354975000000156,6.26654960000003
19.58795466666682,-13.115552753333489,0.9782010666666959
19.581572333333487,-6.876130506666822,-4.3101474666666375
19.575190000000152,-0.6367082600001552,-9.598495999999972
16.214518666666823,6.110165159999845,-10.214459666666638
12.853847333333489,12.857038579999845,-10.830423333333306
9.493176000000155,19.603911999999845,-11.446386999999973
9.493176000000155,19.603911999999845,-11.446386999999973
9.493176000000155,19.603911999999845,-11.446386999999973
11.826177333333488,18.73581866666651,-11.082553666666639
14.15917866666682,17.867725333333176,-10.718720333333303
16.492180000000154,16.999631999999842,-10.35488699999997
17.52623233333349,5.382498666666508,-6.754852309999971
18.560284666666824,-6.2346346666668255,-3.1548176199999713
19.59433700000016,-17.85176800000016,0.4452170700000284
19.594337000000163,-17.85176800000016,0.4452170700000284
19.594337000000163,-17.85176800000016,0.4452170700000284
18.439007000000164,-18.432624333333496,1.8111877133333618
17.283677000000168,-19.01348066666683,3.177158356666695
16.128347000000172,-19.594337000000163,4.543129000000029
16.128347000000172,-19.594337000000166,4.543129000000029
7.2495378333335045,-16.619840666666835,3.464395133333362
-1.629271333333163,-13.645344333333503,2.3856612666666948
-10.50808049999983,-10.670848000000168,1.3069274000000277
-13.540024333333164,-9.601688666666833,0.6654318900000277
-16.571968166666498,-8.5325293333335,0.023936380000027773
-19.60391199999983,-7.4633700000001655,-0.6175591299999722
-19.60391199999983,-7.4633700000001655,-0.6175591299999722
-19.60391199999983,-7.4633700000001655,-0.6175591299999722
-17.152824666666497,-10.757018666666832,0.5186220466666945
-14.701737333333163,-14.0506673333335,1.6548032233333612
-12.25064999999983,-17.344316000000166,2.7909844000000277
-12.25064999999983,-17.34431600000017,2.7909844000000277
-3.7037589999998297,-18.09432300000017,6.987833600000028
4.84313200000017,-18.844330000000173,11.184682800000028
13.39002300000017,-19.594337000000174,15.381532000000028
13.39002300000017,-19.594337000000177,15.381532000000028
15.458127666666835,-18.483688000000175,11.025106766666696
17.5262323333335,-17.373039000000176,6.668681533333363
19.594337000000166,-16.262390000000178,2.31225630000003
19.594337000000166,-16.262390000000178,2.31225630000003
19.192205666666837,-7.801670333333511,-2.1622551333333035
18.790074333333507,0.6590493333331562,-6.636766566666637
18.387943000000178,9.119768999999822,-11.11127799999997
18.38794300000018,9.119768999999822,-11.11127799999997
14.385776833333514,12.614483333333157,-11.398514666666637
10.383610666666847,16.109197666666493,-11.685751333333306
6.381444500000181,19.603911999999827,-11.972987999999972
6.381444500000181,19.603911999999827,-11.972987999999972
10.785742000000178,16.488988666666494,-11.018723333333305
15.190039500000177,13.374065333333162,-10.064458666666638
19.594337000000177,10.259141999999828,-9.110193999999971
19.594337000000177,10.25914199999983,-9.110193999999971
19.594337000000177,0.30798233333316344,-3.888867066666638
19.594337000000177,-9.643177333333503,1.3324598666666956
19.594337000000177,-19.59433700000017,6.553786800000029
19.594337000000177,-19.59433700000017,6.553786800000029
17.647510000000178,-19.514549666666838,5.873992966666695
15.700683000000177,-19.434762333333506,5.194199133333361
13.753856000000178,-19.35497500000017,4.5144053000000275
13.753856000000178,-19.35497500000017,4.5144053000000275
5.481435666666845,-14.787909333333507,2.972901052000027
-2.7909846666664886,-10.220843666666841,1.431396804000027
-11.06340499999982,-5.653778000000174,-0.11010744399997296
-11.063404999999818,-5.653778000000174,-0.11010744399997296
-12.946401666666484,-5.060155266666841,-1.4154391293333066
-14.82939833333315,-4.466532533333507,-2.72077081466664
-16.712394999999816,-3.872909800000174,-4.026102499999973
-16.712394999999816,-3.872909800000174,-4.026102499999973
-16.670905666666485,-6.4644238666668405,-3.285669899999973
-16.62941633333315,-9.055937933333507,-2.545237299999973
-16.587926999999812,-11.647452000000172,-1.8048046999999727
-16.587926999999812,-11.647452000000172,-1.8048046999999727
-10.38680299999981,-14.296413666666837,1.7313995333333605
-4.185678999999811,-16.9453753333335,5.267603766666694
2.0154450000001893,-19.594337000000166,8.803808000000027
2.0154450000001893,-19.594337000000166,8.803808000000028
7.875075666666856,-19.307100666666837,8.759126833333363
13.734706333333522,-19.019864333333505,8.714445666666697
19.59433700000019,-18.732628000000176,8.669764500000031
19.59433700000019,-18.73262800000018,8.669764500000033
19.425186333333524,-13.137893000000178,1.9931043333333658
19.256035666666858,-7.5431580000001786,-4.683555833333301
19.08688500000019,-1.9484230000001783,-11.360215999999967
19.08688500000019,-1.9484230000001783,-11.360215999999967
15.515574333333523,5.235688666666489,-12.183628333333301
11.944263666666856,12.419800333333155,-13.007040666666633
8.37295300000019,19.60391199999982,-13.830452999999965
8.372953000000189,19.60391199999982,-13.830452999999965
11.586814000000189,15.943238666666486,-12.940018666666633
14.800675000000188,12.282565333333151,-12.049584333333302
18.014536000000188,8.621891999999816,-11.15914999999997
18.014536000000188,8.621891999999814,-11.159149999999974
18.541136333333522,-0.7835176666668519,-5.229305666666639
19.067736666666857,-10.188927333333519,0.7005386666666945
19.59433700000019,-19.594337000000184,6.630383000000028
19.594337000000195,-19.594337000000184,6.630383000000028
16.72835233333353,-18.66560533333352,6.084633000000028
13.862367666666861,-17.736873666666856,5.538883000000027
10.996383000000193,-16.808142000000192,4.993133000000027
10.996383000000193,-16.808142000000192,4.993133000000026
3.1420520000001932,-10.827232866666861,2.4335339333333597
-4.712278999999807,-4.846323733333528,-0.12606513333330702
-12.566609999999807,1.1345853999998052,-2.6856641999999735
-12.566609999999807,1.1345853999998052,-2.6856641999999735
-12.566609999999807,1.1345853999998052,-2.6856641999999735
-12.566609999999807,1.1345853999998052,-2.6856641999999735
-12.566609999999807,1.1345853999998052,-2.6856641999999735
-12.566609999999807,1.1345853999998052,-2.6856641999999735
-13.95811333333314,-2.423959733333528,-1.4154391999999738
-15.349616666666472,-5.982504866666861,-0.14521419999997365
-16.741119999999807,-9.541050000000196,1.1250108000000265
-16.741119999999803,-9.541050000000196,1.1250108000000265
-6.904854666666469,-12.892145666666863,6.895279200000026
2.9314106666668653,-16.24324133333353,12.665547600000025
12.767676000000199,-19.594337000000195,18.435816000000028
12.767676000000199,-19.594337000000195,18.435816000000028
15.043229666666862,-18.745392666666863,12.681505200000027
17.31878333333353,-17.896448333333534,6.927194400000027
19.5943370000002,-17.047504000000202,1.1728836000000271
19.5943370000002,-17.047504000000202,1.1728836000000273
19.453910666666868,-8.194227333333535,-5.01228226666664
19.313484333333534,0.6590493333331313,-11.197448133333305
19.1730580000002,9.512325999999797,-17.382613999999972
19.1730580000002,9.512325999999797,-17.382613999999972
17.494318333333535,12.876187999999798,-17.57091399999997
15.815578666666871,16.240049999999798,-17.759213999999968
14.136839000000203,19.6039119999998,-17.947513999999966
14.136839000000203,19.603911999999802,-17.947513999999966
15.956005000000202,13.345341166666467,-15.518766999999963
17.775171000000203,7.086770333333132,-13.090019999999962
19.594337000000202,0.8281994999997989,-10.661272999999962
19.594337000000206,0.8281994999997989,-10.66127299999996
19.578379666666873,-5.979312666666868,-3.6718439999999606
19.56242233333354,-12.786824833333533,3.3175850000000398
19.546465000000207,-19.5943370000002,10.30701400000004
19.546465000000207,-19.5943370000002,10.30701400000004
15.036847000000208,-17.7592130000002,8.810191166666705
10.527229000000208,-15.924089000000203,7.313368333333369
6.017611000000207,-14.088965000000206,5.816545500000037
6.017611000000206,-14.088965000000206,5.816545500000037
-2.0888503333331276,-9.189981800000204,2.95694343333337
-10.195311666666463,-4.290998600000203,0.09734136666670305
-18.3017729999998,0.6079845999997963,-2.7622606999999637
-18.3017729999998,0.6079845999997963,-2.7622606999999637
-18.735819333333136,0.3462799433331296,-2.9026875666666303
-19.16986566666647,0.08457528666646293,-3.043114433333297
-19.60391199999981,-0.17712937000020376,-3.183541299999963
-19.603911999999813,-0.17712937000020376,-3.183541299999963
-14.826206433333143,-6.649531913333537,1.3643748000000369
-10.048500866666478,-13.12193445666687,5.912290900000037
-5.270795299999811,-19.5943370000002,10.460207000000036
-5.270795299999811,-19.5943370000002,10.460207000000036
3.0175821333335215,-19.5943370000002,12.41022633333337
11.305959566666855,-19.5943370000002,14.360245666666705
19.59433700000019,-19.5943370000002,16.31026500000004
19.59433700000019,-19.5943370000002,16.31026500000004
19.59433700000019,-17.0826110000002,9.560199466666704
19.59433700000019,-14.570885000000198,2.8101339333333706
19.59433700000019,-12.059159000000198,-3.9399315999999627
19.59433700000019,-12.059159000000198,-3.9399315999999627
18.863479333333526,-2.6441743333335306,-7.326134399999963
18.13262166666686,6.770810333333137,-10.712337199999963
17.401764000000195,16.185794999999803,-14.098539999999963
17.401764000000195,16.185794999999803,-14.098539999999963
15.949622333333528,17.32516733333314,-13.520874999999961
14.49748066666686,18.46453966666647,-12.94320999999996
13.045339000000192,19.603911999999806,-12.36554499999996
13.045339000000192,19.603911999999802,-12.36554499999996
15.228338333333525,12.011285666666469,-10.881488133333294
17.411337666666856,4.418659333333136,-9.39743126666663
19.59433700000019,-3.173967000000198,-7.913374399999964
19.59433700000019,-3.173967000000198,-7.913374399999964
19.581571333333525,-8.647423666666864,-1.2813955999999642
19.568805666666858,-14.120880333333531,5.3505832000000355
19.55604000000019,-19.5943370000002,11.982562000000037
19.55604000000019,-19.5943370000002,11.982562000000037
15.509192433333524,-18.391134333333536,9.489985000000035
11.462344866666859,-17.18793166666687,6.997408000000033
7.415497300000191,-15.984729000000206,4.504831000000033
7.415497300000193,-15.984729000000206,4.504831000000032
-1.3260761333331406,-12.116606533333538,1.7473574666666993
-10.067649566666473,-8.24848406666687,-1.0101160666666333
-18.809222999999804,-4.380361600000204,-3.7675895999999667
-18.809222999999804,-4.380361600000204,-3.7675895999999667
-19.07411933333314,-5.77505606666687,-3.604822033333299
-19.339015666666473,-7.169750533333537,-3.4420544666666317
-19.60391199999981,-8.564445000000203,-3.2792868999999647
-19.603911999999813,-8.564445000000203,-3.2792868999999647
-13.824069199999812,-12.241075666666871,1.3643747333333687
-8.044226399999813,-15.91770633333354,6.008036366666701
-2.2643835999998116,-19.594337000000206,10.651698000000033
-2.2643835999998116,-19.59433700000021,10.651698000000033
-2.2643835999998116,-19.59433700000021,10.651698000000033
5.021856600000189,-19.581571333333542,11.500642333333365
12.308096800000188,-19.568805666666876,12.349586666666701
19.59433700000019,-19.55604000000021,13.198531000000036
19.504974666666858,-15.180465833333542,7.472944066666702
19.415612333333527,-10.804891666666876,1.747357133333369
19.326250000000197,-6.42931750000021,-3.978229799999964
19.326250000000197,-6.429317500000209,-3.978229799999964
18.359219333333527,1.6643776666664578,-7.10911086666663
17.392188666666858,9.758072833333125,-10.239991933333298
16.42515800000019,17.851767999999794,-13.370872999999962
16.42515800000019,17.85176799999979,-13.37087299999996
16.42515800000019,17.85176799999979,-13.37087299999996
16.077282666666857,18.28581466666646,-13.89109099999996
15.729407333333521,18.71986133333313,-14.41130899999996
15.381532000000186,19.1539079999998,-14.93152699999996
16.78580033333352,8.376144666666468,-10.549569833333292
18.190068666666853,-2.4016186666668666,-6.167612666666623
19.594337000000188,-13.179382000000201,-1.7856554999999563
19.59433700000019,-13.179382000000198,-1.7856554999999563
19.59433700000019,-13.179382000000198,-1.7856554999999563
18.863479333333526,-15.317700333333528,3.247371666666711
18.13262166666686,-17.45601866666686,8.280398833333377
17.401764000000195,-19.59433700000019,13.313426000000044
17.401764000000195,-19.59433700000019,13.313426000000044
10.757018933333526,-15.579405000000193,10.20169393333338
4.11227386666686,-11.564473000000191,7.089961866666712
-2.5324711999998066,-7.549541000000191,3.9782298000000456
-7.300602133333141,-4.865472516666857,1.3548002666667127
-12.068733066666473,-2.1814040333335245,-1.2686292666666206
-16.836863999999807,0.5026644499998089,-3.8920587999999534
-16.836863999999807,0.5026644499998089,-3.8920587999999534
-16.836863999999807,0.5026644499998089,-3.8920587999999534
-17.673042666666472,-0.6973471666668578,-3.1229024333332873
-18.509221333333134,-1.8973587833335246,-2.353746066666621
-19.3453999999998,-3.097370400000191,-1.584589699999954
-19.3453999999998,-3.097370400000191,-1.5845896999999536
-15.097486433333131,-8.596359266666857,2.395235866666713
-10.849572866666463,-14.095348133333523,6.3750614333333795
-6.601659299999796,-19.59433700000019,10.354887000000046
-6.601659299999795,-19.59433700000019,10.354887000000048
2.130339466666871,-19.59433700000019,12.640015333333382
10.862338233333539,-19.59433700000019,14.925143666666715
19.594337000000206,-19.59433700000019,17.21027200000005
19.59433700000021,-16.24643266666686,9.509134100000049
19.59433700000021,-12.898528333333525,1.8079962000000478
19.59433700000021,-9.550624000000193,-5.893141699999952
19.59433700000021,-9.550624000000193,-5.893141699999952
19.59433700000021,-9.550624000000193,-5.893141699999952
18.26347366666688,-0.25053400000019366,-9.030405966666619
16.932610333333546,9.049555999999805,-12.167670233333284
15.601747000000216,18.349645999999805,-15.304934499999952
15.601747000000216,18.349645999999805,-15.304934499999952
15.713450000000217,18.253899999999806,-14.960250666666617
15.825153000000219,18.158153999999804,-14.615566833333283
15.936856000000219,18.062407999999802,-14.270882999999948
17.15601633333355,7.064429666666469,-8.93785259999995
18.375176666666885,-3.9335486666668653,-3.6048221999999495
19.59433700000022,-14.9315270000002,1.72820820000005
19.594337000000223,-14.9315270000002,1.72820820000005
19.594337000000223,-14.9315270000002,1.72820820000005
18.59858300000022,-16.4857970000002,4.721854133333384
17.602829000000224,-18.040067000000196,7.715500066666717
16.607075000000222,-19.594337000000195,10.709146000000052
16.607075000000222,-19.594337000000195,10.709146000000052
9.81232866666689,-15.119826000000197,8.439975166666718
3.017582333333557,-10.645315000000199,6.170804333333385
-3.7771639999997753,-6.170804000000199,3.901633500000051
-8.593167999999777,-3.3271596666668657,1.6962930000000513
-13.409171999999776,-0.483515333333532,-0.5090474999999487
-18.225175999999777,2.3601289999998016,-2.7143879999999485
-18.225175999999777,2.3601289999998016,-2.7143879999999485
-18.225175999999777,2.3601289999998016,-2.7143879999999485
-17.82623633333311,-0.2920242000001984,-1.7856555999999486
-17.42729666666644,-2.9441774000001986,-0.8569231999999487
-17.028356999999772,-5.596330600000198,0.07180920000005135
-17.028356999999772,-5.596330600000198,0.07180920000005135
-13.093212333333106,-10.262332733333531,4.677172800000052
-9.15806766666644,-14.928334866666864,9.282536400000051
-5.222922999999774,-19.594337000000195,13.887900000000052
-5.222922999999774,-19.594337000000195,13.887900000000052
3.049497000000226,-19.594337000000195,14.140030000000051
11.321917000000226,-19.594337000000195,14.392160000000048
19.594337000000227,-19.594337000000195,14.644290000000048
19.594337000000227,-19.594337000000195,14.644290000000048
19.45071900000023,-15.423020533333528,6.92081133333338
19.30710100000023,-11.25170406666686,-0.8026673333332864
19.16348300000023,-7.080387600000194,-8.526145999999953
19.16348300000023,-7.080387600000194,-8.526145999999953
17.663468666666898,1.7824639333331385,-9.202748333333286
16.16345433333356,10.64531546666647,-9.87935066666662
14.663440000000229,19.508166999999805,-10.55595299999995
14.663440000000229,19.5081669999998,-10.55595299999995
14.334713000000228,18.387942999999805,-10.30063149999995
14.005986000000227,17.267718999999804,-10.04530999999995
13.677259000000227,16.147494999999807,-9.789988499999948
13.677259000000227,16.147494999999807,-9.789988499999948
15.649618333333562,6.276123499999805,-6.209102733333281
17.621977666666897,-3.595248000000197,-2.6282169666666135
19.59433700000023,-13.4666195000002,0.9526688000000529
19.594337000000234,-13.4666195000002,0.9526688000000529
19.134758333333565,-15.5091920000002,4.5207882000000525
18.675179666666896,-17.5517645000002,8.088907600000052
18.21560100000023,-19.594337000000202,11.65702700000005
18.215601000000227,-19.594337000000206,11.65702700000005
12.461290266666893,-15.691108233333537,8.794233566666719
6.706979533333559,-11.78787946666687,5.9314401333333855
0.9526688000002265,-7.884650700000204,3.068646700000052
0.9526688000002265,-7.884650700000203,3.068646700000052
-5.832503133333108,-4.1250399000002025,0.4452171333333852
-12.617675066666441,-0.36542910000020257,-2.1782124333332815
-19.402846999999774,3.394181699999798,-4.801641999999949
-19.402846999999774,3.394181699999798,-4.801641999999948
-19.46986866666644,1.1186278333331308,-3.8537605333332805
-19.53689033333311,-1.156926033333536,-2.905879066666614
-19.603911999999774,-3.432479900000203,-1.9579975999999475
-19.603911999999774,-3.432479900000203,-1.9579975999999475
-14.344286999999774,-8.819765600000203,2.8803469333333855
-9.084661999999774,-14.207051300000204,7.718691466666719
-3.8250369999997744,-19.594337000000206,12.557036000000053
-3.8250369999997744,-19.59433700000021,12.557036000000053
3.981421000000226,-19.49220866666688,12.592142666666723
11.787879000000226,-19.390080333333547,12.62724933333339
19.594337000000227,-19.287952000000217,12.66235600000006
19.594337000000227,-19.287952000000217,12.66235600000006
18.841138666666897,-14.998548866666885,6.601659333333392
18.087940333333567,-10.709145733333552,0.5409626666667252
17.334742000000237,-6.419742600000219,-5.519733999999942
17.334742000000237,-6.419742600000219,-5.519733999999942
16.6709056666669,1.7696979333331155,-6.100590766666609
16.007069333333565,9.959138466666449,-6.681447533333276
15.34323300000023,18.14857899999978,-7.2623042999999425
15.34323300000023,18.148578999999785,-7.2623042999999425
15.087911666666898,18.164536333333118,-7.846352533333275
14.832590333333565,18.18049366666645,-8.43040076666661
14.577269000000234,18.196450999999783,-9.014448999999944
14.577269000000234,18.196450999999783,-9.014448999999944
16.249625000000233,8.289972666666449,-6.933577766666612
17.92198100000023,-1.6165056666668836,-4.8527065333332775
19.594337000000227,-11.522984000000216,-2.7718352999999443
19.594337000000227,-11.522984000000216,-2.7718352999999443
19.342207333333562,-14.213435000000215,1.3771411333333887
19.090077666666897,-16.903886000000217,5.526117566666723
18.837948000000228,-19.594337000000216,9.675094000000056
18.837948000000228,-19.59433700000022,9.675094000000056
13.070870966666897,-17.56772200000022,7.520817666666723
7.303793933333565,-15.541107000000224,5.36654133333339
1.5367169000002303,-13.514492000000226,3.212265000000056
1.5367169000002303,-13.514492000000226,3.212265000000056
-5.510159399999769,-9.99743683333356,1.7952300666667227
-12.557035699999771,-6.480381666666893,0.37819513333338933
-19.60391199999977,-2.963326500000226,-1.038839799999944
-19.603911999999774,-2.963326500000226,-1.038839799999944
-19.527315666666443,-5.794204666666893,-1.2941614333332774
-19.450719333333108,-8.62508283333356,-1.5494830666666106
-19.374122999999777,-11.455961000000228,-1.804804699999944
-19.37412299999978,-11.455961000000228,-1.804804699999944
-13.086828333333111,-14.168753000000228,1.8175708666667225
-6.799533666666445,-16.881545000000227,5.43994643333339
-0.5122389999997784,-19.594337000000223,9.062322000000057
-0.5122389999997784,-19.594337000000223,9.062322000000057
-0.5122389999997784,-19.594337000000223,9.062322000000057
6.189953000000222,-19.517740666666896,9.825095000000054
12.892145000000221,-19.44114433333357,10.587868000000055
19.59433700000022,-19.36454800000024,11.350641000000055
19.594337000000223,-15.451744433333571,4.508021666666722
19.594337000000223,-11.5389408666669,-2.334597666666611
19.594337000000223,-7.626137300000231,-9.177216999999944
19.594337000000223,-7.626137300000231,-9.177216999999944
19.594337000000223,-7.626137300000231,-9.177216999999944
19.594337000000223,-7.626137300000231,-9.177216999999944
19.594337000000223,-7.626137300000231,-9.177216999999944
19.594337000000223,-7.626137300000231,-9.177216999999944
18.777308333333554,0.16755479999976952,-9.895308666666613
17.96027966666689,7.961246899999771,-10.61340033333328
17.14325100000022,15.754938999999771,-11.331491999999946
17.143251000000216,15.754938999999771,-11.331491999999946
17.960279666666885,4.255891666666437,-6.5218711999999455
18.777308333333554,-7.2431556666668975,-1.7122503999999452
19.59433700000022,-18.74220300000023,3.0973704000000546
19.594337000000223,-18.74220300000023,3.0973704000000546
17.781554000000227,-18.98156700000023,4.530362933333389
15.968771000000231,-19.22093100000023,5.963355466666722
14.15598800000023,-19.46029500000023,7.396348000000056
14.15598800000023,-19.46029500000023,7.396348000000056
5.68888500000023,-13.57194000000023,5.3952648666667224
-2.7782179999997703,-7.683585000000232,3.394181733333389
-11.245320999999771,-1.7952300000002321,1.3930986000000558
-11.245320999999771,-1.7952300000002321,1.3930986000000558
-13.744281666666438,0.6430913333331011,-0.36862053333327766
-16.243242333333104,3.0814126666664343,-2.130339666666611
-18.742202999999773,5.519733999999768,-3.8920587999999445
-18.742202999999773,5.519733999999768,-3.892058799999944
-18.42943399999977,2.200552999999768,-3.6878014999999436
-18.116664999999767,-1.118628000000232,-3.4835441999999426
-17.803895999999764,-4.4378090000002315,-3.279286899999942
-17.803895999999764,-4.4378090000002315,-3.279286899999942
-10.527229833333097,-9.489985000000232,3.3175854000000555
-3.2505636666664324,-14.54216100000023,9.914457700000053
4.026102500000232,-19.594337000000227,16.511330000000054
4.026102500000232,-19.594337000000227,16.51133000000005
9.215514000000232,-19.300717333333562,14.538970333333387
14.404925500000232,-19.007097666666894,12.56661066666672
19.59433700000023,-18.713478000000226,10.594251000000057
19.594337000000234,-18.713478000000226,10.594251000000057
18.95603333333357,-13.875133666666892,4.409085000000057
18.317729666666906,-9.03678933333356,-1.7760809999999434
17.679426000000245,-4.198445000000227,-7.961246999999943
17.679426000000245,-4.198445000000227,-7.961246999999943
16.233667333333578,3.7356739999997735,-8.28359066666661
14.78790866666691,11.669792999999773,-8.605934333333275
13.342150000000244,19.603911999999774,-8.928277999999942
13.34215000000024,19.603911999999774,-8.928277999999942
13.686834333333573,18.46773133333311,-9.25381266666661
14.031518666666907,17.33155066666644,-9.579347333333276
14.37620300000024,16.195369999999777,-9.904881999999944
14.37620300000024,16.19536999999978,-9.904881999999944
16.115581000000237,5.953781666666445,-6.544211543333277
17.854959000000235,-4.287806666666888,-3.1835410866666103
19.594337000000234,-14.529395000000221,0.17712937000005624
19.594337000000234,-14.529395000000221,0.17712937000005624
18.997523333333564,-16.21770900000022,3.0526889133333897
18.4007096666669,-17.90602300000022,5.928248456666723
17.803896000000233,-19.59433700000022,8.803808000000057
17.803896000000233,-19.594337000000223,8.803808000000057
11.743198953333566,-17.20708033333356,6.623999866666723
5.6825019066669,-14.819823666666897,4.44419173333339
-0.3781951399997645,-12.432567000000228,2.264383600000056
-0.3781951399997645,-12.432567000000228,2.264383600000056
-6.636766093333098,-8.261250078333562,1.1441600333333894
-12.895337046666432,-4.089933156666897,0.02393646666672285
-19.153907999999763,0.08138376499977025,-1.096287099999944
-19.153907999999763,0.08138376499977025,-1.096287099999944
-19.30071766666643,-2.047360156666897,-0.8920298333332771
-19.447527333333095,-4.176104078333564,-0.6877725666666105
-19.594336999999758,-6.304848000000232,-0.48351529999994386
-19.594336999999758,-6.304848000000232,-0.48351529999994386
-13.638960733333093,-10.734677666666899,2.7080048000000563
-7.683584466666425,-15.164507333333567,5.899524900000056
-1.7282081999997594,-19.594337000000234,9.091045000000056
-1.7282081999997594,-19.594337000000237,9.091045000000056
5.379306866666908,-19.55603900000024,9.266578666666723
12.486821933333573,-19.517741000000242,9.44211233333339
19.594337000000237,-19.479443000000245,9.617646000000056
19.594337000000237,-19.479443000000245,9.617646000000056
19.58157133333357,-14.48790566666691,4.508022166666723
19.568805666666904,-9.496368333333574,-0.6016016666666107
19.556040000000237,-4.504831000000241,-5.7112254999999434
19.556040000000237,-4.504831000000241,-5.7112254999999434
19.556040000000237,-4.504831000000241,-5.7112254999999434
17.749639666666905,3.5314166666664257,-6.627191999999944
15.943239333333574,11.567664333333092,-7.543158499999945
14.136839000000242,19.603911999999756,-8.459124999999945
14.759185333333575,17.823043999999758,-9.18679133333328
15.381531666666907,16.042175999999753,-9.914457666666614
16.00387800000024,14.261307999999753,-10.642123999999948
16.00387800000024,14.261307999999753,-10.642123999999948
17.2006976666669,3.323968666666421,-7.070812933333282
18.397517333333568,-7.613370666666911,-3.4995018666666144
19.594337000000234,-18.550710000000244,0.07180920000005268
19.594337000000234,-18.550710000000247,0.07180920000005268
19.594337000000234,-18.550710000000247,0.07180920000005268
18.9209266666669,-18.898585666666914,2.42395946666672
18.247516333333568,-19.24646133333358,4.776109733333386
17.57410600000024,-19.594337000000248,7.128260000000053
10.980425300000237,-16.977290666666914,5.465478100000053
4.386744600000237,-14.360244333333577,3.802696200000053
-2.2069360999997634,-11.743198000000243,2.139914300000053
-2.2069360999997634,-11.743198000000243,2.1399143000000533
-7.935714733333096,-9.110194000000243,0.55372876666672
-13.664493366666429,-6.4771900000002445,-1.0324567666666133
-19.39327199999976,-3.8441860000002444,-2.6186422999999466
-19.393271999999765,-3.8441860000002444,-2.6186422999999466
-19.393271999999765,-3.8441860000002444,-2.6186422999999466
-19.15071666666643,-5.762289333333578,-2.819708099999947
-18.908161333333098,-7.680392666666911,-3.020773899999947
-18.665605999999766,-9.598496000000246,-3.2218396999999475
-18.665605999999766,-9.598496000000248,-3.2218396999999475
-12.627249733333096,-12.930443000000247,-0.5154306333332809
-6.5888934666664305,-16.26239000000025,2.190978433333386
-0.550537199999764,-19.594337000000248,4.897387500000053
6.1644208666669025,-19.457102000000248,5.711225200000052
12.87937893333357,-19.319867000000247,6.5250629000000515
19.594337000000234,-19.18263200000025,7.338900600000051
19.594337000000237,-19.18263200000025,7.338900600000051
19.594337000000237,-19.18263200000025,7.338900600000051
18.87624533333357,-13.530449733333583,2.8165165666667185
18.158153666666905,-7.878267466666916,-1.705867466666615
17.44006200000024,-2.2260852000002487,-6.228251499999948
17.44006200000024,-2.2260852000002487,-6.228251499999948
16.559202333333573,4.827174199999752,-5.8995248666666145
15.678342666666907,11.880433599999753,-5.5707982333332815
14.797483000000241,18.933692999999753,-5.2420715999999485
12.83469800000024,18.582625666666416,-5.826119866666615
10.871913000000239,18.231558333333084,-6.410168133333282
8.909128000000237,17.88049099999975,-6.9942163999999485
8.909128000000237,17.880490999999754,-6.9942163999999485
8.909128000000237,17.880490999999754,-6.9942163999999485
12.470864333333571,9.020831333333085,-5.637820366666616
16.032600666666905,0.16117166666641816,-4.281424333333283
19.594337000000237,-8.698488000000248,-2.92502829999995
19.594337000000237,-8.698488000000248,-2.92502829999995
18.914543333333572,-12.330437666666915,0.8601148000000499
18.23474966666691,-15.96238733333358,4.6452579000000505
17.554956000000246,-19.594337000000248,8.430401000000051
10.12828876666691,-16.18260233333358,6.537829333333384
2.701621533333578,-12.770867666666916,4.645257666666718
-4.725045699999755,-9.35913300000025,2.7526860000000517
-4.725045699999755,-9.35913300000025,2.7526860000000517
-4.725045699999755,-9.35913300000025,2.7526860000000517
-7.160175799999755,-3.502693333333584,0.7994757333333852
-9.595305899999754,2.3537463333330826,-1.1537345333332814
-12.030435999999753,8.21018599999975,-3.106944799999948
-12.030435999999753,8.21018599999975,-3.106944799999948
-14.26769166666642,8.28997399999975,-3.901633199999949
-16.504947333333085,8.369761999999751,-4.6963215999999495
-18.74220299999975,8.449549999999752,-5.4910099999999495
-18.742202999999748,8.449549999999752,-5.4910099999999495
-16.725161999999745,1.747357666666418,-4.492064333333283
-14.708120999999744,-4.954834666666915,-3.4931186666666165
-12.691079999999744,-11.657027000000248,-2.49417299999995
-12.691079999999744,-11.657027000000248,-2.4941729999999502
-2.5197053333330772,-14.302797000000249,2.570769333333383
7.651669333333589,-16.94856700000025,7.635711666666716
17.823044000000255,-19.594337000000248,12.700654000000052
18.413475000000258,-16.53366933333358,7.913373933333385
19.003906000000256,-13.473001666666917,3.126093866666718
19.594337000000255,-10.412334000000252,-1.6611861999999489
19.594337000000255,-10.41233400000025,-1.6611861999999489
19.153907333333592,-1.9899123333335833,-4.252700466666615
18.71347766666693,6.432509333333083,-6.844214733333281
18.273048000000262,14.854930999999752,-9.435728999999947
18.273048000000262,14.854930999999752,-9.435728999999947
15.531532333333596,16.437924666666415,-9.87296733333328
12.79001666666693,18.020918333333082,-10.310205666666613
10.048501000000263,19.60391199999975,-10.747443999999945
10.048501000000263,19.60391199999975,-10.747443999999945
10.048501000000263,19.60391199999975,-10.747443999999945
13.230446333333594,10.236800666666417,-9.410197166666611
16.412391666666924,0.8696893333330825,-8.072950333333276
19.594337000000255,-8.49742200000025,-6.735703499999943
18.83794700000026,-12.196393666666916,-2.1654466666666097
18.08155700000026,-15.895365333333581,2.404810166666724
17.32516700000026,-19.594337000000248,6.975067000000057
17.325167000000256,-19.594337000000248,6.975067000000057
10.501696933333589,-15.435786566666915,6.205910733333391
3.678226866666922,-11.277236133333583,5.4367544666667245
-3.145243199999745,-7.11868570000025,4.667598200000058
-3.145243199999745,-7.11868570000025,4.667598200000058
-3.145243199999745,-7.11868570000025,4.667598200000058
-6.173995799999745,-3.5601407666669167,3.4516290000000587
-9.202748399999745,-0.001595833333582893,2.2356598000000587
-12.231500999999744,3.5569490999997506,1.0196906000000583
-14.357053333333077,3.582481266666417,-0.20585309999994172
-16.48260566666641,3.6080134333330833,-1.4313967999999415
-18.60815799999974,3.6335455999997497,-2.6569404999999415
-18.608157999999737,3.6335455999997497,-2.6569404999999415
-16.690054499999736,-3.6239716000002495,-1.7633148659999414
-14.771950999999737,-10.881488800000248,-0.8696892319999412
-12.853847499999736,-18.139006000000247,0.023936402000058827
-12.853847499999736,-18.13900600000025,0.023936402000058827
-12.853847499999736,-18.13900600000025,0.023936402000058827
-2.5580036666664014,-18.624116333333586,3.2377972680000586
7.737840166666932,-19.109226666666917,6.451658134000059
18.033684000000267,-19.59433700000025,9.665519000000058
17.293251500000263,-15.51238300000025,4.53993750000006
16.552819000000262,-11.43042900000025,-0.5856439999999395
15.81238650000026,-7.34847500000025,-5.711225499999938
15.81238650000026,-7.34847500000025,-5.711225499999938
16.077282666666928,1.2941616666664162,-6.355912533333272
16.34217883333359,9.936798333333083,-7.000599566666605
16.607075000000254,18.57943499999975,-7.645286599999939
16.607075000000254,18.579434999999748,-7.645286599999939
16.607075000000254,18.579434999999748,-7.645286599999939
15.63685266666692,17.787937666666412,-8.034652066666608
14.666630333333586,16.99644033333308,-8.424017533333275
13.696408000000252,16.204942999999744,-8.813382999999943
13.696408000000252,16.204942999999744,-8.813382999999943
15.662384333333584,5.599521833333078,-5.94739786666661
17.628360666666918,-5.005899333333588,-3.0814127333332775
19.594337000000255,-15.611320500000254,-0.2154275999999443
18.49964633333359,-16.938992666666923,2.420767933333389
17.404955666666925,-18.26666483333359,5.056963466666722
16.31026500000026,-19.59433700000026,7.693159000000056
16.31026500000026,-19.594337000000262,7.693159000000056
16.31026500000026,-19.594337000000262,7.693159000000056
10.227227166666928,-16.450690000000264,6.001653433333391
4.144189333333595,-13.307043000000263,4.310147866666724
-1.9388484999997389,-10.163396000000263,2.6186423000000576
-1.9388484999997389,-10.163396000000263,2.6186423000000576
-6.23782599999974,-6.346337866666931,1.1920328000000573
-10.536803499999742,-2.5292797333335972,-0.23457669999994266
-14.835780999999743,1.2877783999997365,-1.6611861999999427
-16.425157999999744,0.35266296666640323,-2.1367226999999427
-18.01453499999975,-0.58245246666693,-2.6122591999999427
-19.603911999999752,-1.517567900000263,-3.0877956999999427
-19.603911999999756,-1.517567900000263,-3.0877956999999427
-19.603911999999756,-1.517567900000263,-3.0877956999999427
-16.188985666666422,-7.543157600000263,-1.6196964333332762
-12.77405933333309,-13.568747300000263,-0.15159716666660947
-9.359132999999757,-19.594337000000262,1.3165021000000572
-9.359132999999757,-19.594337000000262,1.3165021000000572
0.004787333333576764,-19.594337000000262,2.5771525666667245
9.368707666666909,-19.594337000000262,3.837803033333392
18.732628000000243,-19.594337000000262,5.09845350000006
19.019864333333576,-15.247486933333596,0.8058589000000597
19.30710066666691,-10.900636866666929,-3.4867356999999406
19.594337000000245,-6.553786800000261,-7.779330299999941
19.594337000000248,-6.553786800000261,-7.779330299999941
19.594337000000248,-6.553786800000261,-7.779330299999941
18.336878333333583,2.130339466666405,-7.3420920666666065
17.07941966666692,10.814465733333071,-6.904853833333273
15.821961000000252,19.498591999999736,-6.467615599999938
15.821961000000252,19.498591999999736,-6.467615599999938
15.662385000000251,18.08794033333307,-7.105919399999938
15.50280900000025,16.677288666666403,-7.744223199999939
15.343233000000248,15.266636999999738,-8.38252699999994
15.343233000000248,15.266636999999738,-8.382526999999937
16.760267666666916,4.887813333333071,-5.995270133333271
18.177302333333582,-5.491010333333596,-3.6080132666666045
19.594337000000248,-15.869834000000262,-1.2207563999999376
19.594337000000248,-15.869834000000262,-1.2207563999999373
18.579433666666915,-17.111335000000263,1.527142400000062
17.56453033333358,-18.352836000000263,4.275041200000061
16.549627000000243,-19.594337000000262,7.02294000000006
16.54962700000024,-19.594337000000262,7.02294000000006
9.438920333333575,-16.517712000000262,5.331434333333394
2.3282136666669104,-13.441087000000266,3.6399286666667265
-4.782492999999754,-10.364462000000268,1.9484230000000604
-4.782492999999754,-10.364462000000268,1.9484230000000604
-9.722965999999754,-6.375061700000267,-0.21223619999993973
-14.663438999999755,-2.385661400000268,-2.37289539999994
-19.603911999999756,1.6037388999997322,-4.53355459999994
-19.603911999999756,1.6037388999997322,-4.53355459999994
-18.882628666666424,-3.339925733333601,-4.894196233333274
-18.16134533333309,-8.283590366666933,-5.254837866666607
-17.44006199999976,-13.227255000000268,-5.61547949999994
-17.44006199999976,-13.227255000000268,-5.61547949999994
-8.127205999999761,-15.349615666666935,-0.6335166666666069
1.18565000000024,-17.4719763333336,4.348446166666727
10.49850600000024,-19.594337000000266,9.33040900000006
10.49850600000024,-19.594337000000266,9.330409000000062
13.53044966666691,-18.317729333333602,7.179324433333395
16.562393333333578,-17.04112166666694,5.02823986666673
19.594337000000245,-15.764514000000275,2.8771553000000636
19.594337000000248,-15.764514000000275,2.8771553000000636
19.256036333333583,-8.95700133333361,-0.25691746666660276
18.917735666666918,-2.1494886666669415,-3.390990233333269
18.579435000000256,4.658023999999727,-6.5250629999999346
18.579435000000256,4.658023999999727,-6.5250629999999346
16.39324366666692,9.639986666666392,-5.877184333333267
14.207052333333584,14.621949333333058,-5.229305666666601
12.020861000000247,19.603911999999728,-4.581426999999935
12.020861000000247,19.603911999999728,-4.581426999999936
14.267690666666914,15.269827766666394,-6.968683999999937
16.51452033333358,10.93574353333306,-9.355940999999937
18.76135000000025,6.601659299999727,-11.743197999999937
18.761350000000245,6.601659299999727,-11.743197999999937
19.03901233333358,-2.1303394666669395,-7.527200019999938
19.316674666666916,-10.862338233333608,-3.3112020399999387
19.594337000000248,-19.594337000000273,0.9047959400000612
19.59433700000025,-19.594337000000277,0.9047959400000612
16.338986666666923,-19.201780666666945,2.9377942933333947
13.083636333333587,-18.809224333333614,4.970792646666728
9.828286000000253,-18.416668000000282,7.003791000000061
9.828286000000254,-18.416668000000282,7.003791000000061
2.599493000000255,-13.552791000000282,3.9846129666667287
-4.629299999999744,-8.688914000000281,0.965434933333395
-11.858092999999743,-3.825037000000281,-2.0537430999999384
-14.440032666666411,-3.949506333333614,-3.1643920666666054
-17.02197233333308,-4.073975666666946,-4.275041033333272
-19.60391199999975,-4.198445000000279,-5.38568999999994
-19.603911999999745,-4.198445000000279,-5.38568999999994
-19.603911999999745,-4.198445000000279,-5.38568999999994
-18.45177299999975,-9.279345000000278,-3.2760952666666063
-17.299633999999752,-14.360245000000278,-1.1665005333332725
-16.147494999999758,-19.44114500000028,0.943094200000061
-16.14749499999976,-19.44114500000028,0.943094200000061
-7.18889833333309,-19.49220900000028,3.5122681333333943
1.7696983333335783,-19.54327300000028,6.081442066666728
10.728295000000246,-19.594337000000284,8.650616000000062
13.67406833333358,-17.618786500000283,5.366541566666728
16.619841666666915,-15.643236000000286,2.082467133333395
19.565615000000246,-13.667685500000283,-1.201607299999939
19.565615000000246,-13.667685500000283,-1.201607299999939
19.565615000000246,-13.667685500000283,-1.201607299999939
18.994332666666914,-5.800588333333619,-3.8792928666666064
18.42305033333358,2.0665088333330472,-6.556978433333273
17.851768000000245,9.933605999999713,-9.23466399999994
17.851768000000245,9.933605999999713,-9.23466399999994
17.67623433333358,13.157041333333048,-9.649561666666607
17.500700666666912,16.380476666666382,-10.064459333333273
17.325167000000246,19.603911999999713,-10.479356999999938
18.08155700000025,9.837860499999714,-9.282536833333273
18.83794700000025,0.07180899999971284,-8.085716666666606
19.594337000000248,-9.694242500000287,-6.88889649999994
19.59433700000025,-9.694242500000287,-6.88889649999994
19.59433700000025,-9.694242500000287,-6.88889649999994
19.406037333333586,-12.994274000000289,-1.5079933333332731
19.21773766666692,-16.294305500000288,3.8729098333333933
19.029438000000255,-19.594337000000284,9.25381300000006
19.029438000000255,-19.594337000000284,9.25381300000006
13.670875933333589,-18.51560366666695,7.514434466666728
8.312313866666921,-17.43687033333362,5.7750559333333955
2.953751800000255,-16.358137000000287,4.035677400000063
2.953751800000255,-16.358137000000287,4.035677400000062
-4.536746133333078,-12.742144500000288,1.9452316666667289
-12.02724406666641,-9.126152000000289,-0.1452140666666044
-19.517741999999743,-5.510159500000289,-2.235659799999938
-19.517741999999743,-5.510159500000289,-2.235659799999938
-19.546465333333078,-6.70059650000029,-2.637791366666604
-19.575188666666417,-7.89103350000029,-3.0399229333332705
-19.603911999999752,-9.081470500000291,-3.4420544999999367
-19.603911999999756,-9.081470500000291,-3.4420544999999367
-13.875133533333086,-12.585759333333625,0.1292565666667295
-8.146355066666418,-16.090048166666957,3.7005676333333954
-2.4175765999997516,-19.59433700000029,7.271878700000062
-2.4175765999997516,-19.594337000000294,7.271878700000062
4.919727933333582,-19.57837966666696,8.519763133333395
12.257032466666914,-19.56242233333363,9.76764756666673
19.594337000000245,-19.546465000000296,11.015532000000064
19.594337000000248,-19.546465000000296,11.015532000000064
19.571996333333583,-15.684725666666964,4.476107333333398
19.54965566666692,-11.822986333333631,-2.0633173333332686
19.527315000000254,-7.961247000000298,-8.602741999999935
19.527315000000254,-7.961247000000298,-8.602741999999935
18.57305066666692,0.8920296666663697,-9.563389666666602
17.61878633333359,9.745306333333037,-10.524037333333268
16.664522000000257,18.598582999999703,-11.484684999999935
16.664522000000257,18.598582999999703,-11.484684999999935
16.227284000000253,17.529423999999697,-11.286810999999936
15.79004600000025,16.460264999999694,-11.088936999999937
15.352808000000246,15.39110599999969,-10.891062999999939
15.352808000000246,15.39110599999969,-10.891062999999939
15.352808000000246,15.39110599999969,-10.891062999999939
16.766651000000248,4.871855666666355,-8.232526566666605
18.180494000000248,-5.6473946666669805,-5.573990133333271
19.594337000000248,-16.16664500000032,-2.915453699999937
18.927309333333582,-17.30920900000032,-0.23138523333327057
18.260281666666916,-18.451773000000316,2.452683233333396
17.593254000000254,-19.594337000000312,5.136751700000063
17.593254000000254,-19.594337000000312,5.1367517000000635
12.113414200000252,-17.274102333333648,4.29419036666673
6.633574400000252,-14.953867666666985,3.451629033333397
1.153734600000251,-12.633633000000321,2.609067700000064
1.153734600000251,-12.633633000000321,2.609067700000064
1.153734600000251,-12.633633000000321,2.609067700000064
-5.647394599999749,-9.719774933333655,0.4420255333333973
-12.448523799999748,-6.805916866666987,-1.7250166333332695
-19.249652999999746,-3.8920588000003207,-3.8920587999999365
-19.36773933333308,-4.779301466666987,-4.115465299999936
-19.485825666666415,-5.666544133333654,-4.338871799999936
-19.603911999999752,-6.553786800000321,-4.562278299999935
-19.603911999999756,-6.553786800000321,-4.562278299999935
-13.77938786666642,-10.900636866666988,-1.4058647333332681
-7.954863733333087,-15.247486933333656,1.7505488333333987
-2.1303395999997528,-19.594337000000323,4.906962400000065
-2.1303395999997528,-19.594337000000323,4.906962400000065
-2.1303395999997528,-19.594337000000323,4.906962400000065
5.111219266666914,-19.428378000000322,5.832503166666732
12.35277813333358,-19.262419000000325,6.758043933333398
19.594337000000248,-19.09646000000033,7.683584700000065
19.594337000000248,-12.796399493333661,2.803750366666731
19.594337000000248,-6.496338986666994,-2.076083966666603
19.594337000000248,-0.196278480000327,-6.9559182999999365
19.594337000000248,-0.196278480000327,-6.9559182999999365
17.66027600000025,6.403785013333007,-7.7889051999999355
15.726215000000247,13.003848506666339,-8.621892099999934
13.792154000000247,19.60391199999967,-9.454878999999934
13.792154000000247,19.60391199999967,-9.454878999999934
15.403872000000248,16.121963666666336,-9.939989999999936
17.01559000000025,12.640015333333002,-10.425100999999936
18.62730800000025,9.158066999999669,-10.910211999999937
18.62730800000025,9.158066999999669,-10.910211999999937
18.62730800000025,9.158066999999669,-10.910211999999937
18.949651000000248,-0.4260676666669981,-6.049526666666604
19.271994000000248,-10.010202333333666,-1.1888413333332704
19.594337000000248,-19.594337000000333,3.6718440000000627
18.193260000000247,-19.594337000000333,6.422934333333397
16.79218300000025,-19.594337000000333,9.17402466666673
15.391106000000255,-19.594337000000333,11.925115000000062
15.391106000000255,-19.594337000000333,11.925115000000062
7.49847666666692,-15.860258666667002,9.330409133333397
-0.39415266666641396,-12.12618033333367,6.73570326666673
-8.286781999999748,-8.392102000000337,4.140997400000063
-8.286781999999747,-8.392102000000337,4.140997400000064
-8.286781999999747,-8.392102000000337,4.140997400000064
-12.059158666666413,-6.592084733333671,2.985667100000064
-15.831535333333079,-4.792067466667004,1.8303368000000642
-19.60391199999975,-2.9920502000003375,0.6750065000000642
-17.74325599999975,-7.846352133333671,0.7260708333333977
-15.882599999999748,-12.700654066667004,0.7771351666667311
-14.021943999999747,-17.554956000000338,0.8281995000000646
-14.021943999999747,-17.554956000000335,0.8281995000000646
-7.160175666666414,-18.234749666667,3.872909666666731
-0.2984073333330806,-18.914543333333665,6.917619833333398
6.563361000000253,-19.594337000000326,9.962330000000064
6.563361000000253,-19.594337000000326,9.962330000000064
6.563361000000253,-19.594337000000326,9.962330000000064
10.907019666666919,-18.940076000000328,9.01444856666673
15.250678333333587,-18.285815000000326,8.066567133333395
19.59433700000025,-17.631554000000325,7.118685700000062
18.780499333333584,-11.242130366666991,2.9282198000000617
17.96666166666692,-4.852706733333657,-1.2622460999999383
17.15282400000025,1.5367168999996768,-5.452711999999939
17.15282400000025,1.5367168999996768,-5.452711999999939
15.08152766666692,7.5591152666663435,-6.3176139999999394
13.010231333333588,13.58151363333301,-7.18251599999994
10.938935000000257,19.603911999999678,-8.047417999999942
10.938935000000257,19.603911999999678,-8.047417999999942
10.938935000000257,19.603911999999678,-8.047417999999942
13.294277000000255,15.611320433333013,-8.63784899999994
15.649619000000252,11.618728866666345,-9.228279999999941
18.00496100000025,7.626137299999677,-9.818710999999942
18.00496100000025,7.626137299999677,-9.818710999999942
18.53475300000025,-1.4473541333336561,-6.218676519999941
19.06454500000025,-10.52084556666699,-2.6186420399999406
19.59433700000025,-19.594337000000323,0.9813924400000597
18.608158000000255,-19.594337000000323,2.781409793333393
17.621979000000255,-19.594337000000323,4.5814271466667265
16.63580000000026,-19.594337000000323,6.38144450000006
16.63580000000026,-19.594337000000323,6.38144450000006
16.63580000000026,-19.594337000000323,6.38144450000006
10.466591166666927,-17.101760333333658,5.3569665333333925
4.297382333333593,-14.609183666666993,4.332488566666726
-1.8718264999997405,-12.116607000000329,3.3080106000000584
-1.8718264999997405,-12.116607000000329,3.3080106000000584
-7.782521666666407,-10.131481200000328,2.4303425666667255
-13.693216833333075,-8.146355400000326,1.5526745333333924
-19.60391199999974,-6.1612296000003255,0.6750065000000594
-17.84538466666641,-9.78041373333366,-0.34308839999994073
-16.086857333333075,-13.399597866666994,-1.361183299999941
-14.32832999999974,-17.01878200000033,-2.3792781999999413
-14.32832999999974,-17.01878200000033,-2.3792781999999413
-14.32832999999974,-17.01878200000033,-2.3792781999999413
-7.894225266666408,-17.87730033333366,-1.185649699999941
-1.4601205333330747,-18.73581866666699,0.00797880000005898
4.973984200000259,-19.594337000000323,1.201607300000059
4.973984200000259,-19.594337000000323,1.2016073000000593
9.847435133333592,-19.211354666666992,2.644174533333392
14.720886066666926,-18.82837233333366,4.086741766666726
19.594337000000255,-18.44539000000033,5.529309000000059
19.594337000000255,-18.44539000000033,5.529309000000059
19.06135333333359,-13.840026666666995,3.046306233333393
18.528369666666922,-9.234663333333662,0.5633034666667266
17.995386000000256,-4.629300000000328,-1.9196992999999398
17.995386000000256,-4.629300000000328,-1.9196992999999398
16.29749733333359,3.1260943333330053,-3.301627533333273
14.599608666666924,10.881488666666337,-4.683555766666607
12.901720000000259,18.63688299999967,-6.06548399999994
12.901720000000259,18.63688299999967,-6.065483999999941
11.49745100000026,18.959225999999674,-7.058046666666608
10.09318200000026,19.281568999999674,-8.050609333333275
8.68891300000026,19.60391199999967,-9.043171999999942
8.68891300000026,19.60391199999967,-9.043171999999942
12.186819333333593,12.646398233333002,-8.037843333333276
15.684725666666926,5.688884466666335,-7.03251466666661
19.182632000000257,-1.2686293000003321,-6.0271859999999435
19.182632000000257,-1.2686293000003321,-6.0271859999999435
19.319867000000258,-7.377198533333665,-0.18670399999994322
19.45710200000026,-13.485767766666998,5.653778000000057
19.594337000000255,-19.594337000000333,11.49426000000006
19.594337000000255,-19.594337000000333,11.49426000000006
15.269827533333592,-18.403900333333667,9.831477900000058
10.945318066666923,-17.213463666667,8.16869580000006
6.620808600000256,-16.023027000000337,6.50591370000006
6.620808600000257,-16.023027000000337,6.50591370000006
1.5973557333335908,-13.463428000000334,5.765481133333393
-3.426097133333075,-10.903829000000334,5.025048566666726
-8.449549999999741,-8.344230000000332,4.284616000000059
-8.449549999999741,-8.344230000000332,4.284616000000058
-9.311260333333074,-7.894225466666999,3.445246133333391
-10.172970666666407,-7.444220933333665,2.6058762666667232
-11.034680999999738,-6.994216400000332,1.7665064000000559
-11.034680999999738,-6.994216400000332,1.7665064000000559
-13.527258333333073,-7.456986600000332,-2.720771066666611
-16.019835666666406,-7.919756800000332,-7.208048533333277
-18.512412999999743,-8.382527000000332,-11.695325999999943
-18.512412999999743,-8.382527000000332,-11.695325999999943
-12.994274533333078,-10.983616333333666,-11.398514666666609
-7.476136066666412,-13.584705666667,-11.101703333333276
-1.9579975999997454,-16.185795000000336,-10.804891999999944
-1.9579975999997454,-16.185795000000336,-10.804891999999944
5.226113933333588,-17.23261333333367,-6.304848399999943
12.41022546666692,-18.279431666667005,-1.8048047999999433
19.59433700000025,-19.32625000000034,2.695238800000057
19.59433700000025,-19.32625000000034,2.695238800000057
19.47625133333359,-12.898528507667004,1.6484201766667237
19.358165666666924,-6.470807015333672,0.6016015533333904
19.240080000000262,-0.043085523000337154,-0.44521706999994287
19.240080000000265,-0.043085523000337154,-0.44521706999994287
15.879409000000264,4.13780598466633,-1.2207564799999429
12.518738000000264,8.318697492332996,-1.9962958899999428
9.158067000000266,12.499588999999665,-2.7718352999999425
9.158067000000266,12.499588999999665,-2.7718352999999425
7.935714666666932,13.674068333332997,-3.4675866666666093
6.713362333333599,14.84854766666633,-4.163338033333276
5.491010000000266,16.02302699999966,-4.8590893999999425
