accx,accy,accz
11.1208515,-0.0718092,4.0931244
11.1208515,-0.0718092,4.0931244
11.1208515,-0.0718092,4.0931244
11.854901333333332,-1.0005415333333334,3.8186537333333326
12.588951166666666,-1.9292738666666667,3.5441830666666654
13.323000999999998,-2.8580061999999997,3.269712399999998
13.323000999999998,-2.8580061999999997,3.269712399999998
12.659164666666667,-3.5122678666666665,3.3782240999999984
11.995328333333335,-4.166529533333333,3.486735799999998
11.331492000000004,-4.8207911999999995,3.595247499999998
10.993191000000005,-4.322913999999999,3.646311833333332
10.654890000000005,-3.825036799999999,3.697376166666666
10.316589000000006,-3.3271595999999986,3.7484404999999996
10.316589000000006,-3.3271595999999986,3.7484404999999996
10.316589000000006,-3.3271595999999986,3.7484404999999996
10.03254366666667,-3.036731299999999,3.630354233333333
9.748498333333337,-2.7463029999999993,3.5122679666666663
9.464453000000004,-2.4558746999999994,3.3941816999999994
9.464453000000004,-2.4558746999999994,3.3941816999999994
9.458070000000005,-2.334596966666666,3.1994989666666656
9.451687000000005,-2.213319233333333,3.0048162333333317
9.445304000000005,-2.092041499999999,2.810133499999998
9.502751333333338,-2.0824669333333325,2.6665150666666646
9.560198666666672,-2.072892366666666,2.5228966333333314
9.617646000000006,-2.0633177999999988,2.3792781999999986
9.617646000000006,-2.0633177999999988,2.3792781999999986
9.617646000000006,-2.0633177999999988,2.3792781999999986
9.722966000000005,-1.9324654666666656,2.353746033333332
9.828286000000004,-1.8016131333333323,2.328213866666666
9.933606000000003,-1.670760799999999,2.3026816999999995
9.933606000000003,-1.670760799999999,2.3026816999999995
9.86977566666667,-1.4856526333333322,2.3792781999999995
9.805945333333336,-1.3005444666666655,2.455874699999999
9.742115000000004,-1.1154362999999987,2.5324711999999985
9.713391333333336,-1.0484143799999988,2.4494916666666655
9.68466766666667,-0.9813924599999989,2.3665121333333325
9.655944000000003,-0.914370539999999,2.2835325999999996
9.655944000000003,-0.914370539999999,2.2835326
9.655944000000003,-0.914370539999999,2.2835326
9.681476333333336,-1.0707550266666654,2.2356598333333335
9.707008666666669,-1.2271395133333318,2.1877870666666666
9.732541000000003,-1.3835239999999984,2.1399143
9.681476666666669,-1.3292681333333314,2.1718294666666664
9.630412333333334,-1.2750122666666646,2.2037446333333333
9.579348000000001,-1.2207563999999977,2.2356597999999996
9.579348,-1.2207563999999977,2.235659799999999
9.633603666666668,-1.233522499999998,2.235659799999999
9.687859333333334,-1.2462885999999984,2.235659799999999
9.742115000000002,-1.2590546999999987,2.235659799999999
9.742115000000004,-1.259054699999999,2.235659799999999
9.748498333333337,-1.294161433333332,2.1973615999999994
9.754881666666671,-1.3292681666666653,2.1590633999999995
9.761265000000007,-1.3643748999999985,2.1207651999999997
9.761265000000007,-1.3643748999999985,2.1207652
9.729349666666671,-1.437779833333332,2.069700866666667
9.697434333333335,-1.5111847666666656,2.0186365333333334
9.665519000000002,-1.5845896999999993,1.9675722000000002
9.665519,-1.5845896999999993,1.9675722000000002
9.585731,-1.3899069999999991,2.1048075333333336
9.505942999999998,-1.1952242999999991,2.2420428666666674
9.426154999999998,-1.000541599999999,2.379278200000001
9.426154999999996,-1.000541599999999,2.3792782000000012
9.470836333333331,-1.134585433333332,2.372895133333335
9.515517666666666,-1.2686292666666652,2.3665120666666684
9.560198999999999,-1.4026730999999983,2.360129000000002
9.560199,-1.4026730999999983,2.360129000000002
9.560199,-1.4026730999999983,2.360129000000002
9.671902166666667,-1.3962900666666649,2.3888527666666683
9.783605333333336,-1.3899070333333317,2.417576533333335
9.895308500000002,-1.3835239999999984,2.446300300000002
9.84105266666667,-1.4282052999999983,2.4271511333333353
9.786796833333335,-1.4728865999999983,2.4080019666666685
9.732541000000003,-1.5175678999999984,2.3888528000000018
9.732541000000003,-1.5175678999999984,2.3888528000000018
9.665519000000003,-1.4218222999999985,2.385661266666668
9.598497000000004,-1.3260766999999987,2.3824697333333344
9.531475000000006,-1.2303310999999988,2.3792782000000012
9.531475000000006,-1.2303310999999988,2.3792782000000012
9.566581666666671,-1.335651233333332,2.347363000000001
9.601688333333337,-1.4409713666666653,2.3154478000000007
9.636795000000005,-1.5462914999999986,2.2835326000000005
9.636795000000005,-1.5462914999999982,2.2835326
9.636795000000005,-1.4537374333333315,2.347363066666667
9.636795000000005,-1.3611833666666648,2.4111935333333334
9.636795000000005,-1.2686292999999982,2.4750240000000003
9.636795000000005,-1.2686292999999982,2.4750240000000003
9.601688333333337,-1.2877783999999985,2.433534233333334
9.566581666666671,-1.3069274999999987,2.3920444666666674
9.531475000000006,-1.3260765999999988,2.350554700000001
9.531475000000006,-1.3260765999999988,2.3505547000000013
9.572964666666671,-1.3260765999999988,2.3505547000000013
9.614454333333336,-1.3260765999999988,2.3505547000000013
9.655944000000003,-1.3260765999999988,2.3505547000000013
9.655944000000003,-1.3260765999999988,2.3505547000000013
9.65913566666667,-1.3069274999999987,2.340980133333334
9.662327333333335,-1.2877783999999985,2.3314055666666675
9.665519000000002,-1.2686292999999982,2.321831000000001
9.665519,-1.2686292999999982,2.321831000000001
9.6750935,-1.2750123333333319,2.2803412333333344
9.684667999999999,-1.281395366666665,2.238851466666668
9.694242499999998,-1.2877783999999985,2.1973617000000014
9.694242499999996,-1.2877783999999983,2.1973617000000014
9.639986666666664,-1.2877783999999983,2.2165108000000013
9.58573083333333,-1.2877783999999983,2.2356599000000013
9.531474999999995,-1.2877783999999983,2.254809000000001
9.531474999999995,-1.2877783999999983,2.254809000000001
9.566581666666663,-1.3579918333333314,2.309064866666668
9.601688333333328,-1.4282052666666647,2.363320733333335
9.636794999999994,-1.4984186999999978,2.4175766000000016
9.636794999999994,-1.4984186999999978,2.4175766000000016
9.643177999999994,-1.4760780666666644,2.484598500000001
9.649560999999993,-1.453737433333331,2.551620400000001
9.655943999999993,-1.4313967999999975,2.6186423000000008
9.655943999999993,-1.4313967999999975,2.6186423000000008
9.655943999999993,-1.4313967999999975,2.6186423000000008
9.566581499999993,-1.4218222333333308,2.5931101333333344
9.477218999999993,-1.412247666666664,2.567577966666668
9.387856499999993,-1.402673099999997,2.5420458000000017
9.464452999999994,-1.4186306999999971,2.433534133333335
9.541049499999994,-1.4345882999999973,2.325022466666668
9.617645999999995,-1.4505458999999974,2.2165108000000013
9.617645999999995,-1.4505458999999974,2.2165108000000013
9.652752666666663,-1.437779833333331,2.2069362000000012
9.687859333333328,-1.4250137666666642,2.197361600000001
9.722965999999994,-1.4122476999999976,2.1877870000000015
9.722965999999994,-1.4122476999999976,2.1877870000000015
9.64317833333333,-1.498418733333331,2.2165107333333345
9.563390666666663,-1.5845897666666644,2.2452344666666675
9.483602999999997,-1.6707607999999976,2.2739582000000005
9.483602999999997,-1.6707607999999976,2.2739582
9.557007666666664,-1.6611862666666644,2.3122564
9.63041233333333,-1.651611733333331,2.3505545999999997
9.703816999999995,-1.6420371999999974,2.3888527999999996
9.703816999999995,-1.6420371999999974,2.388852799999999
9.694242666666662,-1.6420371999999974,2.385661266666666
9.68466833333333,-1.6420371999999974,2.3824697333333322
9.675093999999996,-1.6420371999999974,2.3792781999999986
9.675093999999996,-1.6420371999999974,2.3792781999999986
9.687859666666663,-1.5590576666666642,2.4016188999999986
9.70062533333333,-1.476078133333331,2.423959599999998
9.713390999999996,-1.3930985999999976,2.4463002999999977
9.713390999999996,-1.3930985999999976,2.4463002999999977
9.70062533333333,-1.4601205333333311,2.3697037999999977
9.687859666666663,-1.5271424666666646,2.293107299999998
9.675093999999996,-1.594164399999998,2.2165107999999987
9.675093999999996,-1.594164399999998,2.2165107999999987
9.668710666666662,-1.4824611666666645,2.2197022666666655
9.662327333333328,-1.370757933333331,2.2228937333333323
9.655943999999993,-1.2590546999999979,2.2260851999999987
9.655943999999993,-1.2590546999999976,2.2260851999999987
9.665518666666662,-1.319693599999998,2.1750209333333324
9.67509333333333,-1.380332499999998,2.123956666666666
9.684667999999997,-1.440971399999998,2.0728923999999993
9.684667999999997,-1.440971399999998,2.0728923999999993
9.684667999999997,-1.3899070666666649,2.1335312666666657
9.684667999999997,-1.3388427333333315,2.194170133333332
9.684667999999997,-1.2877783999999983,2.2548089999999985
9.684667999999997,-1.2877783999999983,2.2548089999999985
9.66871033333333,-1.3260766333333316,2.248425933333332
9.652752666666663,-1.3643748666666646,2.2420428666666656
9.636794999999994,-1.4026730999999977,2.235659799999999
9.636794999999994,-1.4026730999999977,2.235659799999999
9.64636966666666,-1.389907033333331,2.2452343999999993
9.655944333333325,-1.3771409666666645,2.2548089999999994
9.66551899999999,-1.3643748999999978,2.264383599999999
9.66551899999999,-1.3643748999999978,2.264383599999999
9.66551899999999,-1.4058646666666643,2.242042966666666
9.66551899999999,-1.4473544333333308,2.2197023333333323
9.66551899999999,-1.4888441999999973,2.1973616999999988
9.67190199999999,-1.4760780999999972,2.2005531666666656
9.67828499999999,-1.4633119999999973,2.2037446333333324
9.68466799999999,-1.4505458999999972,2.2069360999999987
9.684667999999988,-1.4505458999999972,2.2069360999999987
9.684667999999988,-1.4505458999999972,2.2069360999999987
9.697433999999987,-1.4569289333333304,2.2228937333333323
9.710199999999986,-1.4633119666666639,2.2388513666666654
9.722965999999985,-1.469694999999997,2.2548089999999985
9.722965999999985,-1.469694999999997,2.2548089999999985
9.681475999999984,-1.4186306999999971,2.2899156666666656
9.639985999999984,-1.3675663999999974,2.3250223333333326
9.598495999999983,-1.3165020999999975,2.3601289999999993
9.598495999999981,-1.3165020999999975,2.3601289999999993
9.643177666666649,-1.3867155333333308,2.321830833333333
9.687859333333316,-1.4569289666666638,2.283532666666666
9.732540999999982,-1.5271423999999971,2.245234499999999
9.697433999999982,-1.4728865666666637,2.264383566666666
9.662326999999983,-1.4186307333333306,2.283532633333333
9.627219999999985,-1.3643748999999976,2.3026816999999995
9.627219999999985,-1.3643748999999978,2.3026816999999995
9.627219999999985,-1.3643748999999978,2.3026816999999995
9.624028666666652,-1.3930985666666647,2.2420428666666665
9.620837333333318,-1.4218222333333312,2.181404033333333
9.617645999999985,-1.450545899999998,2.1207651999999997
9.617645999999985,-1.450545899999998,2.1207652
9.604879999999982,-1.4122476666666648,2.1175736666666665
9.592113999999983,-1.3739494333333315,2.1143821333333332
9.579347999999984,-1.3356511999999983,2.1111905999999996
9.560198666666652,-1.4058646333333316,2.088849966666666
9.541049333333318,-1.4760780666666646,2.0665093333333324
9.521899999999984,-1.546291499999998,2.044168699999999
9.521899999999983,-1.5462914999999977,2.044168699999999
9.521899999999983,-1.5462914999999977,2.044168699999999
9.582538999999983,-1.5494830333333312,2.076083899999999
9.643177999999983,-1.5526745666666646,2.1079990999999993
9.703816999999981,-1.5558660999999983,2.1399142999999996
9.703816999999981,-1.5558660999999983,2.1399143
9.678284666666649,-1.552674566666665,2.1558718666666663
9.652752333333316,-1.5494830333333314,2.171829433333333
9.627219999999982,-1.546291499999998,2.1877869999999993
9.649560833333316,-1.5430999666666647,2.203744599999999
9.671901666666649,-1.5399084333333313,2.219702199999999
9.694242499999982,-1.5367168999999976,2.235659799999999
9.694242499999982,-1.5367168999999976,2.235659799999999
9.694242499999982,-1.5367168999999976,2.235659799999999
9.697433999999982,-1.5239508333333311,2.2452343999999993
9.700625499999981,-1.5111847666666645,2.2548089999999994
9.703816999999981,-1.4984186999999978,2.264383599999999
9.703816999999981,-1.4984186999999978,2.264383599999999
9.687859333333314,-1.5048017666666642,2.2867241999999988
9.671901666666647,-1.5111848333333306,2.3090647999999985
9.655943999999979,-1.517567899999997,2.331405399999998
9.655943999999979,-1.517567899999997,2.331405399999998
9.671901666666647,-1.4920357333333307,2.3377884999999985
9.687859333333314,-1.4665035666666644,2.344171599999999
9.703816999999981,-1.440971399999998,2.3505546999999987
9.703816999999981,-1.440971399999998,2.3505546999999987
9.697433999999982,-1.476078099999998,2.289915799999999
9.691050999999982,-1.511184799999998,2.2292768999999986
9.684667999999983,-1.5462914999999982,2.1686379999999983
9.66551866666665,-1.530333899999998,2.1399142666666653
9.646369333333316,-1.514376299999998,2.1111905333333323
9.627219999999982,-1.4984186999999978,2.0824667999999993
9.627219999999982,-1.4984186999999978,2.0824667999999993
9.643177999999983,-1.5175678333333311,2.079275333333333
9.659135999999982,-1.5367169666666645,2.076083866666666
9.675093999999982,-1.5558660999999978,2.0728923999999993
9.675093999999982,-1.5558660999999978,2.0728923999999993
9.671902333333316,-1.5845897999999978,2.098424599999999
9.66871066666665,-1.6133134999999976,2.1239567999999984
9.665518999999984,-1.6420371999999974,2.1494889999999978
9.665518999999986,-1.6420371999999974,2.1494889999999978
9.665518999999986,-1.571823733333331,2.165446566666664
9.665518999999986,-1.5016102666666642,2.1814041333333303
9.665518999999986,-1.4313967999999975,2.197361699999997
9.665518999999986,-1.4313967999999975,2.1973616999999965
9.668710666666652,-1.4665034999999975,2.1654464666666633
9.671902333333318,-1.5016101999999976,2.1335312333333296
9.675093999999984,-1.5367168999999976,2.1016159999999964
9.675093999999982,-1.5367168999999976,2.1016159999999964
9.671902333333316,-1.5016101999999976,2.1494888333333297
9.66871066666665,-1.4665034999999975,2.1973616666666635
9.665518999999984,-1.4313967999999975,2.245234499999997
9.665518999999986,-1.4313967999999975,2.245234499999997
9.65594433333332,-1.4633119999999975,2.22608533333333
9.646369666666654,-1.4952271999999975,2.2069361666666634
9.636794999999989,-1.5271423999999973,2.1877869999999966
9.63679499999999,-1.5271423999999973,2.1877869999999966
9.655944166666657,-1.5271423999999973,2.210127666666663
9.675093333333324,-1.5271423999999973,2.2324683333333297
9.694242499999993,-1.5271423999999973,2.2548089999999963
9.694242499999993,-1.5271423999999973,2.2548089999999963
9.665518666666658,-1.549483066666664,2.24204293333333
9.636794833333326,-1.5718237333333305,2.229276866666663
9.608070999999994,-1.594164399999997,2.2165107999999965
9.608070999999994,-1.5941643999999968,2.2165107999999965
9.630411999999993,-1.600547399999997,2.21331923333333
9.652752999999992,-1.606930399999997,2.210127666666663
9.675093999999993,-1.6133133999999973,2.2069360999999965
9.665519333333323,-1.6196964333333306,2.1909784999999964
9.655944666666656,-1.626079466666664,2.1750208999999963
9.646369999999989,-1.6324624999999973,2.159063299999996
9.646369999999989,-1.6324624999999973,2.159063299999996
9.646369999999989,-1.6324624999999973,2.159063299999996
9.633603666666657,-1.6101218999999973,2.1494887333333295
9.620837333333325,-1.5877812999999972,2.1399141666666623
9.608070999999994,-1.5654406999999972,2.1303395999999957
9.61764566666666,-1.5750152666666637,2.1399141666666623
9.627220333333325,-1.5845898333333306,2.149488733333329
9.63679499999999,-1.5941643999999975,2.1590632999999957
9.63679499999999,-1.5941643999999975,2.159063299999996
9.63041199999999,-1.571823733333331,2.178212466666663
9.624028999999991,-1.5494830666666644,2.1973616333333297
9.617645999999992,-1.5271423999999978,2.2165107999999965
9.617645999999992,-1.5271423999999978,2.2165107999999965
9.63041199999999,-1.546291499999998,2.1973616333333297
9.64317799999999,-1.5654405999999979,2.178212466666663
9.65594399999999,-1.5845896999999978,2.159063299999996
9.65594399999999,-1.5845896999999975,2.159063299999996
9.662327333333323,-1.5686320999999974,2.1909785333333294
9.668710666666657,-1.5526744999999973,2.222893766666663
9.675093999999993,-1.5367168999999972,2.2548089999999963
9.675093999999993,-1.5367168999999972,2.2548089999999963
9.665519333333323,-1.530333899999997,2.267575099999996
9.655944666666656,-1.5239508999999967,2.2803411999999956
9.646369999999989,-1.5175678999999966,2.2931072999999955
9.646369999999989,-1.5175678999999966,2.2931072999999955
9.668710333333323,-1.50799333333333,2.2962987666666628
9.691050666666657,-1.4984187666666635,2.29949023333333
9.713390999999993,-1.488844199999997,2.3026816999999973
9.713390999999993,-1.488844199999997,2.3026816999999973
9.70381666666666,-1.5048017666666638,2.270766499999997
9.694242333333326,-1.5207593333333305,2.2388512999999968
9.684667999999993,-1.5367168999999972,2.2069360999999965
9.684667999999993,-1.5367168999999972,2.2069360999999965
9.649561333333324,-1.533525399999997,2.1718293999999965
9.614454666666655,-1.530333899999997,2.1367226999999964
9.579347999999987,-1.527142399999997,2.1016159999999964
9.579347999999985,-1.527142399999997,2.1016159999999964
9.611263333333318,-1.5462914999999968,2.123956666666663
9.643178666666651,-1.5654405999999967,2.1462973333333295
9.675093999999984,-1.5845896999999967,2.168637999999996
9.675093999999982,-1.5845896999999962,2.168637999999996
9.665519333333314,-1.6165049333333297,2.194170166666663
9.655944666666647,-1.6484201666666631,2.21970233333333
9.646369999999978,-1.6803353999999964,2.245234499999997
9.646369999999978,-1.6803353999999964,2.245234499999997
9.65913599999998,-1.67395233333333,2.25800053333333
9.671901999999982,-1.6675692666666635,2.2707665666666625
9.684667999999983,-1.661186199999997,2.2835325999999956
9.684667999999983,-1.661186199999997,2.283532599999995
9.681476666666649,-1.6643777333333303,2.2899156333333286
9.678285333333315,-1.6675692666666635,2.296298666666662
9.675093999999982,-1.6707607999999967,2.302681699999995
9.675093999999982,-1.6707607999999967,2.302681699999995
9.64637016666665,-1.6356540999999967,2.2803410666666615
9.617646333333317,-1.6005473999999966,2.258000433333328
9.588922499999983,-1.5654406999999966,2.2356597999999948
9.588922499999983,-1.5654406999999966,2.2356597999999948
9.59211366666665,-1.5654406999999966,2.1750208999999945
9.595304833333318,-1.5654406999999966,2.114381999999994
9.598495999999985,-1.5654406999999966,2.0537430999999944
9.59211333333332,-1.5622491666666634,2.117573566666661
9.585730666666652,-1.5590576333333301,2.1814040333333278
9.579347999999985,-1.555866099999997,2.2452344999999947
9.579347999999985,-1.555866099999997,2.2452344999999947
9.56977333333332,-1.5494830333333303,2.2197023333333274
9.560198666666654,-1.5430999666666636,2.1941701666666606
9.550623999999988,-1.5367168999999967,2.168637999999994
9.55062399999999,-1.5367168999999967,2.168637999999994
9.55062399999999,-1.5367168999999967,2.168637999999994
9.57615599999999,-1.5335253999999967,2.1590634333333267
9.60168799999999,-1.5303338999999967,2.14948886666666
9.627219999999992,-1.5271423999999965,2.1399142999999934
9.61445416666666,-1.5462914999999968,2.146297299999993
9.601688333333326,-1.5654405999999967,2.1526802999999934
9.588922499999994,-1.5845896999999967,2.1590632999999935
9.588922499999994,-1.5845896999999962,2.159063299999994
9.588922499999994,-1.5845896999999962,2.159063299999994
9.62402916666666,-1.603738866666663,2.165446333333327
9.659135833333325,-1.6228880333333298,2.1718293666666604
9.694242499999993,-1.6420371999999965,2.178212399999994
9.694242499999993,-1.6420371999999965,2.178212399999994
9.639986666666658,-1.7058675666666634,2.178212399999994
9.585730833333324,-1.7696979333333303,2.178212399999994
9.531474999999991,-1.833528299999997,2.178212399999994
9.659135666666657,-1.7984215999999968,2.2388512666666607
9.786796333333323,-1.7633148999999968,2.2994901333333275
9.91445699999999,-1.7282081999999968,2.360128999999995
9.91445699999999,-1.7282081999999968,2.360128999999995
9.91445699999999,-1.7282081999999968,2.360128999999995
9.898499666666657,-1.72182513333333,2.350554466666661
9.882542333333324,-1.7154420666666634,2.3409799333333274
9.866584999999992,-1.7090589999999966,2.3314053999999937
9.866584999999992,-1.7090589999999966,2.3314053999999937
9.815520333333325,-1.6196964666666631,2.328213933333327
9.764455666666658,-1.5303339333333301,2.32502246666666
9.713390999999993,-1.440971399999997,2.3218309999999938
9.713390999999993,-1.440971399999997,2.3218309999999938
9.665518333333324,-1.3005444666666635,2.3122564333333266
9.617645666666656,-1.1601175333333302,2.30268186666666
9.569772999999989,-1.0196905999999968,2.2931072999999933
9.569772999999989,-1.019690599999997,2.2931072999999933
9.624028999999988,-1.0611803999999971,2.258000533333327
9.678284999999988,-1.1026701999999975,2.2228937666666604
9.732540999999989,-1.1441599999999976,2.1877869999999944
9.732540999999989,-1.1441599999999976,2.1877869999999944
9.793179666666655,-1.0101161333333308,2.331405433333327
9.853818333333322,-0.8760722666666642,2.4750238666666604
9.91445699999999,-0.7420283999999976,2.6186422999999937
9.91445699999999,-0.7420283999999976,2.6186422999999937
9.818711333333324,-0.6941555999999975,2.6920472666666604
9.722965666666658,-0.6462827999999975,2.765452233333327
9.627219999999992,-0.5984099999999973,2.838857199999994
9.627219999999992,-0.5984099999999973,2.838857199999994
9.550623666666658,-0.7484114333333308,2.810133466666661
9.474027333333323,-0.8984128666666641,2.781409733333328
9.397430999999989,-1.0484142999999972,2.752685999999995
9.397430999999989,-1.0484142999999972,2.752685999999995
9.381473333333323,-1.0803295333333305,2.7909843333333275
9.365515666666658,-1.112244766666664,2.8292826666666606
9.349557999999993,-1.1441599999999974,2.8675809999999937
9.349557999999993,-1.1441599999999974,2.8675809999999937
9.288919333333325,-1.290969899999997,2.854814833333327
9.228280666666658,-1.4377797999999968,2.8420486666666602
9.167641999999992,-1.5845896999999967,2.829282499999994
9.167641999999992,-1.5845896999999962,2.829282499999994
9.151684333333323,-1.5909727666666627,2.8388570666666606
9.135726666666656,-1.597355833333329,2.8484316333333273
9.11976899999999,-1.6037388999999955,2.8580061999999944
9.11976899999999,-1.6037388999999955,2.8580061999999944
9.103811333333324,-1.6484201666666625,2.816516466666661
9.087853666666659,-1.6931014333333294,2.7750267333333274
9.071895999999994,-1.7377826999999961,2.7335369999999943
9.071895999999994,-1.7377826999999961,2.7335369999999943
8.92827766666666,-1.6994844666666626,2.762260666666661
8.784659333333325,-1.6611862333333292,2.7909843333333275
8.641040999999992,-1.6228879999999954,2.8197079999999946
8.641040999999992,-1.6228879999999954,2.8197079999999946
8.934660666666659,-1.5303338999999958,2.883538399999994
9.228280333333325,-1.437779799999996,2.9473687999999942
9.521899999999993,-1.345225699999996,3.0111991999999943
9.521899999999993,-1.345225699999996,3.0111991999999943
9.764455666666658,-1.3548002666666628,2.832474133333328
10.007011333333324,-1.3643748333333292,2.6537490666666614
10.24956699999999,-1.3739493999999957,2.4750239999999954
10.24956699999999,-1.3739493999999957,2.4750239999999954
11.018723333333321,-1.421822233333329,2.120765233333329
11.787879666666655,-1.4696950666666622,1.7665064666666623
12.557035999999988,-1.5175678999999953,1.4122476999999956
12.557035999999988,-1.5175678999999953,1.4122476999999956
13.457044666666652,-1.4377798666666621,1.3835239999999958
14.357053333333317,-1.357991833333329,1.3548002999999957
15.257061999999982,-1.2782037999999958,1.326076599999996
15.257061999999982,-1.2782037999999958,1.326076599999996
13.65491899999998,-1.3196935666666623,1.357991799999996
12.052775999999982,-1.3611833333333287,1.3899069999999958
10.450632999999984,-1.4026730999999952,1.4218221999999958
10.450632999999986,-1.4026730999999952,1.4218221999999958
10.562336333333318,-1.370757866666662,1.3356511666666624
10.674039666666653,-1.3388426333333285,1.2494801333333292
10.785742999999988,-1.3069273999999953,1.1633090999999958
10.785742999999988,-1.306927399999995,1.1633090999999958
10.654890666666654,-1.032456699999995,1.2558631999999958
10.524038333333321,-0.757985999999995,1.3484172999999957
10.39318599999999,-0.48351529999999515,1.4409713999999954
10.393185999999991,-0.48351529999999504,1.4409713999999951
10.393185999999991,-0.48351529999999504,1.4409713999999951
9.47402799999999,-0.722879299999995,1.2973529666666619
8.554869999999989,-0.962243299999995,1.1537345333333284
7.635711999999988,-1.2016072999999952,1.0101160999999952
7.412305566666656,-1.0675634666666618,1.083521099999995
7.188899133333322,-0.9335196333333284,1.1569260999999946
6.965492699999989,-0.7994757999999952,1.2303310999999946
6.965492699999989,-0.7994757999999952,1.2303310999999946
7.255921033333323,-0.9079874666666617,1.1696921666666613
7.546349366666656,-1.0164991333333284,1.109053233333328
7.836777699999989,-1.1250107999999952,1.0484142999999948
7.836777699999989,-1.1250107999999954,1.0484142999999948
8.810191466666657,-1.1026701666666618,1.0037330466666614
9.783605233333324,-1.0803295333333285,0.9590517933333281
10.75701899999999,-1.0579888999999951,0.9143705399999948
10.75701899999999,-1.0579888999999951,0.9143705399999948
11.74000699999999,-1.022882199999995,0.7516030099999949
12.722994999999989,-0.9877754999999949,0.588835479999995
13.705982999999987,-0.9526687999999949,0.4260679499999949
13.705982999999987,-0.9526687999999949,0.4260679499999949
13.645344333333322,-0.8441570999999949,0.5569202666666616
13.584705666666657,-0.7356453999999948,0.6877725833333281
13.524066999999993,-0.6271336999999947,0.8186248999999949
13.524066999999993,-0.6271336999999947,0.8186248999999949
12.148521666666658,-0.5888354666666614,1.048414333333328
10.772976333333323,-0.5505372333333282,1.2782037666666615
9.397430999999989,-0.5122389999999949,1.507993199999995
9.397430999999989,-0.5122389999999949,1.507993199999995
9.38466499999999,-0.4611746666666616,1.7728893666666619
9.37189899999999,-0.4101103333333283,2.037785533333329
9.359132999999991,-0.35904599999999504,2.302681699999996
9.359132999999991,-0.35904599999999504,2.302681699999996
9.12934349999999,-0.5601117666666616,2.229276733333329
8.89955399999999,-0.7611775333333283,2.1558717666666625
8.66976449999999,-0.9622432999999949,2.0824667999999957
8.66976449999999,-0.9622432999999949,2.0824667999999957
7.683584833333323,-1.0388397999999948,2.0409770666666627
6.697405166666655,-1.1154362999999952,1.9994873333333292
5.711225499999988,-1.1920327999999953,1.957997599999996
5.711225499999988,-1.1920327999999956,1.957997599999996
5.711225499999988,-1.1920327999999956,1.957997599999996
5.877184533333323,-1.3739494333333286,1.9739551666666622
6.043143566666657,-1.5558660666666622,1.9899127333333286
6.209102599999992,-1.7377826999999957,2.005870299999995
7.383582066666658,-1.7665063666666623,2.123956533333329
8.558061533333323,-1.795230033333329,2.2420427666666622
9.732540999999989,-1.823953699999996,2.3601289999999957
9.732540999999989,-1.823953699999996,2.3601289999999957
9.732540999999989,-1.823953699999996,2.3601289999999957
10.354887333333323,-1.6899098666666628,2.2707664999999957
10.977233666666658,-1.5558660333333296,2.1814039999999957
11.599579999999994,-1.4218221999999965,2.0920414999999957
12.614483333333325,-1.543099966666663,1.9452315666666624
13.629386666666656,-1.6643777333333294,1.798421633333329
14.64428999999999,-1.785655499999996,1.6516116999999955
14.64428999999999,-1.785655499999996,1.6516116999999955
13.40597999999999,-1.9994873333333294,1.5622491333333286
12.167669999999992,-2.2133191666666625,1.4728865666666617
10.929359999999994,-2.427150999999996,1.3835239999999949
10.929359999999994,-2.4271509999999954,1.3835239999999949
11.290001999999992,-2.344171466666662,1.3835239999999949
11.650643999999991,-2.2611919333333286,1.3835239999999949
12.01128599999999,-2.1782123999999947,1.3835239999999949
12.01128599999999,-2.1782123999999947,1.3835239999999949
11.009148666666656,-1.9420399333333282,1.418630733333328
10.007011333333324,-1.7058674666666616,1.4537374666666611
9.004873999999992,-1.469694999999995,1.4888441999999944
9.004873999999992,-1.469694999999995,1.4888441999999944
7.804862499999992,-1.4505458999999952,1.3675663999999943
6.604850999999992,-1.4313967999999953,1.2462885999999944
5.404839499999992,-1.4122476999999953,1.1250107999999945
5.404839499999992,-1.4122476999999953,1.1250107999999945
5.717608433333325,-1.2750123333333285,1.089904066666661
6.0303773666666585,-1.137776966666662,1.0547973333333276
6.343146299999991,-1.0005415999999954,1.0196905999999941
6.343146299999991,-1.0005415999999954,1.0196905999999941
7.705925199999991,-0.965434866666662,0.8441570166666607
9.06870409999999,-0.9303281333333286,0.6686234333333273
10.431482999999991,-0.8952213999999953,0.49308984999999406
10.431482999999991,-0.8952213999999953,0.49308984999999406
11.902773999999992,-0.7133047499999953,0.44521704999999406
13.374064999999993,-0.5313880999999951,0.397344249999994
14.845355999999994,-0.3494714499999952,0.349471449999994
14.845355999999994,-0.3494714499999952,0.349471449999994
14.388968333333326,-0.40053578333332857,0.47394073333332737
13.93258066666666,-0.4516001166666619,0.5984100166666607
13.476192999999993,-0.5026644499999952,0.7228792999999941
13.476192999999993,-0.5026644499999952,0.7228792999999941
13.476192999999993,-0.5026644499999952,0.7228792999999941
12.234691999999994,-0.745219999999995,0.9622433333333275
10.993190999999994,-0.987775549999995,1.201607366666661
9.751689999999995,-1.2303310999999948,1.4409713999999942
9.592113999999993,-1.2782038666666615,1.709059099999994
9.432537999999992,-1.3260766333333283,1.9771467999999939
9.27296199999999,-1.3739493999999948,2.245234499999994
9.27296199999999,-1.3739493999999948,2.245234499999994
9.065513333333323,-1.2111818666666616,2.30906486666666
8.858064666666657,-1.0484143333333282,2.372895233333327
8.65061599999999,-0.885646799999995,2.4367255999999937
8.65061599999999,-0.885646799999995,2.436725599999994
8.65061599999999,-0.885646799999995,2.436725599999994
7.546349899999991,-1.0994786666666616,2.2739580666666606
6.442083799999992,-1.3133105333333281,2.111190533333327
5.3378176999999924,-1.5271423999999947,1.9484229999999931
5.302710799999994,-1.814379199999995,1.973955199999993
5.267603899999993,-2.101615999999995,1.9994873999999931
5.232496999999993,-2.3888527999999947,2.025019599999993
5.232496999999993,-2.3888527999999947,2.025019599999993
5.232496999999993,-2.3888527999999947,2.025019599999993
6.336762999999993,-2.2005530999999947,2.334596999999993
7.441028999999993,-2.0122533999999948,2.6441743999999923
8.545294999999994,-1.8239536999999946,2.953751799999992
9.67828466666666,-1.6739522666666613,2.979283966666659
10.811274333333325,-1.523950833333328,3.004816133333326
11.944263999999995,-1.3739493999999948,3.030348299999993
11.944263999999995,-1.3739493999999948,3.030348299999993
12.984699666666662,-1.635654033333328,2.679281099999993
14.02513533333333,-1.8973586666666618,2.328213899999993
15.065570999999997,-2.1590632999999952,1.9771466999999934
15.065570999999997,-2.1590632999999957,1.9771466999999934
14.082582999999998,-2.3090647666666624,1.8622519666666602
13.099594999999999,-2.4590662333333295,1.747357233333327
12.116607,-2.6090676999999967,1.6324624999999937
12.116607,-2.6090676999999967,1.6324624999999937
11.944264666666664,-2.43672563333333,1.6675692333333272
11.77192233333333,-2.264383566666663,1.7026759666666604
11.599579999999998,-2.0920414999999966,1.7377826999999935
11.599579999999998,-2.0920414999999966,1.7377826999999932
11.599579999999998,-2.0920414999999966,1.7377826999999932
10.961275999999998,-1.8111876999999967,1.7345911999999934
10.322971999999998,-1.530333899999997,1.7313996999999937
9.684667999999999,-1.249480099999997,1.7282081999999939
8.289973666666663,-1.2558631666666635,1.5686321666666607
6.89527933333333,-1.26224623333333,1.4090561333333274
5.5005849999999965,-1.2686292999999964,1.2494800999999942
5.5005849999999965,-1.2686292999999964,1.2494800999999942
5.663352666666662,-1.1218193666666634,1.243097099999994
5.8261203333333285,-0.9750094333333301,1.236714099999994
5.988887999999995,-0.828199499999997,1.2303310999999937
5.988887999999995,-0.828199499999997,1.2303310999999937
5.988887999999995,-0.828199499999997,1.2303310999999937
7.166558666666661,-0.7005386899999969,1.1505430799999938
8.344229333333328,-0.5728778799999968,1.0707550599999938
9.521899999999993,-0.4452170699999967,0.9909670399999939
10.485739333333328,-0.4835152999999967,0.8537316599999939
11.44957866666666,-0.5218135299999966,0.7164962799999938
12.413417999999993,-0.5601117599999966,0.5792608999999938
12.413417999999993,-0.5601117599999966,0.5792608999999938
12.413417999999993,-0.5601117599999966,0.5792608999999938
12.930444333333327,-0.5090474466666634,0.528196583333327
13.44747066666666,-0.45798313333333,0.47713226666666025
13.964496999999994,-0.40691881999999674,0.42606794999999353
13.964496999999994,-0.40691881999999674,0.42606794999999353
13.20810666666666,-0.6239421799999968,0.6175591666666602
12.451716333333328,-0.8409655399999969,0.8090503833333269
11.695325999999994,-1.057988899999997,1.0005415999999936
10.808083333333327,-0.9526687333333305,1.3420342666666603
9.920840666666658,-0.8473485666666637,1.683526933333327
9.03359799999999,-0.742028399999997,2.0250195999999936
9.03359799999999,-0.742028399999997,2.0250195999999936
9.03359799999999,-0.742028399999997,2.0250195999999936
9.084661999999993,-0.885646799999997,2.1079991333333274
9.135725999999993,-1.0292651999999969,2.1909786666666604
9.186789999999995,-1.1728835999999971,2.2739581999999934
9.186789999999995,-1.1728835999999971,2.273958199999993
8.372952666666661,-1.492035599999997,2.2069362666666597
7.5591153333333265,-1.8111875999999973,2.139914333333326
6.745277999999992,-2.1303395999999974,2.0728923999999926
6.745277999999992,-2.130339599999998,2.072892399999992
6.489956333333325,-2.111190533333331,2.1462973666666585
6.234634666666658,-2.092041466666664,2.219702333333325
5.9793129999999906,-2.0728923999999975,2.2931072999999906
5.9793129999999906,-2.072892399999997,2.2931072999999906
6.531445999999991,-2.200553166666664,2.299490299999991
7.0835789999999905,-2.3282139333333305,2.305873299999991
7.635711999999991,-2.455874699999997,2.312256299999991
7.635711999999991,-2.455874699999997,2.312256299999991
8.545295333333323,-2.2962986999999973,2.4239595333333246
9.454878666666659,-2.136722699999997,2.535662766666658
10.364461999999994,-1.977146699999997,2.6473659999999914
10.364461999999994,-1.977146699999997,2.6473659999999914
11.551707333333326,-1.913316299999997,2.516513666666658
12.738952666666657,-1.849485899999997,2.3856613333333248
13.92619799999999,-1.7856554999999972,2.2548089999999914
13.92619799999999,-1.7856554999999972,2.2548089999999914
14.005986333333324,-2.0154449999999975,2.1143820999999914
14.085774666666657,-2.245234499999998,1.9739551999999911
14.16556299999999,-2.475023999999998,1.8335282999999913
14.16556299999999,-2.475023999999998,1.8335282999999913
13.067679666666656,-2.449491833333331,1.734591166666658
11.969796333333322,-2.423959666666664,1.6356540333333245
10.87191299999999,-2.3984274999999973,1.5367168999999912
10.87191299999999,-2.398427499999997,1.5367168999999912
10.70595399999999,-2.0186365666666632,1.6037388333333247
10.539994999999989,-1.6388456333333299,1.670760766666658
10.374035999999988,-1.2590546999999968,1.7377826999999915
10.374035999999986,-1.2590546999999965,1.7377826999999915
9.043172166666652,-1.3292681333333298,1.571823666666658
7.712308333333318,-1.399481566666663,1.4058646333333247
6.381444499999984,-1.4696949999999962,1.2399055999999915
6.381444499999984,-1.4696949999999962,1.2399055999999913
6.091016166666651,-1.3803324333333296,1.169692166666658
5.800587833333317,-1.2909698666666631,1.099478733333325
5.5101594999999834,-1.2016072999999965,1.0292652999999916
5.5101594999999834,-1.2016072999999965,1.0292652999999918
6.38782766666665,-1.0164991499999962,1.0292652999999918
7.265495833333316,-0.8313909999999963,1.0292652999999918
8.143163999999983,-0.6462828499999963,1.0292652999999918
8.143163999999983,-0.6462828499999963,1.0292652999999918
9.400622999999982,-0.8122418999999964,0.9973500866666583
10.65808199999998,-0.9782009499999963,0.9654348733333249
11.915540999999982,-1.1441599999999963,0.9335196599999915
11.915540999999982,-1.144159999999996,0.9335196599999915
12.352778999999982,-1.306927499999996,0.9143705399999916
12.790016999999983,-1.469694999999996,0.8952214199999916
13.227254999999984,-1.6324624999999957,0.8760722999999917
13.227254999999984,-1.6324624999999957,0.8760722999999917
13.358107333333317,-1.4537373666666626,1.0707549999999917
13.48895966666665,-1.2750122333333296,1.2654376999999914
13.619811999999982,-1.0962870999999963,1.4601203999999919
13.619811999999982,-1.0962870999999965,1.4601203999999919
12.075116333333318,-1.2686291999999963,1.5941642666666584
10.530420666666652,-1.4409712999999964,1.728208133333325
8.985724999999984,-1.6133133999999962,1.8622519999999916
8.985724999999983,-1.6133133999999962,1.8622519999999916
9.164449999999983,-1.4186306999999962,2.082466933333325
9.343174999999983,-1.2239479999999963,2.302681866666658
9.521899999999983,-1.029265299999996,2.5228967999999914
9.521899999999983,-1.0292652999999958,2.5228967999999914
8.944234999999983,-1.255863199999996,2.3824698666666584
8.366569999999982,-1.4824610999999959,2.242042933333325
7.788904999999981,-1.7090589999999957,2.1016159999999915
7.788904999999981,-1.7090589999999957,2.1016159999999915
7.2718787666666485,-1.6611862333333292,2.178212466666658
6.754852533333316,-1.6133134666666624,2.2548089333333245
6.237826299999983,-1.5654406999999957,2.331405399999991
6.237826299999983,-1.5654406999999957,2.331405399999991
6.368678533333316,-1.7218251333333292,2.280341066666658
6.499530766666649,-1.8782095666666627,2.2292767333333248
6.630382999999983,-2.0345939999999962,2.178212399999991
6.630382999999983,-2.0345939999999962,2.178212399999991
7.3740073333333145,-1.9771466666666626,2.2005530999999916
8.117631666666647,-1.9196993333333292,2.222893799999992
8.861255999999978,-1.8622519999999956,2.245234499999992
8.861255999999978,-1.8622519999999956,2.245234499999992
9.43253799999998,-1.8303367999999958,2.347363066666659
10.003819999999982,-1.7984215999999957,2.4494916333333254
10.575101999999982,-1.7665063999999957,2.551620199999992
10.575101999999982,-1.7665063999999957,2.551620199999992
11.337875333333315,-1.8143791999999959,2.340979899999992
12.100648666666649,-1.862251999999996,2.1303395999999917
12.86342199999998,-1.910124799999996,1.9196992999999913
12.86342199999998,-1.910124799999996,1.9196992999999913
13.093211666666647,-2.1303396999999964,2.0282110333333248
13.323001333333314,-2.3505545999999957,2.1367227666666584
13.55279099999998,-2.5707694999999955,2.245234499999992
13.55279099999998,-2.570769499999995,2.245234499999992
12.378311333333315,-2.5580033999999956,2.1814040333333256
11.20383166666665,-2.5452372999999957,2.1175735666666586
10.029351999999983,-2.532471199999996,2.0537430999999917
10.029351999999985,-2.5324711999999963,2.0537430999999917
10.099565333333318,-2.2803411333333297,1.954806033333325
10.16977866666665,-2.0282110666666626,1.8558689666666581
10.239991999999983,-1.776080999999996,1.7569318999999914
10.239991999999981,-1.776080999999996,1.7569318999999914
10.239991999999981,-1.776080999999996,1.7569318999999914
9.269769999999982,-1.6643777999999962,1.6420371666666582
8.299547999999982,-1.5526745999999967,1.527142433333325
7.329325999999983,-1.440971399999997,1.4122476999999918
6.895279333333317,-1.3707579666666636,1.3356511999999918
6.461232666666651,-1.3005445333333303,1.2590546999999919
6.027185999999985,-1.2303310999999968,1.182458199999992
6.027185999999985,-1.230331099999997,1.182458199999992
6.869747333333318,-1.1888413333333305,1.0771380333333251
7.712308666666651,-1.147351566666664,0.9718178666666585
8.554869999999985,-1.1058617999999976,0.8664976999999917
8.554869999999985,-1.1058617999999976,0.8664976999999917
8.554869999999985,-1.1058617999999976,0.8664976999999917
9.860201666666653,-1.1537345666666643,0.8377740199999918
11.165533333333316,-1.201607333333331,0.8090503399999918
12.470864999999982,-1.2494800999999975,0.7803266599999917
12.640015333333315,-1.2462885999999973,0.8026673066666584
12.80916566666665,-1.2430970999999973,0.8250079533333251
12.978315999999984,-1.2399055999999973,0.8473485999999918
12.978315999999984,-1.2399055999999973,0.8473485999999918
12.978315999999984,-1.2399055999999973,0.8473485999999918
12.866612999999985,-1.128202379999997,0.9335196666666586
12.754909999999983,-1.0164991599999968,1.0196907333333254
12.643206999999983,-0.904795939999997,1.1058617999999918
11.612345999999983,-1.1728836266666636,1.2079904333333251
10.581484999999983,-1.4409713133333304,1.3101190666666587
9.550623999999981,-1.7090589999999972,1.4122476999999922
9.55062399999998,-1.7090589999999972,1.4122476999999922
9.588922333333315,-1.514376266666664,1.6803353999999924
9.62722066666665,-1.3196935333333306,1.9484230999999923
9.665518999999984,-1.1250107999999974,2.2165107999999925
9.665518999999986,-1.1250107999999974,2.2165107999999925
9.049555466666652,-1.1250107999999974,2.229276866666659
8.43359193333332,-1.1250107999999974,2.2420429333333254
7.817628399999986,-1.1250107999999974,2.2548089999999923
7.817628399999986,-1.1250107999999974,2.2548089999999923
6.9878332666666525,-1.1250107999999974,2.2516174999999925
6.15803813333332,-1.1250107999999974,2.2484259999999927
5.328242999999986,-1.1250107999999974,2.245234499999993
5.328242999999986,-1.1250107999999974,2.245234499999993
5.72399133333332,-1.463311966666664,2.2005531999999928
6.1197396666666535,-1.8016131333333307,2.1558718999999926
6.515487999999987,-2.1399142999999974,2.111190599999993
6.515487999999987,-2.139914299999998,2.111190599999993
7.485710333333319,-1.9643806666666643,2.350554566666659
8.455932666666651,-1.788847033333331,2.5899185333333254
9.426154999999984,-1.6133133999999976,2.829282499999992
9.426154999999982,-1.6133133999999976,2.829282499999992
9.735732333333315,-1.6931014333333307,2.781409733333325
10.045309666666647,-1.772889466666664,2.7335369666666587
10.354886999999978,-1.852677499999997,2.685664199999992
10.354886999999978,-1.8526774999999969,2.685664199999992
10.80808299999998,-1.8526774999999969,2.5643864666666585
11.26127899999998,-1.8526774999999969,2.4431087333333252
11.71447499999998,-1.8526774999999969,2.321830999999992
11.71447499999998,-1.8526774999999969,2.321830999999992
12.320863666666646,-1.9292739333333302,2.149488899999992
12.927252333333312,-2.0058703666666635,1.977146799999992
13.533640999999976,-2.082466799999997,1.8048046999999923
13.533640999999974,-2.082466799999997,1.8048046999999923
12.738952333333307,-2.09523293333333,1.3803324999999924
11.944263666666638,-2.107999066666663,0.9558602999999923
11.14957499999997,-2.1207651999999957,0.5313880999999924
10.750635333333305,-1.8973587666666623,0.4675576999999924
10.351695666666638,-1.6739523333333288,0.4037272999999925
9.952755999999972,-1.4505458999999954,0.33989689999999256
9.952755999999972,-1.4505458999999954,0.33989689999999256
9.681476666666638,-1.6005473333333289,0.2952156133333259
9.410197333333302,-1.7505487666666621,0.25053432666665926
9.138917999999968,-1.9005501999999954,0.20585303999999258
9.138917999999967,-1.9005501999999954,0.20585303999999258
8.832531999999969,-1.8654434666666624,0.3047901766666592
8.52614599999997,-1.8303367333333291,0.4037273133333259
8.21975999999997,-1.7952299999999959,0.5026644499999926
8.219759999999972,-1.7952299999999959,0.5026644499999926
8.060183999999973,-1.852677399999996,0.5090474999999927
7.900607999999973,-1.910124799999996,0.5154305499999925
7.741031999999973,-1.967572199999996,0.5218135999999923
7.741031999999973,-1.967572199999996,0.5218135999999923
7.741031999999973,-1.967572199999996,0.5218135999999923
7.938906333333306,-1.9867213333333291,0.502664456666659
8.13678066666664,-2.005870466666662,0.4835153133333257
8.334654999999973,-2.0250195999999954,0.4643661699999924
8.637849333333307,-2.009061966666662,0.4420255333333258
8.941043666666639,-1.9931043333333285,0.41968489666665915
9.244237999999973,-1.9771466999999951,0.39734425999999257
9.24423799999997,-1.9771466999999951,0.39734425999999257
9.588922333333304,-2.0888498999999947,0.4101103399999926
9.933606666666638,-2.2005530999999947,0.4228764199999926
10.278290999999971,-2.3122562999999943,0.4356424999999926
10.278290999999971,-2.3122562999999943,0.4356424999999926
10.421909333333305,-2.1335311999999944,0.5122389999999927
10.565527666666638,-1.9548060999999943,0.5888354999999927
10.70914599999997,-1.7760809999999942,0.6654319999999927
10.70914599999997,-1.7760809999999942,0.6654319999999926
10.871913666666638,-1.7569318999999943,0.8154334333333259
11.034681333333305,-1.7377827999999944,0.9654348666666591
11.197448999999972,-1.7186336999999945,1.1154362999999925
11.197448999999972,-1.7186336999999945,1.1154362999999925
10.591059999999972,-2.021828033333328,1.1313938999999926
9.984670999999972,-2.3250223666666616,1.1473514999999928
9.378281999999972,-2.6282166999999954,1.1633090999999929
9.378281999999972,-2.6282166999999954,1.1633090999999929
9.895307999999973,-2.2962986333333286,1.310119033333326
10.412333999999975,-1.964380566666662,1.4569289666666592
10.929359999999976,-1.6324624999999953,1.6037388999999924
10.929359999999976,-1.6324624999999953,1.6037388999999924
9.949563566666642,-1.6803353333333286,1.6165049999999923
8.969767133333308,-1.7282081666666622,1.6292710999999924
7.989970699999975,-1.7760809999999958,1.6420371999999925
7.989970699999975,-1.776080999999996,1.6420371999999925
8.031460466666642,-1.7473572999999962,1.587781333333326
8.072950233333309,-1.7186335999999962,1.5335254666666593
8.114439999999975,-1.6899098999999964,1.479269599999993
8.417634333333309,-1.7824639999999967,1.6037388999999926
8.720828666666641,-1.8750180999999972,1.7282081999999928
9.024022999999973,-1.9675721999999976,1.8526774999999926
9.024022999999973,-1.9675721999999976,1.8526774999999926
9.024022999999973,-1.9675721999999976,1.8526774999999926
8.953809666666642,-2.037785599999997,1.9516146666666596
8.883596333333308,-2.1079989999999973,2.050551833333326
8.813382999999975,-2.1782123999999974,2.1494889999999924
8.813382999999975,-2.178212399999998,2.149488999999993
8.743169333333308,-2.1877869666666645,2.1718295999999926
8.67295566666664,-2.1973615333333316,2.1941701999999923
8.602741999999973,-2.2069360999999983,2.216510799999992
8.602741999999973,-2.2069360999999983,2.2165107999999916
9.071895666666641,-2.1782124666666647,1.999487433333325
9.541049333333307,-2.1494888333333315,1.7824640666666582
10.010202999999974,-2.120765199999999,1.5654406999999917
10.010202999999972,-2.120765199999999,1.5654406999999917
11.755964333333305,-2.1782125666666654,1.3675664333333248
13.501725666666639,-2.235659933333332,1.169692166666658
15.247486999999973,-2.2931072999999986,0.9718178999999912
13.74108966666664,-2.3186394666666654,0.7037302033333246
12.234692333333307,-2.3441716333333322,0.4356425066666579
10.728294999999973,-2.3697037999999995,0.1675548099999912
10.728294999999969,-2.3697037999999995,0.1675548099999912
10.674039333333303,-2.2069362666666663,0.15478872666665786
10.619783666666637,-2.0441687333333327,0.14202264333332454
10.565527999999969,-1.881401199999999,0.12925655999999122
10.565527999999967,-1.881401199999999,0.12925655999999122
9.7995628333333,-1.7282081999999992,0.1771293666666579
9.033597666666632,-1.5750151999999993,0.2250021733333246
8.267632499999964,-1.4218221999999994,0.2728749799999913
8.267632499999964,-1.4218221999999994,0.2728749799999913
8.481464333333298,-1.3643748333333328,0.2473428133333246
8.69529616666663,-1.3069274666666661,0.22181064666665795
8.909127999999962,-1.2494800999999995,0.1962784799999913
8.909127999999962,-1.2494800999999995,0.1962784799999913
9.38466466666663,-1.3196935333333328,0.31117319999999127
9.860201333333299,-1.389906966666666,0.4260679199999913
10.335737999999965,-1.4601203999999992,0.5409626399999913
10.335737999999965,-1.4601203999999992,0.5409626399999913
10.358078666666634,-1.565440599999999,0.700538626666658
10.3804193333333,-1.6707607999999992,0.8601146133333245
10.402759999999967,-1.7760809999999994,1.019690599999991
10.402759999999967,-1.7760809999999996,1.019690599999991
10.616591666666634,-1.693101466666666,1.220756399999991
10.8304233333333,-1.6101219333333325,1.4218221999999914
11.044254999999966,-1.527142399999999,1.6228879999999917
11.995327999999967,-1.3611833666666657,1.6260794999999917
12.946400999999968,-1.1952243333333323,1.6292709999999915
13.897473999999969,-1.029265299999999,1.6324624999999913
13.897473999999969,-1.029265299999999,1.6324624999999913
13.897473999999969,-1.029265299999999,1.6324624999999913
13.737897999999968,-1.1154363333333321,1.6292709999999913
13.578321999999966,-1.2016073666666656,1.6260794999999915
13.418745999999965,-1.287778399999999,1.6228879999999917
11.969795999999967,-1.1409684666666655,1.6739523333333253
10.520845999999969,-0.9941585333333319,1.7250166666666586
9.071895999999969,-0.8473485999999985,1.7760809999999918
9.071895999999969,-0.8473485999999983,1.7760809999999918
9.582539333333301,-0.7005386733333318,1.6643777999999922
10.093182666666634,-0.5537287466666652,1.5526745999999925
10.603825999999964,-0.40691881999999846,1.4409713999999927
10.603825999999964,-0.40691881999999846,1.4409713999999927
9.713391766666632,-0.5696863466666651,1.3611833666666595
8.8229575333333,-0.7324538733333318,1.2813953333333263
7.932523299999967,-0.8952213999999984,1.2016072999999927
7.932523299999967,-0.8952213999999984,1.201607299999993
7.428263066666633,-0.8601146866666651,1.3196935666666596
6.9240028333333,-0.8250079733333319,1.4377798333333265
6.419742599999966,-0.7899012599999985,1.5558660999999931
6.419742599999966,-0.7899012599999985,1.5558660999999931
6.646340533333299,-1.080329573333332,1.6771438333333266
6.872938466666632,-1.3707578866666654,1.7984215666666599
7.099536399999965,-1.6611861999999988,1.9196992999999933
7.099536399999965,-1.6611861999999988,1.9196992999999936
7.6612439333332985,-1.8462943999999988,2.066509199999994
8.22295146666663,-2.0314025999999985,2.2133190999999943
8.784658999999964,-2.2165107999999987,2.360128999999995
9.432537666666631,-2.1877870666666652,2.385661199999994
10.080416333333297,-2.159063333333332,2.4111933999999935
10.728294999999962,-2.130339599999999,2.4367255999999933
10.72829499999996,-2.130339599999999,2.436725599999993
12.068733333333293,-2.092041399999999,2.2994902666666595
13.409171666666628,-2.053743199999999,2.1622549333333256
14.749609999999961,-2.0154449999999993,2.0250195999999923
14.749609999999961,-2.0154449999999997,2.025019599999992
13.517683333333295,-2.095233,1.916507899999992
12.285756666666629,-2.1750209999999996,1.807996199999992
11.053829999999962,-2.254809,1.6994844999999923
11.053829999999962,-2.254809,1.6994844999999923
10.683613666666629,-2.210127733333333,1.5239508666666588
10.313397333333297,-2.165446466666666,1.3484172333333255
9.943180999999965,-2.1207651999999992,1.1728835999999923
9.943180999999965,-2.120765199999999,1.1728835999999923
9.493176666666631,-2.0218280333333323,1.121819266666659
9.043172333333297,-1.9228908666666653,1.0707549333333257
8.593167999999961,-1.8239536999999986,1.0196905999999923
8.593167999999961,-1.8239536999999986,1.0196905999999926
8.063375666666628,-1.871826533333332,1.1154361999999927
7.533583333333294,-1.9196993666666655,1.211181799999993
7.0037909999999615,-1.967572199999999,1.306927399999993
7.0037909999999615,-1.967572199999999,1.306927399999993
6.863364166666628,-1.9292739666666654,1.3260765666666599
6.722937333333294,-1.890975733333332,1.3452257333333266
6.58251049999996,-1.8526774999999984,1.3643748999999934
7.441029333333295,-1.8462944333333315,1.306927533333327
8.29954816666663,-1.839911366666665,1.2494801666666604
9.158066999999965,-1.8335282999999987,1.1920327999999938
9.158066999999965,-1.8335282999999987,1.1920327999999938
9.158066999999965,-1.8335282999999987,1.1920327999999938
10.128288999999965,-1.7313996666666653,1.2207564666666604
11.098510999999965,-1.6292710333333318,1.2494801333333272
12.068732999999964,-1.5271423999999982,1.278203799999994
12.330437833333297,-1.5399084999999983,1.2462885999999938
12.59214266666663,-1.5526745999999985,1.214373399999994
12.853847499999963,-1.5654406999999984,1.182458199999994
12.853847499999963,-1.5654406999999984,1.182458199999994
13.090019999999962,-1.3643748999999985,1.2750122666666606
13.326192499999962,-1.1633090999999984,1.3675663333333272
13.562364999999962,-0.9622432999999985,1.4601203999999939
13.562364999999962,-0.9622432999999985,1.4601203999999939
12.001711333333295,-1.0994786666666652,1.5782066666666605
10.441057666666628,-1.2367140333333317,1.6962929333333274
8.880403999999961,-1.3739493999999983,1.814379199999994
8.880403999999961,-1.3739493999999983,1.814379199999994
9.23466299999996,-1.3260766333333318,2.0250195666666606
9.58892199999996,-1.278203866666665,2.2356599333333276
9.943180999999958,-1.2303310999999983,2.446300299999994
9.943180999999957,-1.2303310999999983,2.446300299999994
9.145300999999957,-1.3611833999999983,2.267575133333327
8.347420999999958,-1.4920356999999986,2.0888499666666602
7.549540999999959,-1.6228879999999988,1.9101247999999933
7.03570619999996,-1.6835268999999986,1.8558689333333265
6.521871399999959,-1.7441657999999987,1.8016130666666597
6.008036599999959,-1.804804699999999,1.7473571999999928
6.008036599999959,-1.804804699999999,1.7473571999999928
6.008036599999959,-1.804804699999999,1.7473571999999928
6.225059966666625,-1.8494859666666654,1.8016130666666597
6.442083333333291,-1.894167233333332,1.8558689333333265
6.659106699999957,-1.9388484999999986,1.9101247999999933
7.377198799999959,-1.9675721999999984,2.069700799999993
8.095290899999958,-1.9962958999999982,2.2292767999999934
8.813382999999957,-2.025019599999998,2.3888527999999933
8.813382999999957,-2.025019599999998,2.3888527999999933
9.464452999999956,-1.9579976333333313,2.56119486666666
10.115522999999955,-1.8909756666666648,2.7335369333333266
10.766592999999956,-1.8239536999999981,2.9058789999999934
10.766592999999956,-1.8239536999999981,2.9058789999999934
11.618728999999954,-1.9835296999999985,2.5771524333333264
12.470864999999954,-2.1431056999999987,2.2484258666666594
13.323000999999953,-2.3026816999999986,1.9196992999999924
13.323000999999953,-2.3026816999999986,1.9196992999999924
13.010231999999952,-2.4111933666666645,1.9452314666666595
12.697462999999955,-2.519705033333331,1.9707636333333263
12.384693999999955,-2.628216699999997,1.9962957999999933
12.384693999999959,-2.6282166999999967,1.9962957999999933
12.122989333333294,-2.589918466666663,1.9420399666666601
11.861284666666629,-2.5516202333333298,1.8877841333333272
11.599579999999966,-2.513321999999996,1.833528299999994
11.599579999999966,-2.5133219999999956,1.833528299999994
10.913403333333298,-2.155871799999996,1.8303367666666606
10.22722666666663,-1.7984215999999957,1.827145233333327
9.541049999999965,-1.4409713999999958,1.8239536999999935
8.455932999999964,-1.3835240333333292,1.667569233333327
7.370815999999965,-1.3260766666666624,1.5111847666666602
6.2856989999999655,-1.2686292999999957,1.3548002999999937
6.2856989999999655,-1.268629299999996,1.3548002999999937
6.2856989999999655,-1.268629299999996,1.3548002999999937
6.288890433333298,-1.1409684666666626,1.2303310133333272
6.2920818666666305,-1.0133076333333293,1.1058617266666604
6.2952732999999625,-0.8856467999999961,0.9813924399999937
6.2952732999999625,-0.8856467999999961,0.9813924399999937
7.539966199999962,-0.8760722533333295,0.9399026799999937
8.784659099999963,-0.8664977066666628,0.8984129199999936
10.029351999999962,-0.8569231599999961,0.8569231599999937
10.029351999999962,-0.8569231599999961,0.8569231599999937
10.76659316666663,-0.8760722866666629,0.8633062066666604
11.503834333333296,-0.8952214133333296,0.869689253333327
12.241075499999965,-0.9143705399999963,0.8760722999999938
12.241075499999965,-0.9143705399999963,0.8760722999999938
12.633632333333297,-0.834582526666663,0.8537316666666603
13.026189166666631,-0.7547945133333297,0.8313910333333269
13.418745999999963,-0.6750064999999964,0.8090503999999935
13.418745999999963,-0.6750064999999964,0.8090503999999935
12.850655666666631,-0.7675605999999965,0.9590518333333269
12.282565333333297,-0.8601146999999966,1.1090532666666604
11.714474999999965,-0.9526687999999967,1.2590546999999936
11.714474999999965,-0.9526687999999967,1.2590546999999936
11.072979499999965,-0.9622433466666633,1.584589733333327
10.431483999999964,-0.97181789333333,1.9101247666666605
9.789988499999964,-0.9813924399999966,2.235659799999994
9.789988499999964,-0.9813924399999966,2.235659799999994
9.639986999999964,-0.9239450933333299,2.347363033333327
9.489985499999966,-0.8664977466666631,2.4590662666666603
9.339983999999966,-0.8090503999999964,2.5707694999999937
9.339983999999966,-0.8090503999999964,2.570769499999994
8.414442999999965,-0.8856468666666631,2.3409800666666607
7.488901999999965,-0.9622433333333299,2.1111906333333272
6.563360999999965,-1.0388397999999968,1.881401199999994
6.563360999999965,-1.038839799999997,1.881401199999994
6.384635999999965,-1.2750122666666635,1.7537403666666609
6.205910999999965,-1.5111847333333301,1.6260795333333276
6.027185999999965,-1.7473571999999968,1.4984186999999942
6.668681533333298,-1.81118763333333,1.6452286333333275
7.31017706666663,-1.8750180666666634,1.7920385666666607
7.951672599999963,-1.9388484999999969,1.9388484999999938
7.951672599999963,-1.9388484999999969,1.9388484999999938
7.951672599999963,-1.9388484999999969,1.9388484999999938
8.724020399999963,-1.9324654333333304,2.0505517333333274
9.496368199999965,-1.926082366666664,2.162254966666661
10.268715999999966,-1.9196992999999976,2.2739581999999943
10.8112743333333,-2.0697007999999975,2.0888500333333275
11.353832666666634,-2.2197022999999976,1.903741866666661
11.896390999999968,-2.3697037999999977,1.7186336999999943
11.896390999999968,-2.3697037999999977,1.7186336999999943
12.940017999999968,-2.3697037999999977,1.7537403666666609
13.983644999999969,-2.3697037999999977,1.7888470333333275
15.02727199999997,-2.3697037999999977,1.8239536999999941
15.027271999999973,-2.3697037999999977,1.8239536999999941
13.437895333333307,-2.4175765333333312,1.648420099999994
11.84851866666664,-2.4654492666666648,1.4728864999999942
10.259141999999972,-2.5133219999999983,1.2973528999999944
10.259141999999972,-2.5133219999999983,1.2973528999999944
10.25275866666664,-2.2962986666666647,1.3165020333333277
10.246375333333308,-2.079275333333331,1.335651166666661
10.239991999999976,-1.8622519999999974,1.3548002999999944
10.239991999999978,-1.8622519999999974,1.3548002999999944
9.292110666666645,-1.7250166333333308,1.348417266666661
8.344229333333312,-1.5877812666666642,1.3420342333333277
7.396347999999979,-1.4505458999999974,1.3356511999999945
7.396347999999979,-1.4505458999999974,1.3356511999999945
6.898470866666646,-1.4665034999999975,1.172883666666661
6.400593733333313,-1.4824610999999976,1.0101161333333277
5.90271659999998,-1.4984186999999978,0.8473485999999945
5.902716599999981,-1.4984186999999978,0.8473485999999945
6.761235399999983,-1.377140933333331,0.837774033333328
7.619754199999984,-1.2558631666666642,0.8281994666666614
8.478272999999986,-1.1345853999999973,0.8186248999999949
8.478272999999986,-1.1345853999999973,0.8186248999999949
9.805945333333318,-1.0643719566666643,0.8026673099999949
11.13361766666665,-0.994158513333331,0.7867097199999948
12.461289999999982,-0.9239450699999979,0.7707521299999948
12.461289999999982,-0.9239450699999979,0.7707521299999948
12.80916566666665,-0.9494772466666644,0.7324538866666614
13.157041333333316,-0.9750094233333311,0.6941556433333281
13.504916999999983,-1.0005415999999976,0.6558573999999947
13.504916999999983,-1.0005415999999976,0.6558573999999947
13.147466999999983,-0.9462857466666644,0.8058588666666614
12.790016999999983,-0.8920298933333312,0.9558603333333281
12.432566999999983,-0.8377740399999979,1.105861799999995
12.432566999999983,-0.8377740399999979,1.1058617999999947
11.245321666666648,-0.8345825266666645,1.335651199999995
10.058076333333313,-0.8313910133333312,1.5654405999999952
8.87083099999998,-0.8281994999999979,1.7952299999999954
8.87083099999998,-0.8281994999999979,1.7952299999999954
9.113385999999982,-0.6781980466666644,1.9484229999999954
9.355940999999982,-0.5281965933333309,2.101615999999995
9.598495999999983,-0.3781951399999975,2.254808999999995
9.598495999999981,-0.3781951399999975,2.254808999999995
8.896361866666648,-0.6526658599999976,2.1079990666666615
8.194227733333316,-0.9271365799999977,1.9611891333333282
7.492093599999982,-1.2016072999999976,1.814379199999995
7.492093599999982,-1.2016072999999976,1.814379199999995
6.920811533333315,-1.2590546666666642,1.769697933333328
6.349529466666649,-1.3165020333333308,1.7250166666666613
5.778247399999983,-1.3739493999999974,1.6803353999999944
6.205911033333315,-1.6420370666666644,1.7920385999999946
6.6335746666666475,-1.9101247333333313,1.903741799999995
7.061238299999981,-2.1782123999999983,2.0154449999999953
7.061238299999981,-2.1782123999999983,2.0154449999999957
7.989970533333314,-2.0505515999999986,2.270766566666662
8.918702766666648,-1.9228907999999987,2.5260881333333294
9.847434999999981,-1.795229999999999,2.781409699999996
9.847434999999981,-1.795229999999999,2.781409699999996
10.342120666666649,-1.9356569333333322,2.5739608999999963
10.836806333333314,-2.0760838666666657,2.3665120999999965
11.331491999999978,-2.2165107999999987,2.1590632999999966
11.331491999999978,-2.2165107999999987,2.1590632999999966
12.764484666666647,-2.3218309333333322,2.044168599999997
14.197477333333316,-2.4271510666666654,1.9292738999999965
15.630469999999983,-2.5324711999999985,1.8143791999999965
15.630469999999983,-2.5324711999999985,1.8143791999999965
15.630469999999983,-2.5324711999999985,1.8143791999999965
13.91662366666665,-2.3186393666666656,1.6739523333333297
12.202777333333316,-2.1048075333333323,1.533525466666663
10.488930999999981,-1.8909756999999991,1.3930985999999963
10.447441333333314,-1.7824640333333324,1.2430971333333296
10.405951666666645,-1.6739523666666656,1.093095666666663
10.364461999999977,-1.5654406999999988,0.9430941999999961
10.364461999999977,-1.5654406999999988,0.9430941999999961
9.525091999999976,-1.5367169999999988,0.9494772333333295
8.685721999999975,-1.507993299999999,0.9558602666666628
7.846351999999976,-1.4792695999999992,0.962243299999996
7.846351999999976,-1.4792695999999992,0.962243299999996
7.249537866666643,-1.4218221999999991,0.9782008999999962
6.65272373333331,-1.364374799999999,0.9941584999999963
6.055909599999976,-1.306927399999999,1.0101160999999965
6.055909599999976,-1.306927399999999,1.0101160999999965
6.633574733333309,-1.306927399999999,1.0133075999999963
7.211239866666642,-1.306927399999999,1.016499099999996
7.788904999999976,-1.306927399999999,1.019690599999996
7.788904999999976,-1.306927399999999,1.019690599999996
8.822957666666644,-1.4377797666666654,0.9654347866666626
9.857010333333312,-1.568632133333332,0.9111789733333294
10.89106299999998,-1.6994844999999985,0.8569231599999961
10.89106299999998,-1.699484499999998,0.8569231599999961
11.328300999999977,-1.6931014666666648,0.9622433066666628
11.765538999999976,-1.6867184333333316,1.0675634533333296
12.202776999999974,-1.6803353999999981,1.172883599999996
12.202776999999974,-1.6803353999999981,1.1728835999999958
12.665547333333308,-1.5143763333333318,1.2494800999999958
13.128317666666641,-1.3484172666666652,1.3260765999999957
13.591087999999976,-1.1824581999999986,1.402673099999996
13.591087999999976,-1.1824581999999986,1.402673099999996
12.783633666666644,-1.121819333333332,1.597355833333329
11.976179333333311,-1.0611804666666653,1.7920385666666625
11.168724999999979,-1.0005415999999985,1.9867212999999957
11.168724999999979,-1.0005415999999985,1.9867212999999957
10.664464666666644,-0.9526687866666652,2.1718294666666624
10.16020433333331,-0.9047959733333318,2.3569376333333287
9.655943999999975,-0.8569231599999986,2.5420457999999955
9.655943999999975,-0.8569231599999986,2.542045799999995
9.694242333333309,-0.6877725899999986,2.4463001999999947
9.732540666666644,-0.5186220199999987,2.350554599999995
9.77083899999998,-0.3494714499999987,2.2548089999999945
9.77083899999998,-0.3494714499999987,2.2548089999999945
8.602742533333311,-0.20585304499999868,2.079275399999995
7.434646066666642,-0.062234639999998675,1.903741799999995
6.266549599999976,0.08138376500000133,1.728208199999995
6.266549599999976,0.08138376500000133,1.728208199999995
6.091016066666643,-0.31755625666666537,1.6643777666666617
5.915482533333308,-0.7164962783333321,1.6005473333333284
5.739948999999974,-1.1154362999999987,1.536716899999995
5.739948999999974,-1.1154362999999987,1.536716899999995
6.566552666666642,-1.2271394999999987,1.6356540333333285
7.393156333333309,-1.3388426999999987,1.7345911666666618
8.219759999999976,-1.4505458999999987,1.8335282999999951
8.851680999999976,-1.629271033333332,1.8909756333333283
9.483601999999975,-1.8079961666666655,1.948422966666662
10.115522999999975,-1.986721299999999,2.0058702999999953
10.115522999999977,-1.986721299999999,2.0058702999999958
10.115522999999977,-1.986721299999999,2.0058702999999958
10.619783333333311,-2.1271481999999993,2.0505516333333293
11.124043666666646,-2.2675750999999993,2.0952329666666625
11.62830399999998,-2.4080019999999993,2.1399142999999956
12.496397333333315,-2.4080019999999998,2.2197022666666624
13.364490666666649,-2.4080019999999998,2.299490233333329
14.232583999999983,-2.4080019999999998,2.379278199999996
14.232583999999983,-2.4080019999999998,2.3792781999999963
13.000657333333317,-2.3122564000000003,2.2260852333333294
11.76873066666665,-2.2165108000000004,2.072892266666663
10.536803999999986,-2.120765200000001,1.919699299999996
10.536803999999986,-2.1207652000000015,1.919699299999996
10.575101999999985,-2.0026789333333346,1.7888469999999959
10.613399999999986,-1.884592666666668,1.6579946999999955
10.651697999999985,-1.766506400000001,1.5271423999999953
10.651697999999985,-1.766506400000001,1.5271423999999953
9.885733333333318,-1.811187666666668,1.472886566666662
9.119768666666653,-1.855868933333335,1.4186307333333288
8.353803999999986,-1.9005502000000016,1.3643748999999958
8.353803999999986,-1.900550200000002,1.364374899999996
7.584647566666653,-1.8814011000000022,1.3165020666666625
6.815491133333318,-1.8622520000000022,1.2686292333333289
6.046334699999985,-1.8431029000000023,1.2207563999999953
6.046334699999985,-1.8431029000000023,1.2207563999999953
6.598467799999985,-1.6611862333333356,1.2079903333333288
7.1506008999999855,-1.4792695666666689,1.1952242666666621
7.702733999999985,-1.2973529000000024,1.1824581999999955
7.702733999999985,-1.2973529000000024,1.1824581999999955
8.475081666666652,-1.3803324333333358,1.0228821899999954
9.247429333333317,-1.4633119666666694,0.8633061799999954
10.019776999999984,-1.546291500000003,0.7037301699999953
10.019776999999984,-1.546291500000003,0.7037301699999953
10.728294333333317,-1.7058675333333362,0.7101132133333286
11.43681166666665,-1.8654435666666693,0.7164962566666618
12.145328999999982,-2.0250196000000025,0.722879299999995
12.145328999999982,-2.0250196000000025,0.722879299999995
12.499587999999983,-2.0377856666666694,0.9782009333333285
12.853846999999986,-2.050551733333336,1.2335225666666618
13.208105999999987,-2.0633178000000023,1.4888441999999953
13.208105999999987,-2.0633178000000023,1.4888441999999953
12.01447733333332,-2.149488866666669,1.6228880333333287
10.820848666666654,-2.2356599333333356,1.756931866666662
9.627219999999987,-2.3218310000000018,1.8909756999999956
9.627219999999987,-2.3218310000000018,1.8909756999999956
9.643177999999986,-2.392044400000002,2.063317799999995
9.659135999999988,-2.462257800000002,2.235659899999995
9.675093999999987,-2.532471200000002,2.408001999999995
9.675093999999987,-2.532471200000002,2.408001999999995
9.732540999999989,-2.293107200000002,2.280341199999995
9.789987999999989,-2.0537432000000018,2.1526803999999955
9.84743499999999,-1.8143792000000019,2.0250195999999954
9.847434999999992,-1.8143792000000019,2.0250195999999954
9.196364999999991,-1.9005502666666685,1.7888470999999957
8.545294999999992,-1.9867213333333351,1.552674599999996
7.8942249999999925,-2.0728924000000015,1.3165020999999961
7.8942249999999925,-2.072892400000001,1.316502099999996
7.332517533333326,-1.9069333333333347,1.2909699333333293
6.77081006666666,-1.740974266666668,1.2654377666666627
6.209102599999994,-1.5750152000000017,1.239905599999996
6.209102599999994,-1.5750152000000017,1.239905599999996
6.700596633333329,-1.7122505666666683,1.2462886333333294
7.192090666666663,-1.8494859333333349,1.2526716666666626
7.683584699999997,-1.9867213000000017,1.2590546999999959
7.683584699999997,-1.9867213000000017,1.2590546999999959
8.133589133333329,-2.0473602000000013,1.498418699999996
8.583593566666663,-2.1079991000000016,1.7377826999999961
9.033597999999996,-2.168638000000002,1.9771466999999963
9.033597999999998,-2.168638000000002,1.9771466999999963
9.017640333333333,-2.264383566666669,2.2069361333333295
9.001682666666667,-2.360129133333336,2.436725566666663
8.985725000000002,-2.455874700000003,2.6665149999999964
8.985725000000002,-2.455874700000003,2.6665149999999964
8.912320333333335,-2.6314083000000026,2.775026733333329
8.83891566666667,-2.806941900000002,2.8835384666666624
8.765511000000004,-2.982475500000002,2.9920501999999956
8.765511000000005,-2.982475500000002,2.9920501999999956
9.352750333333338,-2.9026875333333355,2.842048733333329
9.939989666666673,-2.822899566666669,2.6920472666666626
10.527229000000007,-2.743111600000003,2.5420457999999964
10.527229000000007,-2.743111600000003,2.5420457999999964
11.184682333333342,-2.771835233333336,2.2292768333333295
11.842135666666676,-2.800558866666669,1.9165078666666624
12.49958900000001,-2.829282500000002,1.6037388999999955
12.49958900000001,-2.829282500000002,1.6037388999999955
12.024052333333344,-2.7654521333333353,1.2718207999999958
11.54851566666668,-2.7016217666666686,0.9399026999999958
11.072979000000013,-2.6377914000000016,0.6079845999999958
11.072979000000013,-2.6377914000000016,0.6079845999999959
11.005957000000015,-2.5165136666666688,0.5313881133333291
10.938935000000015,-2.395235933333336,0.45479162666666245
10.871913000000015,-2.273958200000003,0.3781951399999957
10.871913000000015,-2.2739582000000036,0.3781951399999957
9.821903000000015,-2.2739582000000036,0.3877696999999958
8.771893000000015,-2.2739582000000036,0.39734425999999584
7.721883000000015,-2.2739582000000036,0.40691881999999585
7.721883000000015,-2.2739582000000036,0.40691881999999585
7.7059254333333485,-2.2899158000000037,0.33989689333332923
7.689967866666682,-2.305873400000004,0.27287496666666256
7.674010300000016,-2.321831000000004,0.2058530399999959
7.674010300000016,-2.3218310000000044,0.2058530399999959
8.171887533333349,-2.175021066666671,0.36542905999999586
8.669764766666683,-2.0282111333333375,0.5250050799999958
9.167642000000017,-1.8814012000000038,0.6845810999999958
9.167642000000017,-1.8814012000000038,0.6845810999999958
9.531475333333352,-1.9931044000000038,0.8633061999999957
9.895308666666685,-2.104807600000004,1.0420312999999954
10.259142000000017,-2.216510800000004,1.2207563999999953
10.259142000000015,-2.2165108000000036,1.2207563999999953
10.597443000000014,-2.1175736333333366,1.3133104999999954
10.935744000000014,-2.01863646666667,1.4058645999999957
11.274045000000015,-1.919699300000003,1.498418699999996
11.274045000000015,-1.919699300000003,1.498418699999996
11.337875333333349,-1.7441657333333367,1.6388455666666626
11.40170566666668,-1.56863216666667,1.779272433333329
11.465536000000014,-1.3930986000000036,1.9196992999999953
11.465536000000014,-1.3930986000000036,1.9196992999999953
10.718720333333346,-1.555866133333337,1.7313996333333286
9.97190466666668,-1.7186336666666702,1.5430999666666618
9.225089000000011,-1.8814012000000035,1.3548002999999949
9.22508900000001,-1.8814012000000035,1.3548002999999949
10.045309666666677,-1.878209633333337,1.3739494333333282
10.865530333333345,-1.8750180666666703,1.3930985666666615
11.68575100000001,-1.8718265000000036,1.4122476999999949
11.68575100000001,-1.8718265000000036,1.4122476999999949
10.651698333333345,-1.942039933333337,1.5079932999999948
9.617645666666677,-2.01225336666667,1.603738899999995
8.58359300000001,-2.0824668000000033,1.6994844999999952
8.583593000000008,-2.082466800000003,1.6994844999999952
8.570827000000007,-1.9707636000000026,1.8079961999999952
8.558061000000007,-1.8590604000000024,1.916507899999995
8.545295000000008,-1.7473572000000022,2.025019599999995
8.545295000000008,-1.7473572000000022,2.025019599999995
8.998490666666678,-1.7377827000000021,2.069700833333328
9.451686333333345,-1.728208200000002,2.114382066666661
9.904882000000013,-1.7186337000000023,2.1590632999999944
9.904882000000015,-1.7186337000000023,2.1590632999999944
9.904882000000015,-1.7186337000000023,2.1590632999999944
9.793179000000015,-1.7760810333333357,2.0856583666666615
9.681476000000012,-1.833528366666669,2.012253433333328
9.569773000000012,-1.8909757000000027,1.9388484999999946
9.282536333333347,-1.7920386000000026,1.9420399999999949
8.995299666666682,-1.6931015000000027,1.945231499999995
8.708063000000017,-1.5941644000000028,1.948422999999995
8.708063000000017,-1.5941644000000028,1.948422999999995
9.15806733333335,-1.5048018000000027,1.9356569333333284
9.608071666666682,-1.4154392000000027,1.9228908666666618
10.058076000000014,-1.3260766000000028,1.910124799999995
10.058076000000014,-1.3260766000000028,1.910124799999995
11.213406333333348,-1.5335254000000027,1.7218250999999951
12.368736666666683,-1.7409742000000026,1.5335253999999952
13.524067000000016,-1.9484230000000025,1.3452256999999952
13.524067000000016,-1.9484230000000025,1.3452256999999952
13.185765666666683,-2.0218280000000024,1.2335224999999952
12.847464333333349,-2.095233000000002,1.1218192999999952
12.509163000000015,-2.168638000000002,1.0101160999999952
12.509163000000015,-2.168638000000002,1.0101160999999952
12.148521166666683,-2.0697008333333353,0.8058588199999953
11.78787933333335,-1.9707636666666684,0.6016015399999953
11.427237500000018,-1.8718265000000016,0.3973442599999953
11.427237500000018,-1.8718265000000016,0.39734425999999523
10.846381000000017,-1.7696979000000015,0.4196848966666618
10.265524500000017,-1.6675693000000014,0.44202553333332845
9.684668000000018,-1.5654407000000015,0.464366169999995
9.684668000000016,-1.5654407000000015,0.464366169999995
8.982533566666682,-1.578206766666668,0.5058559466666618
8.280399133333347,-1.5909728333333346,0.5473457233333284
7.5782647000000125,-1.6037389000000013,0.5888354999999952
7.5782647000000125,-1.6037389000000013,0.5888354999999952
7.383581933333346,-1.5399085000000012,0.6590489333333286
7.18889916666668,-1.4760781000000014,0.7292623666666619
6.994216400000013,-1.4122477000000015,0.7994757999999953
6.994216400000013,-1.4122477000000015,0.7994757999999953
7.734648933333347,-1.3930985666666682,0.8952213999999953
8.47508146666668,-1.3739494333333349,0.9909669999999952
9.215514000000013,-1.3548003000000015,1.0867125999999951
9.215514000000013,-1.3548003000000015,1.086712599999995
9.215514000000013,-1.3548003000000015,1.086712599999995
9.88892466666668,-1.3771409333333349,1.1377769333333283
10.562335333333346,-1.3994815666666682,1.1888412666666615
11.235746000000013,-1.4218222000000018,1.2399055999999948
11.854901000000014,-1.4377798000000015,1.2686292666666616
12.474056000000017,-1.4537374000000014,1.2973529333333282
13.093211000000018,-1.4696950000000013,1.326076599999995
13.09321100000002,-1.4696950000000013,1.326076599999995
13.21768050000002,-1.290969886666668,1.4122476333333285
13.342150000000018,-1.1122447733333347,1.4984186666666617
13.466619500000016,-0.9335196600000014,1.584589699999995
13.466619500000016,-0.9335196600000014,1.584589699999995
13.466619500000016,-0.9335196600000014,1.584589699999995
11.982562666666682,-1.0962871733333348,1.7601233333333284
10.498505833333349,-1.2590546866666683,1.9356569666666619
9.014449000000015,-1.4218222000000018,2.111190599999995
9.435729666666683,-1.2111818866666682,2.184595533333328
9.85701033333335,-1.0005415733333347,2.2580004666666613
10.278291000000015,-0.7899012600000015,2.331405399999994
10.278291000000014,-0.7899012600000015,2.331405399999994
10.278291000000014,-0.7899012600000015,2.331405399999994
9.470836333333347,-0.9622433066666681,1.9931042999999942
8.663381666666679,-1.1345853533333348,1.654803199999994
7.855927000000012,-1.3069274000000013,1.3165020999999941
7.855927000000012,-1.306927400000001,1.316502099999994
7.252729566666678,-1.3548002333333342,1.3356511999999938
6.649532133333344,-1.4026730666666676,1.3548002999999937
6.04633470000001,-1.4505459000000007,1.3739493999999937
6.432508800000011,-1.5877812666666673,1.5845896999999936
6.81868290000001,-1.725016633333334,1.7952299999999939
7.204857000000011,-1.8622520000000007,2.005870299999994
7.204857000000011,-1.8622520000000007,2.0058702999999944
7.204857000000011,-1.8622520000000007,2.0058702999999944
7.817628666666677,-1.900550233333334,2.2069360999999947
8.430400333333344,-1.9388484666666674,2.408001899999995
9.04317200000001,-1.9771467000000011,2.6090676999999953
9.043172000000013,-1.9771467000000011,2.6090676999999953
9.247429333333345,-2.1303396666666674,2.5516203333333287
9.45168666666668,-2.283532633333334,2.4941729666666617
9.655944000000012,-2.436725600000001,2.436725599999994
9.655944000000012,-2.4367256000000013,2.436725599999994
11.248512666666679,-2.516513666666668,2.2835326333333272
12.841081333333348,-2.596301733333335,2.1303396666666603
14.433650000000014,-2.676089800000002,1.9771466999999936
14.433650000000014,-2.676089800000002,1.9771466999999934
13.59108866666668,-2.6186423666666685,1.9931043333333267
12.748527333333348,-2.561194933333335,2.00906196666666
11.905966000000014,-2.5037475000000016,2.025019599999993
11.905966000000014,-2.5037475000000016,2.025019599999993
11.487876666666681,-2.580344000000002,1.7920385999999933
11.06978733333335,-2.6569405000000024,1.5590575999999932
10.651698000000017,-2.7335370000000023,1.3260765999999935
10.65169800000002,-2.7335370000000023,1.3260765999999933
10.058075666666685,-2.363320666666669,1.3771409333333267
9.464453333333351,-1.9931043333333356,1.4282052666666598
8.870831000000019,-1.622888000000002,1.4792695999999932
8.104865866666685,-1.7186336000000022,1.383523999999993
7.338900733333354,-1.8143792000000023,1.2877783999999928
6.572935600000022,-1.9101248000000026,1.1920327999999927
6.572935600000022,-1.9101248000000026,1.1920327999999925
6.572935600000022,-1.9101248000000026,1.1920327999999925
6.898470733333355,-1.7441657666666692,1.3005444999999924
7.224005866666687,-1.5782067333333358,1.4090561999999924
7.549541000000019,-1.4122477000000024,1.5175678999999924
7.549541000000019,-1.4122477000000024,1.5175678999999924
8.258058666666686,-1.4728866000000025,1.402673133333326
8.966576333333355,-1.5335255000000025,1.2877783666666598
9.675094000000023,-1.5941644000000028,1.1728835999999934
10.128289666666689,-1.6420371666666693,1.0835210466666598
10.581485333333355,-1.689909933333336,0.9941584933333266
11.03468100000002,-1.7377827000000028,0.9047959399999933
11.03468100000002,-1.7377827000000028,0.9047959399999933
11.03468100000002,-1.7377827000000028,0.9047959399999933
12.068733666666688,-1.5622491000000025,0.9111789833333265
13.102786333333356,-1.3867155000000022,0.9175620266666598
14.136839000000023,-1.2111819000000021,0.923945069999993
14.136839000000023,-1.2111819000000024,0.9239450699999928
13.25278766666669,-1.1122447800000026,1.0643719466666595
12.368736333333354,-1.0133076600000026,1.2047988233333262
11.48468500000002,-0.9143705400000028,1.345225699999993
11.48468500000002,-0.9143705400000028,1.345225699999993
10.651698333333355,-0.9367111733333363,1.5143762999999926
9.818711666666688,-0.9590518066666697,1.6835268999999926
8.985725000000023,-0.9813924400000031,1.8526774999999926
8.985725000000023,-0.9813924400000031,1.8526774999999926
9.378282000000022,-0.8441570766666698,1.9707636999999927
9.770839000000022,-0.7069217133333364,2.0888498999999925
10.16339600000002,-0.5696863500000031,2.2069360999999925
10.16339600000002,-0.5696863500000031,2.2069360999999925
9.394239666666687,-0.9494772333333364,2.021827966666659
8.625083333333356,-1.3292681166666698,1.8367198333333257
7.8559270000000225,-1.7090590000000034,1.6516116999999924
7.8559270000000225,-1.7090590000000034,1.6516116999999924
7.351666766666689,-1.6548031666666703,1.7218251333333257
6.847406533333356,-1.6005473333333373,1.792038566666659
6.343146300000022,-1.5462915000000041,1.862251999999992
6.343146300000022,-1.5462915000000041,1.862251999999992
6.43570040000002,-1.5845897333333376,1.9101247666666588
6.52825450000002,-1.6228879666666713,1.9579975333333255
6.620808600000018,-1.6611862000000048,2.0058702999999922
6.620808600000018,-1.6611862000000048,2.0058702999999922
7.405922566666686,-1.8016130666666716,2.1462971999999922
8.191036533333355,-1.942039933333338,2.2867240999999923
8.976150500000024,-2.0824668000000046,2.4271509999999927
9.719774666666689,-2.2133192000000044,2.452683166666659
10.463398833333356,-2.3441716000000046,2.4782153333333254
11.20702300000002,-2.4750240000000043,2.503747499999992
11.20702300000002,-2.475024000000004,2.503747499999992
11.20702300000002,-2.475024000000004,2.503747499999992
12.56341900000002,-2.51013066666667,2.401618899999992
13.91981500000002,-2.5452373333333367,2.299490299999992
15.276211000000018,-2.580344000000003,2.1973616999999925
15.276211000000018,-2.5803440000000024,2.1973616999999925
13.773005000000019,-2.5260882000000024,2.085658466666659
12.26979900000002,-2.4718324000000025,1.9739552333333255
10.766593000000022,-2.4175766000000025,1.862251999999992
10.766593000000022,-2.3314055000000025,1.6675692666666588
10.766593000000022,-2.2452344000000024,1.4728865333333256
10.766593000000022,-2.159063300000002,1.2782037999999922
10.766593000000022,-2.159063300000002,1.2782037999999922
10.766593000000022,-2.159063300000002,1.2782037999999922
10.042118000000022,-1.980338200000002,1.2558631666666589
9.31764300000002,-1.801613100000002,1.2335225333333255
8.59316800000002,-1.622888000000002,1.211181899999992
8.59316800000002,-1.622888000000002,1.211181899999992
7.875076000000021,-1.5016102333333354,1.259054699999992
7.156984000000022,-1.380332466666669,1.3069274999999922
6.438892000000021,-1.2590547000000023,1.3548002999999922
6.432508866666688,-1.2941614333333356,1.2941613999999921
6.426125733333355,-1.3292681666666688,1.233522499999992
6.4197426000000215,-1.364374900000002,1.1728835999999918
6.4197426000000215,-1.364374900000002,1.1728835999999918
6.4197426000000215,-1.364374900000002,1.1728835999999918
7.498476400000023,-1.3548003333333352,1.144159933333325
8.577210200000023,-1.3452257666666683,1.1154362666666582
9.655944000000021,-1.3356512000000016,1.0867125999999916
9.655944000000021,-1.3356512000000016,1.0867125999999914
10.498505333333355,-1.3005445000000015,1.176075166666658
11.34106666666669,-1.2654378000000015,1.2654377333333244
12.183628000000022,-1.2303311000000015,1.354800299999991
12.183628000000022,-1.2303311000000015,1.354800299999991
12.58575966666669,-1.2845869333333348,1.3707578999999912
12.987891333333357,-1.3388427666666682,1.3867154999999913
13.390023000000022,-1.3930986000000016,1.4026730999999915
13.390023000000022,-1.3930986000000016,1.4026730999999917
13.144275833333358,-1.559057633333335,1.3356511666666584
12.898528666666692,-1.7250166666666684,1.2686292333333251
12.652781500000026,-1.8909757000000018,1.2016072999999918
12.652781500000026,-1.8909757000000018,1.2016072999999918
11.408088666666695,-1.7633148666666683,1.3420341999999919
10.163395833333363,-1.6356540333333347,1.482461099999992
8.918703000000027,-1.5079932000000011,1.6228879999999923
8.91870300000003,-1.5079932000000011,1.6228879999999926
9.23147200000003,-1.1824581666666678,1.7920385333333257
9.54424100000003,-0.8569231333333347,1.961189066666659
9.857010000000031,-0.5313881000000015,2.130339599999992
9.857010000000031,-0.5313881000000014,2.1303395999999917
8.969767333333364,-0.7069217000000014,1.9899127333333253
8.082524666666695,-0.8824553000000014,1.8494858666666587
7.19528200000003,-1.0579889000000013,1.709058999999992
7.19528200000003,-1.0579889000000013,1.709058999999992
6.764426866666695,-1.0707549666666683,1.7601233333333253
6.333571733333361,-1.0835210333333347,1.8111876666666584
5.902716600000027,-1.0962871000000014,1.8622519999999918
5.902716600000029,-1.0962871000000012,1.8622519999999918
6.272932966666697,-1.565440566666668,1.8750180666666587
6.643149333333365,-2.0345940333333346,1.8877841333333254
7.0133657000000325,-2.503747500000001,1.9005501999999919
7.0133657000000325,-2.503747500000001,1.9005501999999919
7.782521800000031,-2.420768000000001,2.1462972666666587
8.55167790000003,-2.3377885000000016,2.3920443333333252
9.320834000000028,-2.2548090000000016,2.637791399999992
9.320834000000028,-2.2548090000000016,2.637791399999992
9.831477333333362,-2.133531233333335,2.6920472666666586
10.342120666666696,-2.0122534666666687,2.7463031333333254
10.85276400000003,-1.890975700000002,2.8005589999999922
10.85276400000003,-1.890975700000002,2.8005589999999922
12.043201000000032,-2.4399171333333354,2.452683299999992
13.233638000000033,-2.9888585666666683,2.104807599999992
14.424075000000032,-3.537800000000001,1.7569318999999919
14.424075000000032,-3.5378000000000007,1.7569318999999919
13.479385333333367,-3.489927233333334,1.6260795666666585
12.5346956666667,-3.4420544666666673,1.4952272333333252
11.590006000000033,-3.3941817000000007,1.3643748999999918
11.590006000000033,-3.3941817000000007,1.3643748999999918
11.424047000000032,-3.0941788000000003,1.380332499999992
11.258088000000031,-2.7941759000000004,1.396290099999992
11.09212900000003,-2.494173,1.4122476999999922
11.09212900000003,-2.494173,1.4122476999999922
10.428292333333365,-2.063317766666666,1.4122476999999922
9.764455666666699,-1.6324625333333331,1.4122476999999922
9.100619000000032,-1.2016072999999998,1.4122476999999922
9.100619000000032,-1.2016072999999998,1.4122476999999922
8.152737666666697,-1.2143733999999997,1.3739494333333255
7.204856333333365,-1.2271394999999998,1.3356511666666588
6.256975000000033,-1.2399056,1.2973528999999921
6.256975000000033,-1.2399056,1.2973528999999921
6.250592100000033,-1.1537345466666664,1.338842666666659
6.244209200000032,-1.0675634933333331,1.3803324333333258
6.237826300000031,-0.9813924399999999,1.4218221999999925
6.23782630000003,-0.9813924399999999,1.4218221999999925
7.326134533333364,-1.1665005933333332,1.3994815666666591
8.414442766666697,-1.3516087466666662,1.3771409333333258
9.50275100000003,-1.5367168999999994,1.3548002999999922
9.502751000000028,-1.5367168999999994,1.3548002999999922
10.581485000000027,-1.5845897333333328,1.3675663999999923
11.660219000000026,-1.632462566666666,1.3803324999999924
12.738953000000029,-1.680335399999999,1.3930985999999923
12.738953000000029,-1.680335399999999,1.3930985999999923
12.738953000000029,-1.680335399999999,1.3930985999999923
12.477248000000026,-1.6388456333333326,1.4282052999999924
12.215543000000025,-1.597355866666666,1.4633119999999924
11.953838000000024,-1.5558660999999996,1.4984186999999924
12.138946333333358,-1.409056166666666,1.5016101999999922
12.324054666666692,-1.2622462333333326,1.504801699999992
12.509163000000028,-1.1154362999999992,1.5079931999999918
12.509163000000028,-1.1154362999999992,1.5079931999999918
11.561281666666693,-1.3260765999999993,1.5335253666666588
10.61340033333336,-1.5367168999999992,1.5590575333333259
9.665519000000026,-1.747357199999999,1.5845896999999927
9.665519000000028,-1.747357199999999,1.5845896999999927
9.665519000000028,-1.747357199999999,1.5845896999999927
9.812328666666696,-1.453737366666666,1.7760808999999924
9.959138333333362,-1.1601175333333327,1.9675720999999922
10.10594800000003,-0.8664976999999995,2.159063299999992
9.419771333333363,-0.955860266666666,2.0537431666666586
8.733594666666697,-1.0452228333333327,1.9484230333333254
8.04741800000003,-1.134585399999999,1.843102899999992
8.04741800000003,-1.134585399999999,1.843102899999992
7.345283666666698,-1.1665006333333325,1.9037417999999924
6.643149333333365,-1.198415866666666,1.9643806999999924
5.941015000000031,-1.2303310999999992,2.0250195999999927
5.941015000000031,-1.2303310999999992,2.0250195999999927
6.221868666666698,-1.4601204999999995,2.0824669666666593
6.502722333333364,-1.6899098999999997,2.139914333333326
6.783576000000031,-1.9196992999999998,2.1973616999999925
6.783576000000031,-1.9196993000000002,2.1973616999999925
7.351666666666698,-2.0856584000000002,2.2420429333333254
7.919757333333364,-2.2516175000000005,2.2867241666666587
8.487848000000032,-2.4175766000000007,2.331405399999992
8.487848000000033,-2.4175766000000007,2.331405399999992
9.339983666666699,-2.4175766000000007,2.4750238333333257
10.192119333333366,-2.4175766000000007,2.6186422666666593
11.044255000000033,-2.4175766000000007,2.762260699999993
11.044255000000033,-2.4175766000000007,2.762260699999993
11.8325606666667,-2.3569376666666675,2.6186422666666593
12.620866333333366,-2.2962987333333342,2.4750238333333257
13.409172000000032,-2.235659800000001,2.331405399999992
13.409172000000032,-2.235659800000001,2.331405399999992
13.297468666666697,-2.334596933333334,2.3186393666666585
13.185765333333364,-2.433534066666667,2.305873333333325
13.074062000000032,-2.5324712000000003,2.2931072999999915
13.074062000000032,-2.5324712000000003,2.2931072999999915
12.228309333333366,-2.519705133333334,2.1367227666666584
11.382556666666702,-2.5069390666666673,1.9803382333333257
10.536804000000037,-2.4941730000000004,1.8239536999999924
10.536804000000037,-2.4941730000000004,1.8239536999999924
10.246375666666705,-2.1143821000000003,1.7696978666666592
9.955947333333372,-1.7345912000000003,1.715442033333326
9.665519000000037,-1.3548003000000002,1.661186199999993
9.665519000000037,-1.3548003000000002,1.661186199999993
8.695296766666704,-1.3420342333333337,1.584589733333326
7.725074533333371,-1.329268166666667,1.5079932666666593
6.754852300000038,-1.3165021000000003,1.4313967999999926
6.754852300000038,-1.3165021000000003,1.4313967999999926
6.426125700000038,-1.5335254666666671,1.3133105666666591
6.097399100000039,-1.7505488333333339,1.195224333333326
5.768672500000039,-1.9675722000000004,1.0771380999999927
5.768672500000039,-1.9675722000000004,1.0771380999999927
6.786767333333373,-1.8048046666666673,1.1633091333333259
7.804862166666706,-1.642037133333334,1.2494801666666593
8.82295700000004,-1.4792696000000005,1.3356511999999927
8.82295700000004,-1.4792696000000005,1.3356511999999927
9.991053666666707,-1.5016102333333337,1.255863166666659
11.159150333333372,-1.5239508666666672,1.176075133333326
12.327247000000037,-1.5462915000000006,1.0962870999999927
12.327247000000037,-1.5462915000000006,1.096287099999993
12.502780500000037,-1.5335254000000003,1.0675634333333262
12.678314000000038,-1.5207593,1.0388397666666596
12.853847500000038,-1.5079931999999996,1.0101160999999927
12.853847500000038,-1.5079931999999996,1.0101160999999925
12.745336000000037,-1.4505458666666664,1.1122447666666593
12.636824500000037,-1.3930985333333332,1.2143734333333258
12.528313000000034,-1.3356512,1.3165020999999923
12.528313000000034,-1.3356512,1.3165020999999923
11.40808933333337,-1.4665035333333334,1.472886566666659
10.287865666666702,-1.5973558666666667,1.6292710333333256
9.167642000000038,-1.7282082,1.785655499999992
9.167642000000038,-1.7282082,1.785655499999992
9.170833666666704,-1.6675693,1.964380666666659
9.17402533333337,-1.6069303999999998,2.1431058333333257
9.177217000000036,-1.5462914999999997,2.321830999999993
9.177217000000036,-1.5462914999999995,2.321830999999993
8.80700033333337,-1.4888441333333329,2.4239595666666602
8.436783666666704,-1.4313967666666663,2.5260881333333267
8.066567000000036,-1.3739493999999997,2.6282166999999936
8.066567000000036,-1.3739493999999997,2.628216699999993
7.3835816666667045,-1.361183333333333,2.6633234666666596
6.7005963333333725,-1.3484172666666663,2.698430233333326
6.0176110000000405,-1.3356511999999998,2.7335369999999926
6.0176110000000405,-1.3356511999999998,2.7335369999999926
6.256975166666706,-1.6388456333333332,2.6537489999999924
6.496339333333371,-1.9420400666666664,2.573960999999992
6.735703500000038,-2.2452344999999996,2.4941729999999924
7.46017833333337,-2.2228937999999996,2.666515066666659
8.1846531666667,-2.200553099999999,2.8388571333333257
8.909128000000033,-2.178212399999999,3.0111991999999925
8.909128000000033,-2.178212399999999,3.0111991999999925
8.909128000000033,-2.178212399999999,3.0111991999999925
9.202748166666701,-2.248425866666666,3.094178733333326
9.49636833333337,-2.318639333333333,3.177158266666659
9.789988500000037,-2.3888528,3.260137799999992
9.866584666666704,-2.593110066666666,3.106944866666659
9.94318083333337,-2.7973673333333324,2.9537519333333258
10.019777000000035,-3.001624599999999,2.8005589999999927
10.019777000000035,-3.001624599999999,2.8005589999999927
11.344258000000037,-3.008007733333333,2.6952387999999927
12.668739000000038,-3.014390866666666,2.5899185999999923
13.993220000000038,-3.0207739999999994,2.4845983999999923
13.993220000000038,-3.0207739999999994,2.4845983999999923
13.144275666666706,-3.0686467333333325,2.3856612666666592
12.295331333333372,-3.116519466666665,2.286724133333326
11.446387000000039,-3.164392199999998,2.187786999999993
11.446387000000039,-3.164392199999998,2.187786999999993
10.849572666666704,-3.1675837999999987,1.9579975666666598
10.25275833333337,-3.1707753999999984,1.7282081333333263
9.655944000000035,-3.173966999999998,1.498418699999993
9.655944000000035,-3.1739669999999975,1.498418699999993
9.384665000000036,-2.83247433333333,1.370757899999993
9.113386000000036,-2.4909816666666633,1.2430970999999928
8.842107000000036,-2.1494889999999964,1.1154362999999927
8.842107000000036,-2.1494889999999964,1.1154362999999927
8.567636000000036,-2.0665093999999966,0.9909669999999927
8.293165000000036,-1.9835297999999968,0.8664976999999926
8.018694000000034,-1.900550199999997,0.7420283999999926
8.018694000000034,-1.9005501999999972,0.7420283999999926
8.018694000000034,-1.9420399999999975,0.5824524066666593
8.018694000000034,-1.9835297999999977,0.4228764133333258
8.018694000000034,-2.025019599999998,0.2633004199999925
8.117631333333367,-2.1016160666666646,0.1835124139999925
8.216568666666701,-2.178212533333331,0.1037244079999925
8.315506000000036,-2.2548089999999976,0.023936401999992512
8.315506000000036,-2.2548089999999976,0.023936401999992512
8.315506000000036,-2.2548089999999976,0.023936401999992512
8.45912433333337,-2.2707665666666643,0.06861768466665917
8.602742666666705,-2.2867241333333315,0.11329896733332583
8.746361000000038,-2.3026816999999986,0.15798024999999247
9.091045333333371,-2.328213866666665,0.32393929999999244
9.435729666666704,-2.3537460333333313,0.48989834999999243
9.780414000000038,-2.3792781999999977,0.6558573999999924
9.780414000000038,-2.3792781999999977,0.6558573999999924
9.85701033333337,-2.3856612999999975,0.9654348333333257
9.933606666666703,-2.392044399999998,1.275012266666659
10.010203000000034,-2.398427499999998,1.5845896999999922
10.010203000000034,-2.398427499999998,1.5845896999999922
10.287865000000034,-2.130339799999998,1.7792724666666586
10.565527000000033,-1.862252099999998,1.973955233333325
10.843189000000033,-1.594164399999998,2.168637999999991
10.843189000000033,-1.594164399999998,2.168637999999991
10.412334000000032,-1.7313996999999979,2.139914266666658
9.98147900000003,-1.8686349999999976,2.111190533333325
9.55062400000003,-2.0058702999999976,2.082466799999992
9.55062400000003,-2.0058702999999976,2.082466799999992
9.62402900000003,-2.3122562999999974,1.9388484333333256
9.697434000000031,-2.618642299999997,1.7952300666666587
9.770839000000032,-2.925028299999997,1.651611699999992
9.770839000000032,-2.925028299999996,1.651611699999992
10.029352000000033,-2.612259299999996,1.721825133333325
10.287865000000032,-2.299490299999996,1.7920385666666583
10.546378000000031,-1.986721299999996,1.8622519999999916
10.54637800000003,-1.986721299999996,1.8622519999999916
9.844243666666696,-2.0537431999999956,1.7026759999999914
9.142109333333362,-2.120765099999996,1.5430999999999913
8.439975000000029,-2.187786999999996,1.3835239999999913
8.439975000000029,-2.1877869999999966,1.3835239999999913
8.59955100000003,-2.1239565999999965,1.3899070333333245
8.759127000000031,-2.060126199999997,1.3962900666666578
8.918703000000033,-1.9962957999999968,1.4026730999999912
9.110194000000034,-2.1494887666666638,1.6101219333333248
9.301685000000033,-2.3026817333333303,1.8175707666666583
9.493176000000032,-2.455874699999997,2.025019599999992
9.493176000000032,-2.455874699999997,2.025019599999992
9.493176000000032,-2.455874699999997,2.025019599999992
9.429345666666698,-2.42076803333333,2.194170133333325
9.365515333333365,-2.3856613666666635,2.363320666666658
9.301685000000033,-2.3505546999999964,2.5324711999999914
9.129343000000032,-2.3409801333333298,2.589918533333325
8.957001000000032,-2.3314055666666627,2.6473658666666586
8.784659000000032,-2.321830999999996,2.704813199999992
8.784659000000032,-2.321830999999996,2.704813199999992
9.014448666666697,-2.305873399999996,2.605876133333325
9.244238333333364,-2.2899157999999957,2.5069390666666584
9.47402800000003,-2.2739581999999956,2.4080019999999913
9.474028000000029,-2.273958199999995,2.4080019999999913
9.882542666666696,-2.3601291999999954,2.1814040666666585
10.291057333333361,-2.4463001999999956,1.9548061333333255
10.699572000000027,-2.532471199999996,1.728208199999992
10.699572000000027,-2.5324711999999963,1.728208199999992
11.417663833333359,-2.5963016333333293,1.6069304333333252
12.135755666666691,-2.6601320666666624,1.4856526666666587
12.853847500000024,-2.7239624999999954,1.3643748999999923
12.853847500000024,-2.7239624999999954,1.3643748999999925
12.030435333333358,-2.682472766666662,1.1186278333333257
11.207023166666692,-2.6409830333333284,0.872880766666659
10.383611000000025,-2.599493299999995,0.6271336999999924
10.383611000000025,-2.599493299999995,0.6271336999999924
10.278290666666692,-2.545237399999995,0.5664948233333257
10.172970333333359,-2.4909814999999953,0.5058559466666591
10.067650000000024,-2.436725599999995,0.44521706999999244
9.464453000000026,-2.404810399999995,0.48670682999999243
8.861256000000026,-2.3728951999999945,0.5281965899999924
8.258059000000026,-2.3409799999999943,0.5696863499999925
8.258059000000028,-2.3409799999999943,0.5696863499999925
8.411251666666695,-2.2867241333333275,0.6462828333333258
8.56444433333336,-2.2324682666666607,0.7228793166666593
8.717637000000028,-2.178212399999994,0.7994757999999926
8.717637000000028,-2.178212399999994,0.7994757999999926
9.218705666666695,-2.1367226333333273,0.9239450666666592
9.71977433333336,-2.095232866666661,1.0484143333333258
10.220843000000027,-2.0537430999999944,1.1728835999999927
10.220843000000025,-2.0537430999999944,1.1728835999999927
10.405951333333357,-2.044168599999994,1.2462885999999929
10.59105966666669,-2.0345940999999943,1.3196935999999926
10.776168000000022,-2.0250195999999945,1.3930985999999923
10.776168000000022,-2.0250195999999945,1.3930985999999923
10.945318666666688,-1.814379266666661,1.4313967999999921
11.114469333333355,-1.6037389333333276,1.469694999999992
11.283620000000022,-1.393098599999994,1.5079931999999918
11.283620000000022,-1.393098599999994,1.5079931999999918
11.800646333333356,-1.1505430666666607,1.6516116333333253
12.31767266666669,-0.9079875333333275,1.7952300666666587
12.834699000000024,-0.6654319999999941,1.938848499999992
12.834699000000024,-0.6654319999999941,1.938848499999992
12.266608000000025,-0.5250050999999941,1.9611890999999924
11.698517000000024,-0.38457819999999404,1.9835296999999927
11.130426000000023,-0.24415129999999405,2.005870299999993
10.610208333333356,-0.5313881333333274,1.9420399333333265
10.089990666666688,-0.8186249666666607,1.8782095666666596
9.569773000000021,-1.105861799999994,1.814379199999993
9.569773000000021,-1.105861799999994,1.814379199999993
9.569773000000021,-1.105861799999994,1.814379199999993
9.716583000000023,-1.1090532999999942,1.8686350333333264
9.863393000000025,-1.1122447999999943,1.9228908666666593
10.010203000000027,-1.1154362999999943,1.9771466999999925
9.435729333333361,-1.0675634999999943,2.0633177333333257
8.861255666666695,-1.0196906999999944,2.149488766666659
8.286782000000027,-0.9718178999999946,2.235659799999992
8.286782000000025,-0.9718178999999946,2.235659799999992
7.677201666666693,-1.0484143666666612,2.302681733333325
7.067621333333359,-1.1250108333333277,2.3697036666666578
6.4580410000000255,-1.2016072999999943,2.4367255999999906
6.4580410000000255,-1.201607299999994,2.4367255999999906
6.780384566666691,-1.5526745333333274,2.385661266666657
7.102728133333358,-1.9037417666666607,2.334596933333324
7.425071700000024,-2.254808999999994,2.2835325999999907
7.425071700000024,-2.254808999999994,2.2835325999999907
7.98358746666669,-2.2484259333333276,2.3633206666666573
8.542103233333355,-2.242042866666661,2.4431087333333243
9.100619000000021,-2.2356597999999948,2.5228967999999914
9.100619000000021,-2.2356597999999948,2.5228967999999914
9.521900000000018,-2.213319199999994,2.4494917666666587
9.943181000000017,-2.190978599999994,2.3760867333333255
10.364462000000016,-2.168637999999994,2.3026816999999924
10.364462000000014,-2.168637999999994,2.3026816999999924
11.685751333333348,-2.242042933333327,2.0441685999999923
13.007040666666683,-2.315447866666661,1.7856554999999925
14.328330000000017,-2.3888527999999947,1.5271423999999925
14.328330000000017,-2.3888527999999947,1.5271423999999925
13.60704633333335,-2.395235866666661,1.552674566666659
12.885762666666684,-2.4016189333333275,1.5782067333333256
12.164479000000016,-2.408001999999994,1.6037388999999924
12.065542000000017,-2.171829499999994,1.750548833333326
11.966605000000017,-1.9356569999999944,1.8973587666666594
11.867668000000018,-1.6994844999999945,2.0441686999999926
11.867668000000018,-1.6994844999999945,2.044168699999993
11.053830333333352,-1.5558660999999947,1.8462944333333262
10.239992666666685,-1.4122476999999947,1.6484201666666596
9.426155000000017,-1.2686292999999946,1.4505458999999927
9.426155000000017,-1.2686292999999946,1.4505458999999927
8.48465643333335,-1.357991833333328,1.3292681333333263
7.543157866666685,-1.4473543666666615,1.2079903666666596
6.601659300000018,-1.536716899999995,1.0867125999999931
6.601659300000018,-1.536716899999995,1.0867125999999931
6.604850866666685,-1.4473543666666615,1.0867125999999931
6.6080424333333525,-1.357991833333328,1.0867125999999931
6.61123400000002,-1.2686292999999946,1.0867125999999931
6.61123400000002,-1.2686292999999946,1.0867125999999931
7.613371333333354,-1.2558632333333282,1.08032956666666
8.615508666666688,-1.2430971666666615,1.0739465333333265
9.61764600000002,-1.2303310999999948,1.0675634999999932
9.61764600000002,-1.2303310999999948,1.0675634999999932
10.153821333333353,-1.2941614666666617,1.115436299999993
10.689996666666685,-1.3579918333333285,1.1633090999999929
11.226172000000018,-1.4218221999999952,1.2111818999999926
11.226172000000018,-1.4218221999999952,1.2111818999999926
11.787879666666685,-1.1792666766666617,1.3037359999999927
12.349587333333353,-0.9367111533333284,1.3962900999999928
12.911295000000022,-0.694155629999995,1.4888441999999928
12.911295000000022,-0.694155629999995,1.4888441999999928
12.553844666666686,-0.8920298866666617,1.4984187666666593
12.196394333333352,-1.0899041433333283,1.507993333333326
11.838944000000017,-1.287778399999995,1.5175678999999924
11.838944000000017,-1.2877783999999948,1.5175678999999924
10.945318333333352,-1.3962900666666613,1.7377827333333258
10.051692666666687,-1.5048017333333281,1.9579975666666591
9.158067000000022,-1.613313399999995,2.1782123999999925
9.158067000000022,-1.613313399999995,2.1782123999999925
9.426154666666688,-1.198415789999995,2.4367255333333255
9.694242333333355,-0.783518179999995,2.695238666666659
9.962330000000021,-0.3686205699999951,2.953751799999992
9.158067000000019,-0.7133047466666618,2.6920471999999918
8.353804000000018,-1.0579889233333284,2.4303425999999915
7.5495410000000165,-1.402673099999995,2.1686379999999916
7.5495410000000165,-1.4026730999999952,2.168637999999992
6.911237000000017,-1.5686321333333286,2.114382099999992
6.272933000000016,-1.734591166666662,2.060126199999992
5.634629000000015,-1.9005501999999954,2.0058702999999922
5.634629000000015,-1.9005501999999954,2.0058702999999922
6.030377333333349,-2.0058703999999956,2.130339599999992
6.426125666666683,-2.1111905999999956,2.254808899999992
6.821874000000016,-2.216510799999996,2.3792781999999923
6.821874000000016,-2.216510799999996,2.3792781999999923
7.524008666666684,-2.222893799999996,2.526088133333326
8.226143333333349,-2.229276799999996,2.6728980666666593
8.928278000000015,-2.2356597999999965,2.8197079999999928
8.928278000000015,-2.2356597999999965,2.8197079999999928
9.66232733333335,-2.3218308666666627,2.727153933333326
10.396376666666683,-2.4080019333333293,2.6345998666666595
11.130426000000016,-2.494172999999996,2.542045799999993
11.130426000000016,-2.494172999999996,2.542045799999993
12.655973000000017,-2.7303454666666624,2.3728951999999928
14.181520000000019,-2.966517933333329,2.2037445999999927
15.707067000000018,-3.202690399999996,2.0345939999999927
14.114498000000019,-3.113327833333329,2.0186364333333255
12.52192900000002,-3.0239652666666625,2.0026788666666584
10.929360000000019,-2.934602699999996,1.9867212999999921
10.929360000000019,-2.934602699999997,1.9867212999999921
10.929360000000019,-2.934602699999997,1.9867212999999921
11.047446666666685,-2.7846012666666637,2.047360199999992
11.16553333333335,-2.63459983333333,2.1079990999999922
11.283620000000015,-2.4845983999999968,2.168637999999992
11.283620000000015,-2.484598399999997,2.1686379999999925
10.501697333333349,-2.2643834999999974,2.0314026333333257
9.719774666666686,-2.0441685999999977,1.8941672666666591
8.93785200000002,-1.8239536999999977,1.7569318999999926
8.937852000000023,-1.8239536999999977,1.7569318999999926
8.245292233333355,-1.795230033333331,1.6005473999999928
7.552732466666687,-1.7665063666666645,1.4441628999999931
6.86017270000002,-1.7377826999999977,1.2877783999999932
6.86017270000002,-1.7377826999999975,1.2877783999999932
6.7037881333333535,-1.626079499999997,1.2462886333333265
6.547403566666687,-1.5143762999999968,1.2047988666666598
6.39101900000002,-1.4026730999999966,1.1633090999999929
6.39101900000002,-1.4026730999999966,1.1633090999999929
7.291027666666686,-1.3516087666666632,1.1633090999999929
8.191036333333352,-1.30054443333333,1.1633090999999929
9.09104500000002,-1.2494800999999967,1.1633090999999929
9.09104500000002,-1.2494800999999967,1.1633090999999929
10.013394333333352,-1.259054666666663,1.1058617466666594
10.935743666666683,-1.2686292333333296,1.048414393333326
11.858093000000016,-1.2782037999999962,0.9909670399999927
11.858093000000016,-1.2782037999999962,0.9909670399999927
12.330438000000017,-1.0930956333333295,0.9973500599999928
12.80278300000002,-0.9079874666666626,1.0037330799999928
13.275128000000022,-0.7228792999999959,1.010116099999993
13.275128000000022,-0.7228792999999959,1.010116099999993
12.959167666666687,-0.5441541799999959,1.370757899999993
12.643207333333352,-0.3654290599999959,1.7313996999999928
12.32724700000002,-0.1867039399999959,2.0920414999999926
12.32724700000002,-0.1867039399999959,2.092041499999992
11.286811333333352,-0.5888354933333293,2.0569347666666586
10.246375666666685,-0.9909670466666626,2.0218280333333247
9.205940000000018,-1.3930985999999959,1.986721299999991
9.205940000000018,-1.3930985999999959,1.986721299999991
9.205940000000018,-1.3930985999999959,1.986721299999991
9.44211233333335,-1.4186307333333292,2.0760838666666577
9.678284666666684,-1.4441628666666624,2.1654464333333245
9.914457000000018,-1.4696949999999955,2.2548089999999905
9.18998200000002,-1.6101218999999958,2.165446433333324
8.465507000000022,-1.750548799999996,2.0760838666666572
7.741032000000023,-1.890975699999996,1.9867212999999904
7.741032000000023,-1.890975699999996,1.9867212999999904
7.19847366666669,-1.887784199999996,2.0282110666666573
6.655915333333357,-1.884592699999996,2.0697008333333238
6.113357000000023,-1.8814011999999958,2.1111905999999907
6.113357000000023,-1.8814011999999958,2.111190599999991
6.330380333333356,-2.0824669333333294,2.133531199999991
6.54740366666669,-2.283532666666663,2.1558717999999906
6.7644270000000235,-2.4845983999999963,2.1782123999999903
6.7644270000000235,-2.4845983999999963,2.1782123999999903
7.555924000000023,-2.4494916666666633,2.4335340666666574
8.347421000000024,-2.4143849333333303,2.6888557333333245
9.138918000000022,-2.379278199999997,2.9441773999999916
9.138918000000022,-2.379278199999997,2.9441773999999916
9.75807300000002,-2.5356627333333304,2.870772433333324
10.37722800000002,-2.692047266666664,2.797367466666657
10.996383000000018,-2.848431799999997,2.7239624999999896
10.996383000000018,-2.848431799999997,2.7239624999999896
12.378311000000018,-2.9633265333333303,2.631408433333323
13.760239000000018,-3.0782212666666635,2.5388543666666563
15.142167000000017,-3.1931159999999967,2.4463002999999897
13.581513666666686,-3.0877957666666638,2.3314055333333235
12.020860333333351,-2.9824755333333304,2.2165107666666564
10.460207000000016,-2.877155299999997,2.1016159999999897
10.460207000000015,-2.877155299999997,2.1016159999999893
10.524037333333348,-2.5356626999999974,1.951614566666656
10.58786766666668,-2.1941700999999973,1.8016131333333227
10.651698000000014,-1.8526774999999975,1.6516116999999895
10.651698000000014,-1.8526774999999975,1.6516116999999895
9.885733333333347,-1.418630733333331,1.565440666666656
9.119768666666682,-0.9845839666666643,1.4792696333333228
8.353804000000014,-0.5505371999999976,1.3930985999999894
8.353804000000014,-0.5505371999999976,1.3930985999999894
8.353804000000014,-0.5505371999999976,1.3930985999999894
7.7091168666666805,-0.7675605666666643,1.150543066666656
7.0644297333333474,-0.9845839333333309,0.9079875333333227
6.4197426000000135,-1.2016072999999976,0.6654319999999894
6.793150600000014,-1.1026701799999976,0.662240466666656
7.166558600000013,-1.0037330599999974,0.6590489333333226
7.539966600000014,-0.9047959399999974,0.6558573999999893
7.539966600000014,-0.9047959399999974,0.6558573999999893
8.475081733333347,-0.9430941599999975,0.7069217333333225
9.41019686666668,-0.9813923799999974,0.7579860666666559
10.345312000000014,-1.0196905999999974,0.8090503999999892
10.345312000000014,-1.0196905999999977,0.8090503999999892
10.345312000000014,-1.0196905999999977,0.8090503999999892
10.891062000000014,-1.176075133333331,0.9303281333333225
11.436812000000016,-1.3324596666666644,1.051605866666656
11.982562000000016,-1.488844199999998,1.1728835999999894
12.461290000000014,-1.2973529799999979,1.2494800999999893
12.940018000000014,-1.105861759999998,1.3260765999999893
13.418746000000013,-0.9143705399999981,1.4026730999999895
13.418746000000013,-0.9143705399999981,1.4026730999999895
12.362353000000013,-1.0196907266666646,1.4473543666666562
11.305960000000013,-1.1250109133333313,1.4920356333333231
10.249567000000013,-1.230331099999998,1.53671689999999
10.249567000000013,-1.230331099999998,1.53671689999999
10.249567000000013,-1.230331099999998,1.53671689999999
10.048501333333347,-1.1728836999999979,1.6931013666666566
9.847435666666678,-1.1154362999999978,1.849485833333323
9.646370000000012,-1.0579888999999978,2.0058702999999896
9.582539666666678,-1.0643719666666644,2.047360066666656
9.518709333333346,-1.070755033333331,2.0888498333333234
9.454879000000012,-1.077138099999998,2.1303395999999903
9.454879000000012,-1.077138099999998,2.130339599999991
8.829340900000012,-1.1186278333333313,2.072892266666657
8.203802800000012,-1.1601175666666645,2.0154449333333235
7.5782647000000125,-1.201607299999998,1.9579975999999901
7.5782647000000125,-1.201607299999998,1.9579975999999901
7.294219333333345,-1.3005444333333314,1.9771467333333235
7.010173966666677,-1.3994815666666647,1.9962958666666566
6.72612860000001,-1.4984186999999982,2.0154449999999895
6.72612860000001,-1.4984186999999982,2.0154449999999895
6.917619866666677,-1.651611666666665,2.0856583999999896
7.109111133333346,-1.8048046333333316,2.1558717999999897
7.300602400000013,-1.9579975999999986,2.2260851999999898
7.300602400000013,-1.9579975999999986,2.2260851999999898
8.136780600000012,-2.076083833333332,2.2771495333333234
8.97295880000001,-2.194170066666665,2.3282138666666565
9.809137000000009,-2.312256299999998,2.3792781999999897
9.809137000000009,-2.312256299999998,2.3792781999999897
10.71552900000001,-2.2867241333333315,2.3026817999999896
11.621921000000013,-2.261191966666665,2.22608539999999
12.528313000000013,-2.2356597999999988,2.14948899999999
12.528313000000017,-2.2356597999999988,2.1494889999999907
13.211298333333351,-2.4973645333333323,2.2101277999999906
13.894283666666686,-2.7590692666666654,2.2707665999999906
14.57726900000002,-3.020773999999998,2.331405399999991
14.57726900000002,-3.020773999999998,2.331405399999991
13.329384333333353,-2.8037505999999985,2.248425866666658
12.081499666666687,-2.586727199999998,2.165446333333325
10.833615000000021,-2.3697037999999977,2.082466799999992
10.833615000000021,-2.3697037999999977,2.082466799999992
10.677230666666686,-1.9133163999999976,1.9579975333333255
10.52084633333335,-1.4569289999999977,1.8335282666666586
10.364462000000016,-1.0005415999999978,1.7090589999999917
10.364462000000014,-1.0005415999999976,1.7090589999999917
9.180407900000015,-1.0196906999999975,1.4888440999999917
7.996353800000015,-1.0388397999999974,1.2686291999999917
6.812299700000015,-1.0579888999999973,1.048414299999992
6.53463746666668,-1.131393866666664,0.9175619999999919
6.256975233333346,-1.2047988333333308,0.786709699999992
5.979313000000012,-1.2782037999999976,0.655857399999992
5.979313000000012,-1.2782037999999976,0.655857399999992
5.979313000000012,-1.2782037999999976,0.655857399999992
6.968684333333347,-1.0516058666666643,0.7930927666666588
7.9580556666666835,-0.825007933333331,0.9303281333333255
8.947427000000019,-0.5984099999999977,1.0675634999999921
8.947427000000019,-0.5984099999999977,1.0675634999999921
9.611263000000017,-0.713304733333331,1.0228822199999918
10.275099000000017,-0.8281994666666644,0.9782009399999918
10.938935000000015,-0.9430941999999978,0.9335196599999916
10.938935000000015,-0.9430941999999978,0.9335196599999916
11.430429333333349,-1.1186277999999978,0.9909670399999917
11.92192366666668,-1.2941613999999977,1.0484144199999916
12.413418000000014,-1.4696949999999978,1.1058617999999918
12.413418000000014,-1.4696949999999978,1.1058617999999918
12.876188333333348,-1.2654377199999978,1.3484172999999917
13.338958666666683,-1.0611804399999978,1.5909727999999916
13.801729000000016,-0.8569231599999979,1.8335282999999916
13.801729000000016,-0.8569231599999979,1.8335282999999916
12.320863666666682,-1.0867126066666648,1.8750180666666585
10.839998333333348,-1.3165020533333314,1.9165078333333252
9.359133000000014,-1.546291499999998,1.957997599999992
9.359133000000014,-1.5462914999999977,1.957997599999992
9.700625666666681,-1.2558631666666644,2.123956633333325
10.042118333333349,-0.9654348333333309,2.2899156666666585
10.383611000000016,-0.6750064999999975,2.455874699999992
10.383611000000016,-0.6750064999999975,2.455874699999992
9.818711666666681,-0.7484114666666642,2.2994902333333247
9.253812333333348,-0.821816433333331,2.1431057666666575
8.688913000000014,-0.8952213999999977,1.9867212999999904
8.688913000000014,-0.8952213999999977,1.9867212999999904
7.830394333333348,-0.7643690833333311,1.9835297666666571
6.971875666666681,-0.6335167666666645,1.9803382333333237
6.113357000000015,-0.5026644499999978,1.97714669999999
5.988887666666681,-0.7899012666666644,1.8686350333333237
5.864418333333347,-1.077138083333331,1.760123366666657
5.7399490000000135,-1.3643748999999976,1.6516116999999901
5.7399490000000135,-1.3643748999999978,1.6516116999999901
6.58570166666668,-1.514376333333331,1.78565549999999
7.431454333333348,-1.6643777666666644,1.91969929999999
8.277207000000015,-1.8143791999999976,2.05374309999999
8.277207000000015,-1.8143791999999976,2.05374309999999
8.966575333333349,-2.1175736333333304,2.1303395999999903
9.655943666666683,-2.4207680666666636,2.20693609999999
10.345312000000018,-2.723962499999997,2.28353259999999
10.34531200000002,-2.7239624999999976,2.2835325999999894
11.740006333333353,-2.7367285666666645,2.385661266666656
13.134700666666687,-2.749494633333331,2.4877899333333224
14.52939500000002,-2.7622606999999975,2.589918599999989
14.52939500000002,-2.7622606999999975,2.5899185999999887
14.095348333333353,-2.5994931999999973,2.663323566666655
13.661301666666686,-2.436725699999997,2.7367285333333213
13.227255000000019,-2.2739581999999974,2.810133499999987
13.227255000000019,-2.273958199999998,2.810133499999987
12.359161333333352,-2.254809066666664,2.439917166666654
11.491067666666686,-2.2356599333333302,2.0697008333333207
10.622974000000019,-2.216510799999997,1.6994844999999872
10.622974000000019,-2.2165107999999965,1.699484499999987
10.42190833333335,-2.050551766666663,1.492035699999987
10.220842666666684,-1.8845927333333297,1.284586899999987
10.019777000000017,-1.7186336999999963,1.077138099999987
9.11019383333335,-1.7537403666666629,0.9909670333333205
8.200610666666684,-1.7888470333333295,0.9047959666666537
7.291027500000017,-1.8239536999999961,0.8186248999999869
7.291027500000017,-1.8239536999999961,0.8186248999999869
7.291027500000017,-1.8239536999999961,0.8186248999999869
7.048472000000018,-1.6994844333333294,0.7675605999999869
6.805916500000019,-1.575015166666663,0.7164962999999869
6.563361000000019,-1.4505458999999963,0.6654319999999868
6.563361000000019,-1.4505458999999963,0.6654319999999868
7.329326000000019,-1.4313967999999964,0.5888354999999869
8.095291000000017,-1.4122476999999964,0.5122389999999869
8.861256000000017,-1.3930985999999965,0.4356424999999869
9.857010000000017,-1.472886566666663,0.37500361999998694
10.852764000000017,-1.5526745333333298,0.314364739999987
11.848518000000018,-1.6324624999999964,0.25372585999998704
11.848518000000018,-1.6324624999999964,0.25372585999998704
11.848518000000018,-1.6324624999999964,0.25372585999998704
12.024051666666685,-1.654803166666663,0.429259459999987
12.199585333333351,-1.6771438333333295,0.6047930599999869
12.375119000000018,-1.699484499999996,0.7803266599999868
11.918732000000018,-1.606930399999996,0.9973500399999868
11.462345000000019,-1.5143762999999961,1.214373419999987
11.00595800000002,-1.4218221999999965,1.4313967999999868
11.00595800000002,-1.4218221999999965,1.4313967999999868
10.405952000000019,-1.5686321333333295,1.5877812666666535
9.805946000000018,-1.7154420666666628,1.74416573333332
9.205940000000018,-1.862251999999996,1.9005501999999865
9.205940000000018,-1.862251999999996,1.9005501999999865
9.205940000000018,-1.862251999999996,1.9005501999999865
9.33040933333335,-1.8016131333333292,2.0058703999999867
9.454878666666682,-1.7409742666666626,2.1111905999999867
9.579348000000016,-1.680335399999996,2.216510799999987
9.103811666666681,-1.5558660666666626,2.2197022666666535
8.628275333333347,-1.4313967333333295,2.2228937333333203
8.152739000000015,-1.3069273999999964,2.226085199999987
8.152739000000015,-1.3069273999999964,2.226085199999987
7.555924533333347,-1.533525366666663,2.11119053333332
6.959110066666681,-1.7601233333333297,1.996295866666653
6.362295600000014,-1.9867212999999964,1.881401199999986
6.362295600000014,-1.9867212999999964,1.881401199999986
6.59208506666668,-2.1143821333333297,1.9069333333333196
6.821874533333347,-2.2420429666666624,1.9324654666666532
7.051664000000013,-2.3697037999999955,1.9579975999999866
7.051664000000013,-2.369703799999995,1.9579975999999866
7.575073333333346,-2.3218309333333287,2.1335311999999864
8.09848266666668,-2.273958066666662,2.309064799999986
8.621892000000013,-2.226085199999995,2.4845983999999857
