accx,accy,accz
0.26330042,2.1207652,6.831449
0.26330042,2.1207652,6.831449
0.26330042,2.1207652,6.831449
0.26330042,2.1207652,6.831449
0.07819224666666665,2.0122534666666665,6.6271916666666675
-0.10691592666666667,1.903741733333333,6.422934333333334
-0.2920241,1.7952299999999999,6.2186770000000005
-0.2920241,1.7952299999999999,6.2186770000000005
-0.7388369,1.348417213333333,5.443137600000001
-1.1856497000000001,0.9016044266666663,4.667598200000001
-1.6324625,0.45479163999999955,3.8920588000000023
-1.6324625,0.45479163999999955,3.8920588000000023
-3.225031,-0.2537258400000005,3.0877957333333357
-4.8175995,-0.9622433200000003,2.283532666666669
-6.410168,-1.6707608000000003,1.4792696000000023
-6.410168,-1.6707608000000003,1.4792696000000023
-9.949564333333333,-3.5665238666666674,1.4345883000000024
-13.488960666666665,-5.462286933333335,1.3899070000000024
-17.028357,-7.358050000000002,1.3452257000000023
-17.028357,-7.358050000000003,1.3452257000000023
-17.653894666666663,-6.177187466666671,0.7739436100000022
-18.27943233333333,-4.996324933333338,0.20266152000000223
-18.90496999999999,-3.8154624000000044,-0.3686205699999978
-18.904969999999988,-3.8154624000000044,-0.3686205699999978
-16.865588333333324,-4.629299933333337,-0.3845781799999978
-14.826206666666657,-5.44313746666667,-0.4005357899999978
-12.786824999999991,-6.256975000000003,-0.4164933999999978
-12.786824999999991,-6.256975000000003,-0.4164933999999978
-12.888953666666659,-5.90909946666667,-1.3228850999999977
-12.991082333333326,-5.561223933333337,-2.2292767999999974
-13.093210999999995,-5.213348400000004,-3.1356684999999973
-13.093210999999997,-5.213348400000004,-3.1356684999999973
-13.029380666666663,-5.005899433333337,-2.7143878333333302
-12.965550333333331,-4.79845046666667,-2.2931071666666636
-12.901719999999997,-4.5910015000000035,-1.8718264999999967
-12.901719999999997,-4.5910015000000035,-1.8718264999999967
-11.127234899999998,-4.20801916666667,-1.29096985333333
-9.352749799999998,-3.825036833333337,-0.7101132066666634
-7.578264699999998,-3.4420545000000033,-0.12925655999999672
-7.578264699999998,-3.4420545000000033,-0.12925655999999672
-6.767618466666666,-3.4580121000000035,-0.13563960333333006
-5.956972233333334,-3.4739697000000036,-0.14202264666666342
-5.146326000000001,-3.4899273000000037,-0.1484056899999968
-5.146326000000001,-3.4899273000000037,-0.1484056899999968
-5.510159433333335,-3.298436100000004,-0.22181064999999675
-5.8739928666666685,-3.1069449000000042,-0.2952156099999967
-6.237826300000002,-2.9154537000000045,-0.3686205699999967
-6.237826300000002,-2.9154537000000045,-0.3686205699999967
-7.150601033333335,-2.752686133333338,-0.25053432699999667
-8.063375766666669,-2.5899185666666713,-0.1324480839999967
-8.976150500000003,-2.4271510000000043,-0.014361840999996692
-8.976150500000003,-2.4271510000000043,-0.014361840999996692
-9.308068666666669,-2.481406866666671,0.18351240600000332
-9.639986833333333,-2.535662733333338,0.38138665300000335
-9.971905,-2.5899186000000047,0.5792609000000034
-9.971905,-2.5899186000000047,0.5792609000000034
-9.911266166666666,-2.427151066666671,0.07500071333333669
-9.850627333333334,-2.2643835333333375,-0.42925947333333
-9.7899885,-2.101616000000004,-0.9335196599999965
-9.7899885,-2.101616000000004,-0.9335196599999965
-10.437866833333333,-2.2165107666666706,-1.4186307066666632
-11.085745166666667,-2.331405533333337,-1.90374175333333
-11.7336235,-2.4463003000000043,-2.388852799999997
-11.7336235,-2.4463003000000048,-2.388852799999997
-11.826177666666666,-2.309064866666671,-2.315447866666663
-11.918731833333332,-2.1718294333333374,-2.24204293333333
-12.011285999999998,-2.0345940000000042,-2.168637999999996
-12.011285999999998,-2.034594000000004,-2.168637999999996
-11.749581333333332,-2.717579333333337,-1.1058617999999962
-11.487876666666665,-3.400564666666671,-0.043085599999996095
-11.226171999999998,-4.083550000000004,1.0196906000000039
-10.683613333333334,-4.217593833333338,1.3675663333333372
-10.141054666666669,-4.351637666666672,1.7154420666666708
-9.598496000000004,-4.485681500000006,2.063317800000004
-9.598496000000006,-4.485681500000007,2.063317800000004
-9.598496000000006,-4.485681500000007,2.063317800000004
-9.317642666666673,-5.03781443333334,2.0856584000000047
-9.03678933333334,-5.5899473666666735,2.1079990000000044
-8.755936000000007,-6.142080300000006,2.130339600000004
-8.755936000000007,-6.142080300000006,2.1303396000000037
-8.519763333333342,-5.909099400000006,3.292052900000004
-8.283590666666676,-5.676118500000006,4.453766200000004
-8.04741800000001,-5.443137600000006,5.615479500000004
-8.04741800000001,-5.443137600000006,5.615479500000004
-7.08357900000001,-4.916536766666673,5.711225200000004
-6.11974000000001,-4.38993593333334,5.806970900000003
-5.15590100000001,-3.8633351000000062,5.902716600000002
-5.15590100000001,-3.8633351000000062,5.902716600000002
-4.517596900000009,-2.4494916866666725,5.755906733333336
-3.879292800000009,-1.0356482733333394,5.609096866666668
-3.2409887000000093,0.37819513999999393,5.462287000000001
-3.2409887000000093,0.37819513999999393,5.462287000000001
-2.8771554666666757,0.2569173736666606,5.695267866666668
-2.5133222333333425,0.13563960733332728,5.9282487333333345
-2.1494890000000093,0.014361840999993955,6.161229600000002
-2.1494890000000093,0.014361840999993955,6.161229600000003
-2.1750210666666763,0.12606504399999396,6.113356733333338
-2.2005531333333432,0.23776824699999397,6.065483866666672
-2.22608520000001,0.349471449999994,6.017611000000007
-2.2260852000000106,0.349471449999994,6.017611000000007
-2.5835355333333445,-0.004787286666672645,6.330380100000006
-2.940985866666678,-0.3590460233333393,6.643149200000006
-3.298436200000012,-0.713304760000006,6.955918300000005
-3.298436200000012,-0.713304760000006,6.955918300000005
-3.4452461000000114,-0.349471460000006,6.987833533333338
-3.5920560000000115,0.014361839999993964,7.0197487666666705
-3.738865900000011,0.37819513999999393,7.051664000000003
-3.738865900000011,0.37819513999999393,7.051664000000003
-3.4612036000000113,0.5313881066666606,6.7261288333333376
-3.183541300000011,0.6845810733333272,6.400593666666672
-2.905879000000011,0.837774039999994,6.075058500000005
-2.905879000000011,0.837774039999994,6.075058500000005
-3.3239682333333445,0.269683459999994,5.545266166666672
-3.7420574666666777,-0.29840712000000597,5.015473833333339
-4.160146700000011,-0.8664977000000059,4.485681500000006
-4.160146700000011,-0.8664977000000059,4.485681500000007
-5.187816133333344,-1.8558689333333394,4.0707839000000074
-6.215485566666679,-2.8452401666666725,3.6558863000000077
-7.243155000000013,-3.8346114000000058,3.240988700000008
-7.243155000000013,-3.8346114000000058,3.240988700000008
-8.730403333333348,-4.233551500000007,2.822899566666674
-10.217651666666681,-4.632491600000008,2.40481043333334
-11.704900000000015,-5.031431700000009,1.9867213000000064
-11.704900000000015,-5.031431700000009,1.9867213000000064
-12.091074000000013,-5.050580800000007,1.5909728000000063
-12.477248000000012,-5.069729900000007,1.195224300000006
-12.863422000000012,-5.088879000000007,0.799475800000006
-12.863422000000012,-5.0888790000000075,0.799475800000006
-12.336821333333345,-5.021857000000007,0.30159865666667257
-11.810220666666678,-4.954835000000007,-0.19627848666666078
-11.283620000000012,-4.887813000000007,-0.6941556299999941
-11.283620000000012,-4.887813000000006,-0.6941556299999941
-10.824040666666678,-4.728237100000006,-0.9143705199999941
-10.364461333333345,-4.5686612000000055,-1.1345854099999941
-9.904882000000013,-4.409085300000005,-1.354800299999994
-9.904882000000013,-4.409085300000006,-1.354800299999994
-9.751689333333346,-4.13780603333334,-1.3133105666666607
-9.598496666666678,-3.866526766666674,-1.2718208333333274
-9.445304000000013,-3.595247500000008,-1.230331099999994
-9.445304000000013,-3.5952475000000086,-1.230331099999994
-9.505942666666678,-3.4931188333333423,-1.2941614666666608
-9.566581333333346,-3.3909901666666755,-1.3579918333333276
-9.627220000000014,-3.2888615000000088,-1.4218221999999943
-9.627220000000014,-3.2888615000000088,-1.4218221999999943
-9.486793333333345,-3.2058820000000092,-1.3069274999999942
-9.346366666666677,-3.1229025000000092,-1.1920327999999942
-9.20594000000001,-3.0399230000000093,-1.077138099999994
-9.177216333333343,-2.7782183333333426,-0.9973500799999941
-9.148492666666677,-2.516513666666676,-0.9175620599999942
-9.11976900000001,-2.254809000000009,-0.8377740399999943
-9.11976900000001,-2.254809000000009,-0.8377740399999943
-9.11976900000001,-2.254809000000009,-0.8377740399999943
-9.215514333333344,-2.4782154333333426,-1.010116126666661
-9.311259666666677,-2.7016218666666756,-1.1824582133333275
-9.40700500000001,-2.9250283000000086,-1.354800299999994
-9.339983333333343,-2.838857200000009,-1.4154391666666608
-9.272961666666676,-2.752686100000009,-1.4760780333333274
-9.20594000000001,-2.666515000000009,-1.536716899999994
-9.20594000000001,-2.666515000000009,-1.536716899999994
-9.202748333333345,-2.6760896000000085,-1.5175677999999941
-9.199556666666679,-2.6856642000000086,-1.4984186999999942
-9.196365000000013,-2.6952388000000087,-1.4792695999999943
-9.196365000000013,-2.6952388000000087,-1.4792695999999943
-9.196365000000013,-2.6952388000000087,-1.4792695999999943
-9.18679066666668,-2.6824727000000084,-1.4824611333333275
-9.177216333333346,-2.669706600000008,-1.4856526666666607
-9.167642000000013,-2.6569405000000077,-1.488844199999994
-9.164450333333347,-2.650557466666674,-1.4601204999999942
-9.161258666666681,-2.644174433333341,-1.4313967999999944
-9.158067000000015,-2.6377914000000073,-1.4026730999999943
-9.158067000000015,-2.637791400000008,-1.4026730999999948
-9.126152000000014,-2.5739610333333407,-1.373949433333328
-9.094237000000014,-2.510130666666674,-1.3452257666666612
-9.062322000000014,-2.4463003000000074,-1.3165020999999946
-9.062322000000014,-2.446300300000007,-1.3165020999999946
-9.049555666666679,-2.372895266666674,-1.2654377666666612
-9.036789333333346,-2.299490233333341,-1.2143734333333278
-9.024023000000012,-2.226085200000008,-1.1633090999999947
-9.024023000000012,-2.2260852000000084,-1.1633090999999947
-8.957001000000012,-2.318639300000008,-1.172883666666661
-8.889979000000013,-2.4111934000000077,-1.182458233333328
-8.822957000000015,-2.503747500000008,-1.1920327999999947
-8.822957000000015,-2.503747500000008,-1.192032799999995
-8.806999500000012,-2.4973644666666743,-1.1696921333333283
-8.791042000000012,-2.490981433333341,-1.1473514666666618
-8.77508450000001,-2.484598400000008,-1.1250107999999952
-8.77508450000001,-2.484598400000008,-1.1250107999999954
-8.867638666666677,-2.490981433333341,-1.1282023333333286
-8.960192833333345,-2.4973644666666743,-1.1313938666666619
-9.052747000000013,-2.503747500000008,-1.134585399999995
-9.052747000000014,-2.503747500000008,-1.134585399999995
-9.049555333333348,-2.5835355333333414,-1.1282023666666616
-9.046363666666682,-2.663323566666675,-1.1218193333333284
-9.043172000000016,-2.743111600000009,-1.1154362999999952
-9.043172000000018,-2.743111600000009,-1.1154362999999952
-9.097428000000017,-2.7399200666666754,-1.1026702333333285
-9.151684000000017,-2.7367285333333418,-1.0899041666666618
-9.205940000000018,-2.7335370000000085,-1.0771380999999953
-9.205940000000018,-2.7335370000000085,-1.0771380999999953
-9.170833000000018,-2.781409766666675,-1.1409684999999952
-9.13572600000002,-2.8292825333333416,-1.204798899999995
-9.100619000000021,-2.8771553000000085,-1.268629299999995
-9.100619000000021,-2.8771553000000085,-1.268629299999995
-9.103810666666687,-2.8931129666666746,-1.3037359999999951
-9.107002333333353,-2.909070633333341,-1.3388426999999952
-9.11019400000002,-2.9250283000000077,-1.3739493999999952
-9.129343333333352,-2.9090706333333407,-1.3930985333333286
-9.148492666666685,-2.893112966666674,-1.412247666666662
-9.16764200000002,-2.8771553000000076,-1.4313967999999953
-9.16764200000002,-2.8771553000000076,-1.4313967999999953
-9.177216333333353,-2.8611977000000075,-1.4505459333333286
-9.186790666666687,-2.8452401000000074,-1.469695066666662
-9.19636500000002,-2.8292825000000072,-1.4888441999999953
-9.19636500000002,-2.8292825000000072,-1.4888441999999953
-9.148492333333351,-2.8165164666666738,-1.4441628999999951
-9.100619666666683,-2.803750433333341,-1.3994815999999952
-9.052747000000016,-2.790984400000008,-1.3548002999999953
-9.052747000000014,-2.7909844000000086,-1.3548002999999953
-9.043172333333349,-2.7622606666666756,-1.3899069999999953
-9.033597666666683,-2.7335369333333426,-1.4250136999999954
-9.024023000000017,-2.7048132000000096,-1.4601203999999954
-9.02402300000002,-2.7048132000000096,-1.4601203999999954
-9.059129666666685,-2.7080048000000096,-1.450545866666662
-9.09423633333335,-2.7111964000000093,-1.4409713333333285
-9.129343000000018,-2.714388000000009,-1.4313967999999953
-9.129343000000018,-2.714388000000009,-1.4313967999999953
-9.122960000000019,-2.698430333333343,-1.4441628666666617
-9.116577000000019,-2.6824726666666763,-1.4569289333333284
-9.11019400000002,-2.6665150000000097,-1.469694999999995
-9.11019400000002,-2.6665150000000097,-1.469694999999995
-9.11019400000002,-2.656940466666676,-1.469694999999995
-9.11019400000002,-2.6473659333333424,-1.469694999999995
-9.11019400000002,-2.6377914000000087,-1.469694999999995
-9.11019400000002,-2.6377914000000087,-1.469694999999995
-9.10381100000002,-2.6218338000000094,-1.4569289333333284
-9.09742800000002,-2.6058762000000097,-1.4441628666666617
-9.09104500000002,-2.58991860000001,-1.4313967999999953
-9.09104500000002,-2.58991860000001,-1.4313967999999953
-9.071896000000018,-2.5803440666666764,-1.4313967999999953
-9.052747000000018,-2.5707695333333427,-1.4313967999999953
-9.033598000000017,-2.561195000000009,-1.4313967999999953
-9.033598000000017,-2.561195000000009,-1.4313967999999953
-9.03678933333335,-2.5580034000000094,-1.4250137666666618
-9.039980666666684,-2.5548118000000097,-1.4186307333333286
-9.043172000000018,-2.5516202000000097,-1.4122476999999953
-9.043172000000018,-2.5516202000000097,-1.4122476999999953
-9.046363666666684,-2.56757790000001,-1.4090561666666617
-9.04955533333335,-2.58353560000001,-1.4058646333333282
-9.052747000000016,-2.59949330000001,-1.4026730999999948
-9.052747000000014,-2.5994933000000104,-1.4026730999999948
-9.036789333333349,-2.596301733333344,-1.3803324666666612
-9.020831666666684,-2.593110166666677,-1.3579918333333278
-9.004874000000019,-2.5899186000000105,-1.3356511999999945
-9.043172333333352,-2.60587620000001,-1.3548003333333278
-9.081470666666684,-2.62183380000001,-1.3739494666666612
-9.119769000000018,-2.6377914000000096,-1.3930985999999945
-9.119769000000018,-2.6377914000000096,-1.3930985999999945
-9.103811333333352,-2.6473659333333432,-1.3867155333333276
-9.087853666666687,-2.656940466666677,-1.380332466666661
-9.071896000000022,-2.6665150000000106,-1.3739493999999943
-9.071896000000022,-2.6665150000000106,-1.3739493999999943
-9.071896000000022,-2.66013200000001,-1.3835239666666608
-9.071896000000022,-2.65374900000001,-1.3930985333333277
-9.071896000000022,-2.64736600000001,-1.4026730999999943
-9.071896000000022,-2.64736600000001,-1.4026730999999948
-9.084662000000021,-2.6505575000000103,-1.3962900666666613
-9.09742800000002,-2.65374900000001,-1.389907033333328
-9.11019400000002,-2.65694050000001,-1.3835239999999949
-9.11019400000002,-2.6569405000000095,-1.3835239999999949
-9.116577000000019,-2.6505574666666765,-1.3962900666666613
-9.122960000000019,-2.644174433333343,-1.409056133333328
-9.129343000000018,-2.6377914000000096,-1.4218221999999947
-9.129343000000018,-2.63779140000001,-1.4218221999999947
-9.126151666666685,-2.6473659333333437,-1.4058645999999946
-9.122960333333351,-2.6569404666666774,-1.3899069999999945
-9.119769000000018,-2.666515000000011,-1.3739493999999943
-9.119769000000018,-2.666515000000011,-1.3739493999999943
-9.119769000000018,-2.6569404666666774,-1.3739493999999943
-9.119769000000018,-2.6473659333333437,-1.3739493999999943
-9.119769000000018,-2.63779140000001,-1.3739493999999943
-9.107002833333352,-2.634599833333344,-1.3579917999999944
-9.094236666666687,-2.631408266666678,-1.3420341999999945
-9.081470500000021,-2.628216700000012,-1.3260765999999948
-9.081470500000021,-2.6282167000000123,-1.3260765999999948
-9.081470500000021,-2.6282167000000123,-1.3260765999999948
-9.075087666666688,-2.621833700000012,-1.3069274999999945
-9.068704833333355,-2.615450700000012,-1.2877783999999943
-9.062322000000021,-2.6090677000000118,-1.2686292999999942
-9.071896333333354,-2.602684666666678,-1.2877783999999943
-9.081470666666688,-2.596301633333345,-1.3069274999999945
-9.09104500000002,-2.5899186000000114,-1.3260765999999948
-9.09104500000002,-2.5899186000000114,-1.3260765999999948
-9.09104500000002,-2.5899186000000114,-1.3388426999999947
-9.09104500000002,-2.5899186000000114,-1.3516087999999946
-9.09104500000002,-2.5899186000000114,-1.3643748999999943
-9.09104500000002,-2.5899186000000114,-1.3643748999999943
-9.075087333333352,-2.5803440666666777,-1.3579918333333278
-9.059129666666685,-2.570769533333344,-1.3516087666666614
-9.043172000000018,-2.5611950000000103,-1.345225699999995
-9.043172000000018,-2.5611950000000103,-1.345225699999995
-9.081470333333352,-2.5580034000000107,-1.3388426666666617
-9.119768666666687,-2.5548118000000106,-1.3324596333333283
-9.158067000000022,-2.551620200000011,-1.326076599999995
-9.158067000000022,-2.551620200000011,-1.326076599999995
-9.119768666666687,-2.535662633333344,-1.3133105333333284
-9.081470333333352,-2.519705066666677,-1.300544466666662
-9.043172000000018,-2.50374750000001,-1.2877783999999952
-9.043172000000018,-2.50374750000001,-1.2877783999999954
-9.046363666666684,-2.50374750000001,-1.2782038333333285
-9.04955533333335,-2.50374750000001,-1.2686292666666616
-9.052747000000016,-2.50374750000001,-1.259054699999995
-9.052747000000014,-2.50374750000001,-1.2590546999999948
-9.09104533333335,-2.5133220666666767,-1.294161433333328
-9.129343666666683,-2.522896633333344,-1.329268166666661
-9.167642000000018,-2.5324712000000105,-1.3643748999999943
-9.11976900000002,-2.5324712000000105,-1.3228851333333276
-9.071896000000018,-2.5324712000000105,-1.2813953666666609
-9.02402300000002,-2.5324712000000105,-1.2399055999999942
-9.02402300000002,-2.5324712000000105,-1.239905599999994
-9.043172166666686,-2.526088133333344,-1.2526716666666606
-9.062321333333353,-2.5197050666666776,-1.265437733333327
-9.081470500000021,-2.513322000000011,-1.2782037999999938
-9.081470500000021,-2.513322000000011,-1.2782037999999938
-9.122960333333353,-2.5356626666666777,-1.2973529333333271
-9.164450166666684,-2.5580033333333443,-1.3165020666666605
-9.205940000000018,-2.580344000000011,-1.3356511999999938
-9.205940000000018,-2.580344000000011,-1.3356511999999938
-9.193174000000019,-2.561194933333344,-1.319693599999994
-9.18040800000002,-2.5420458666666774,-1.3037359999999938
-9.16764200000002,-2.5228968000000105,-1.2877783999999937
-9.16764200000002,-2.5228968000000105,-1.2877783999999937
-9.16764200000002,-2.5228968000000105,-1.2877783999999937
-9.151684333333352,-2.5292798000000105,-1.2973529666666601
-9.135726666666685,-2.535662800000011,-1.3069275333333266
-9.119769000000018,-2.542045800000011,-1.3165020999999932
-9.148492666666684,-2.5197052000000113,-1.300544499999993
-9.17721633333335,-2.4973646000000116,-1.284586899999993
-9.205940000000018,-2.475024000000012,-1.2686292999999929
-9.205940000000018,-2.4750240000000123,-1.2686292999999929
-9.183599333333353,-2.4718324333333457,-1.2782038333333263
-9.161258666666688,-2.468640866666679,-1.2877783666666598
-9.138918000000023,-2.4654493000000124,-1.297352899999993
-9.138918000000023,-2.4654493000000124,-1.297352899999993
-9.132535000000024,-2.4463002000000125,-1.2845868333333266
-9.126152000000024,-2.4271511000000126,-1.2718207666666599
-9.119769000000025,-2.4080020000000126,-1.2590546999999932
-9.119769000000026,-2.4080020000000126,-1.2590546999999932
-9.154875666666696,-2.4111935333333463,-1.2941614333333267
-9.189982333333363,-2.41438506666668,-1.32926816666666
-9.225089000000033,-2.417576600000013,-1.3643748999999932
-9.225089000000034,-2.417576600000013,-1.3643748999999932
-9.170833333333366,-2.417576600000013,-1.3292681666666597
-9.116577666666698,-2.417576600000013,-1.2941614333333267
-9.062322000000032,-2.417576600000013,-1.2590546999999934
-9.09423700000003,-2.4271511666666803,-1.297352933333327
-9.126152000000031,-2.436725733333347,-1.3356511666666602
-9.158067000000031,-2.4463003000000136,-1.3739493999999934
-9.158067000000031,-2.446300300000014,-1.3739493999999934
-9.151684000000031,-2.4622578666666803,-1.3771409333333269
-9.145301000000032,-2.478215433333347,-1.3803324666666603
-9.138918000000032,-2.4941730000000133,-1.383523999999994
-9.138918000000034,-2.494173000000013,-1.3835239999999942
-9.122960333333365,-2.503747600000013,-1.3867155333333276
-9.107002666666698,-2.513322200000013,-1.3899070666666613
-9.091045000000031,-2.5228968000000127,-1.3930985999999947
-9.09104500000003,-2.5228968000000127,-1.3930985999999947
-9.103811000000029,-2.5324712666666795,-1.3930985999999947
-9.116577000000028,-2.5420457333333464,-1.3930985999999947
-9.129343000000027,-2.551620200000013,-1.3930985999999947
-9.129343000000027,-2.551620200000013,-1.3930985999999947
-9.126151666666694,-2.5548118000000133,-1.386715533333328
-9.12296033333336,-2.558003400000013,-1.3803324666666612
-9.119769000000026,-2.5611950000000125,-1.3739493999999945
-9.119769000000026,-2.5611950000000125,-1.3739493999999945
-9.113385666666694,-2.558003400000013,-1.364374833333328
-9.107002333333362,-2.5548118000000133,-1.3548002666666614
-9.10061900000003,-2.551620200000013,-1.345225699999995
-9.10061900000003,-2.551620200000013,-1.345225699999995
-9.116577000000028,-2.5548118000000133,-1.3516087666666614
-9.132535000000026,-2.558003400000013,-1.3579918333333278
-9.148493000000023,-2.5611950000000125,-1.3643748999999943
-9.148493000000022,-2.5611950000000125,-1.3643748999999943
-9.138918333333356,-2.5452373333333465,-1.3548003333333274
-9.12934366666669,-2.52927966666668,-1.3452257666666607
-9.119769000000025,-2.5133220000000134,-1.3356511999999938
-9.129343666666692,-2.5069390000000134,-1.3292681666666606
-9.138918333333358,-2.5005560000000133,-1.3228851333333271
-9.148493000000023,-2.494173000000013,-1.316502099999994
-9.148493000000022,-2.494173000000013,-1.316502099999994
-9.132535000000022,-2.4782154333333466,-1.3069275333333275
-9.116577000000023,-2.4622578666666803,-1.2973529666666606
-9.100619000000021,-2.4463003000000136,-1.2877783999999937
-9.100619000000021,-2.446300300000014,-1.2877783999999937
-9.116577000000019,-2.4558748666666808,-1.3133105666666602
-9.132535000000017,-2.465449433333348,-1.3388427333333268
-9.148493000000014,-2.4750240000000145,-1.3643748999999932
-9.148493000000013,-2.4750240000000145,-1.3643748999999932
-9.132535000000013,-2.4686409000000142,-1.3452257333333264
-9.116577000000012,-2.4622578000000144,-1.3260765666666596
-9.100619000000012,-2.455874700000014,-1.3069273999999929
-9.10061900000001,-2.4558747000000136,-1.3069273999999929
-9.110193666666676,-2.4686408000000135,-1.322885033333326
-9.119768333333342,-2.4814069000000134,-1.3388426666666593
-9.129343000000008,-2.494173000000013,-1.3548002999999926
-9.129343000000008,-2.494173000000013,-1.3548002999999926
-9.119768333333342,-2.5005560000000133,-1.345225733333326
-9.110193666666676,-2.5069390000000134,-1.3356511666666595
-9.10061900000001,-2.5133220000000134,-1.326076599999993
-9.10061900000001,-2.5133220000000134,-1.326076599999993
-9.10061900000001,-2.510130500000013,-1.3356511666666595
-9.10061900000001,-2.506939000000013,-1.345225733333326
-9.10061900000001,-2.5037475000000122,-1.3548002999999926
-9.116577000000008,-2.5165136000000126,-1.3611833333333259
-9.132535000000006,-2.529279700000013,-1.367566366666659
-9.148493000000004,-2.5420458000000132,-1.3739493999999925
-9.148493000000004,-2.5420458000000132,-1.3739493999999925
-9.148493000000004,-2.5420458000000132,-1.3739493999999925
-9.138918333333338,-2.535662800000013,-1.3420341999999925
-9.129343666666673,-2.529279800000013,-1.3101189999999925
-9.119769000000007,-2.5228968000000127,-1.2782037999999927
-9.119769000000007,-2.516513700000013,-1.2782037999999927
-9.119769000000007,-2.5101306000000125,-1.2782037999999927
-9.119769000000007,-2.5037475000000122,-1.2782037999999927
-9.119769000000007,-2.5037475000000122,-1.2782037999999927
-9.13253500000001,-2.5005560000000124,-1.2590546666666593
-9.14530100000001,-2.4973645000000126,-1.2399055333333255
-9.158067000000012,-2.494173000000013,-1.220756399999992
-9.158067000000012,-2.494173000000013,-1.2207563999999917
-9.154875666666678,-2.494173000000013,-1.2399055333333255
-9.151684333333344,-2.494173000000013,-1.259054666666659
-9.14849300000001,-2.494173000000013,-1.2782037999999927
-9.148493000000013,-2.494173000000013,-1.278203799999993
-9.132535000000013,-2.503747600000013,-1.2654377333333262
-9.116577000000012,-2.513322200000013,-1.2526716666666597
-9.100619000000012,-2.5228968000000127,-1.239905599999993
-9.10061900000001,-2.5228968000000127,-1.239905599999993
-9.113385333333342,-2.5548119666666795,-1.243097099999993
-9.126151666666674,-2.586727133333346,-1.2462885999999933
-9.138918000000006,-2.6186423000000123,-1.2494800999999933
-9.138918000000006,-2.6186423000000123,-1.2494800999999933
-9.055938333333335,-2.6952388000000127,-1.2813952999999934
-8.972958666666667,-2.771835300000013,-1.3133104999999932
-8.889978999999999,-2.848431800000013,-1.3452256999999932
-8.889978999999997,-2.848431800000013,-1.3452256999999932
-8.593167666666664,-3.02077386666668,-1.2207564333333263
-8.29635633333333,-3.1931159333333468,-1.0962871666666594
-7.999544999999998,-3.365458000000013,-0.9718178999999925
-8.318697333333333,-3.5441831666666794,-1.086712633333326
-8.637849666666668,-3.7229083333333457,-1.2016073666666591
-8.957002000000003,-3.901633500000012,-1.3165020999999923
-8.957002000000003,-3.901633500000012,-1.3165020999999921
-8.957002000000003,-3.901633500000012,-1.3165020999999921
-10.013395000000003,-3.901633500000012,-1.527142399999992
-11.069788000000003,-3.901633500000012,-1.7377826999999921
-12.126181000000003,-3.901633500000012,-1.948422999999992
-12.126181000000003,-3.901633500000012,-1.948422999999992
-10.772976333333334,-3.7739726666666784,-1.3771409099999918
-9.419771666666668,-3.646311833333345,-0.8058588199999918
-8.066567,-3.5186510000000113,-0.23457672999999182
-7.8048623333333325,-3.521842466666678,-0.4643661766666585
-7.543157666666666,-3.525033933333345,-0.6941556233333253
-7.281452999999999,-3.5282254000000113,-0.9239450699999918
-7.281452999999999,-3.5282254000000113,-0.9239450699999917
-7.281452999999999,-3.5282254000000113,-0.9239450699999917
-7.399539333333332,-3.4739696000000113,-0.9047959466666583
-7.517625666666665,-3.4197138000000114,-0.8856468233333249
-7.635711999999998,-3.3654580000000114,-0.8664976999999915
-7.635711999999998,-3.3654580000000114,-0.8664976999999915
-7.926140333333332,-3.362266466666678,-0.9590517999999916
-8.216568666666666,-3.3590749333333445,-1.0516058999999915
-8.506996999999998,-3.355883400000011,-1.1441599999999916
-9.324025999999998,-3.247371700000011,-1.1569260666666583
-10.141055,-3.1388600000000113,-1.169692133333325
-10.958084,-3.030348300000011,-1.1824581999999915
-10.958084,-3.030348300000011,-1.1824581999999915
-12.234692333333333,-2.5867270333333447,-1.6133134666666582
-13.511300666666665,-2.1431057666666784,-2.044168733333325
-14.787908999999999,-1.6994845000000118,-2.4750239999999915
-14.787908999999999,-1.6994845000000118,-2.4750239999999915
-14.787908999999999,-1.6994845000000118,-2.4750239999999915
-14.685780333333332,-0.9973500600000119,-2.5101306666666585
-14.583651666666663,-0.29521562000001184,-2.5452373333333247
-14.481522999999996,0.4069188199999882,-2.580343999999991
-14.481522999999996,0.4069188199999882,-2.580343999999991
-12.043201433333328,0.2601088933333215,-1.734591174333324
-9.60487986666666,0.1132989666666548,-0.8888383486666575
-7.166558299999995,-0.03351096000001186,-0.04308552299999061
-8.108056866666663,-0.014361839333345193,-0.483515315333324
-9.04955543333333,0.004787281333321473,-0.9239451076666575
-9.991053999999997,0.02393640199998814,-1.3643748999999907
-9.991053999999997,0.02393640199998814,-1.3643748999999907
-9.991053999999997,0.02393640199998814,-1.3643748999999907
-10.150629999999998,-0.6590489320000118,-1.1952243199999908
-10.310205999999999,-1.342034266000012,-1.0260737399999909
-10.469782,-2.0250196000000122,-0.8569231599999908
-10.469782,-2.0250196000000122,-0.8569231599999908
-9.375090533333333,-1.9579976333333455,-0.4452170599999909
-8.280399066666666,-1.890975666666679,-0.033510959999990875
-7.185707599999998,-1.8239537000000123,0.37819514000000914
-7.048472266666664,-1.8558689000000124,0.21542761200000912
-6.91123693333333,-1.8877841000000126,0.052660084000009134
-6.774001599999996,-1.9196993000000129,-0.11010744399999085
-6.774001599999996,-1.919699300000013,-0.11010744399999085
-6.774001599999996,-1.919699300000013,-0.11010744399999085
-7.364432733333328,-2.1973615333333467,-0.23457672933332416
-7.954863866666661,-2.4750237666666806,-0.3590460146666574
-8.545294999999994,-2.7526860000000144,-0.48351529999999077
-8.545294999999994,-2.7526860000000144,-0.48351529999999077
-8.385718999999993,-2.810133433333347,-0.29521561166665744
-8.226142999999992,-2.8675808666666804,-0.10691592333332411
-8.06656699999999,-2.925028300000014,0.08138376500000921
-8.06656699999999,-2.925028300000014,0.08138376500000921
-8.06656699999999,-2.925028300000014,0.08138376500000921
-8.06656699999999,-2.925028300000014,0.08138376500000921
-8.06656699999999,-2.925028300000014,0.08138376500000921
-8.06656699999999,-2.925028300000014,0.08138376500000921
-9.518708666666656,-2.889921533333348,-0.7292623899999909
-10.970850333333324,-2.8548147666666814,-1.5399085449999912
-12.422991999999992,-2.819708000000015,-2.350554699999991
-12.984699666666657,-2.5643863666666817,-2.3792783333333247
-13.546407333333322,-2.3090647333333485,-2.408001966666658
-14.108114999999989,-2.053743100000015,-2.4367255999999906
-14.108114999999989,-2.053743100000015,-2.4367255999999906
-13.128318333333324,-1.7473572000000148,-2.363320666666657
-12.148521666666658,-1.4409713000000146,-2.289915733333323
-11.168724999999993,-1.1345854000000146,-2.21651079999999
-11.168724999999993,-1.1345854000000146,-2.2165107999999893
-11.168724999999993,-1.1345854000000146,-2.2165107999999893
-9.879350799999992,-0.7771351480000147,-2.0473601999999893
-8.589976599999993,-0.41968489600001474,-1.8782095999999893
-7.300602399999993,-0.06223464400001477,-1.7090589999999892
-7.300602399999993,-0.06223464400001477,-1.7090589999999892
-7.121877266666659,-0.4420255293333481,-1.4186306799999893
-6.943152133333325,-0.8218164146666814,-1.1282023599999895
-6.7644269999999915,-1.2016073000000147,-0.8377740399999896
-7.533583333333325,-0.9622433000000147,-0.9654348266666561
-8.302739666666657,-0.7228793000000148,-1.0930956133333227
-9.07189599999999,-0.48351530000001475,-1.2207563999999893
-9.071895999999988,-0.48351530000001475,-1.2207563999999895
-9.071895999999988,-0.48351530000001475,-1.2207563999999895
-9.97509633333332,-0.550537233333348,-1.4026730666666563
-10.878296666666655,-0.6175591666666813,-1.584589733333323
-11.781496999999987,-0.6845811000000146,-1.7665063999999895
-11.781496999999987,-0.6845811000000146,-1.7665063999999895
-11.912348999999987,-1.1665006000000149,-1.4984186999999896
-12.043200999999987,-1.648420100000015,-1.2303309999999896
-12.174052999999986,-2.1303396000000148,-0.9622432999999896
-11.219788666666654,-2.0090618666666815,-0.7260708199999896
-10.265524333333323,-1.887784133333348,-0.4898983399999895
-9.31125999999999,-1.7665064000000148,-0.25372585999998953
-9.311259999999992,-1.7665064000000148,-0.2537258599999895
-9.311259999999992,-1.7665064000000148,-0.2537258599999895
-9.126151999999992,-1.3452257500000149,-0.17712937399998951
-8.941043999999993,-0.9239451000000148,-0.10053288799998951
-8.755935999999993,-0.5026644500000149,-0.023936401999989514
-8.755935999999993,-0.5026644500000149,-0.023936401999989514
-9.853818666666662,-0.8505401333333483,-0.8569232013333229
-10.95170133333333,-1.1984158166666816,-1.689910000666656
-12.049583999999998,-1.546291500000015,-2.522896799999989
-10.961275666666666,-1.7090590000000148,-1.6835269599999894
-9.872967333333332,-1.8718265000000145,-0.8441571199999895
-8.784659,-2.0345940000000144,-0.004787279999989587
-8.784659,-2.0345940000000144,-0.004787279999989587
-8.784659,-2.0345940000000144,-0.004787279999989587
-8.548486333333335,-2.200553066666681,0.07819224666667708
-8.312313666666668,-2.3665121333333476,0.16117177333334373
-8.076141000000002,-2.532471200000014,0.2441513000000104
-8.076141000000002,-2.532471200000014,0.2441513000000104
-8.816574000000003,-2.870772366666681,-0.3750035999999895
-9.557007000000004,-3.2090735333333478,-0.9941584999999894
-10.297440000000003,-3.547374700000015,-1.6133133999999894
-10.297440000000003,-3.547374700000015,-1.6133133999999894
-10.66446466666667,-3.499501833333348,-1.6005473333333227
-11.031489333333335,-3.4516289666666817,-1.5877812666666562
-11.398514,-3.403756100000015,-1.5750151999999895
-11.398514,-3.403756100000015,-1.5750151999999895
-12.062350333333335,-3.279286833333348,-1.488844166666656
-12.726186666666669,-3.154817566666681,-1.4026731333333229
-13.390023000000001,-3.030348300000014,-1.3165020999999895
-13.390023000000001,-3.030348300000014,-1.3165020999999895
-12.161287666666668,-2.940985766666681,-1.2430970999999895
-10.932552333333335,-2.8516232333333478,-1.1696920999999898
-9.703817000000003,-2.762260700000015,-1.0962870999999899
-9.703817000000003,-2.762260700000015,-1.09628709999999
-10.600634000000005,-2.6122592333333476,-1.73139959999999
-11.497451000000003,-2.462257766666681,-2.3665120999999902
-12.394268000000002,-2.312256300000014,-3.00162459999999
-12.394268000000002,-2.312256300000014,-3.00162459999999
-12.470864666666666,-1.980338233333347,-2.8643892666666573
-12.547461333333331,-1.6484201666666802,-2.7271539333333243
-12.624057999999996,-1.3165021000000137,-2.5899185999999914
-12.624057999999996,-1.3165021000000134,-2.5899185999999914
-11.210214333333328,-1.1952243333333465,-2.0760838333333242
-9.796370666666663,-1.0739465666666799,-1.5622490666666575
-8.382526999999998,-0.952668800000013,-1.0484142999999908
-8.382527,-0.952668800000013,-1.0484142999999906
-7.616562466666667,-1.048414400000013,-0.9750093666666574
-6.850597933333334,-1.144160000000013,-0.9016044333333241
-6.084633400000001,-1.2399056000000128,-0.8281994999999908
-6.084633400000001,-1.2399056000000126,-0.8281994999999908
-7.313368600000001,-1.3165020666666791,-1.070755033333324
-8.542103800000001,-1.3930985333333457,-1.3133105666666574
-9.770839000000002,-1.4696950000000122,-1.5558660999999907
-9.770839000000002,-1.4696950000000122,-1.5558660999999907
-10.674039,-1.1665005866666789,-1.6420371333333241
-11.577238999999999,-0.8633061733333456,-1.7282081666666576
-12.480438999999997,-0.5601117600000122,-1.8143791999999908
-12.464481666666662,-0.706921706666679,-1.6420370999999907
-12.44852433333333,-0.8537316533333458,-1.4696949999999906
-12.432566999999997,-1.0005416000000125,-1.2973528999999904
-12.432566999999997,-1.0005416000000125,-1.2973528999999904
-11.70490033333333,-1.1409684666666793,-0.8952213766666571
-10.977233666666663,-1.2813953333333459,-0.4930898533333237
-10.249566999999997,-1.4218222000000127,-0.09095832999999047
-10.249566999999997,-1.4218222000000127,-0.09095832999999047
-10.249566999999997,-1.4218222000000127,-0.09095832999999047
-10.265524666666664,-1.0484143566666793,-0.19947001999999048
-10.281482333333331,-0.6750065133333459,-0.30798170999999047
-10.29744,-0.30159867000001267,-0.4164933999999904
-10.29744,-0.30159867000001267,-0.4164933999999904
-10.089991333333332,-0.5920269800000126,-0.8250079999999903
-9.882542666666666,-0.8824552900000125,-1.2335225999999901
-9.675094,-1.1728836000000125,-1.64203719999999
-8.360187433333332,-1.4569289333333455,-0.87926384999999
-7.0452808666666655,-1.7409742666666788,-0.11649049999998999
-5.7303742999999985,-2.0250196000000122,0.6462828500000101
-5.7303742999999985,-2.0250196000000122,0.6462828500000101
-5.7303742999999985,-2.0250196000000122,0.6462828500000101
-5.420796866666667,-2.203744733333345,0.6590489333333434
-5.111219433333335,-2.3824698666666784,0.6718150166666766
-4.801642000000002,-2.5611950000000117,0.68458110000001
-4.801642000000002,-2.5611950000000117,0.68458110000001
-6.620808666666669,-2.752686166666678,0.08138380000001
-8.439975333333335,-2.9441773333333447,-0.52181349999999
-10.259142000000002,-3.1356685000000115,-1.12501079999999
-10.9197865,-3.039922933333345,-0.9909669666666566
-11.580430999999999,-2.9441773666666786,-0.8569231333333232
-12.241075499999999,-2.848431800000012,-0.7228792999999897
-12.241075499999999,-2.848431800000012,-0.7228792999999897
-12.241075499999999,-2.848431800000012,-0.7228792999999897
-13.179382333333331,-2.6760896666666785,-0.9526687666666565
-14.117689166666665,-2.5037475333333448,-1.1824582333333231
-15.055995999999999,-2.3314054000000115,-1.41224769999999
-15.055995999999999,-2.3314054000000115,-1.41224769999999
-13.670876333333332,-2.433534066666678,-1.2399055999999897
-12.285756666666664,-2.5356627333333446,-1.0675634999999897
-10.900636999999996,-2.6377914000000113,-0.8952213999999895
-10.900636999999994,-2.6377914000000113,-0.8952213999999895
-11.050638333333325,-2.688855733333345,-1.2462885999999895
-11.200639666666655,-2.739920066666679,-1.59735579999999
-11.350640999999987,-2.790984400000013,-1.94842299999999
-11.350640999999987,-2.7909844000000135,-1.94842299999999
-11.39532233333332,-2.449491733333347,-2.072892333333323
-11.440003666666655,-2.10799906666668,-2.1973616666666564
-11.48468499999999,-1.7665064000000135,-2.3218309999999893
-9.64636949999999,-1.6675692666666802,-1.744165833333323
-7.808053999999989,-1.5686321333333468,-1.1665006666666564
-5.9697384999999885,-1.4696950000000133,-0.5888354999999895
-5.9697384999999885,-1.4696950000000133,-0.5888354999999895
-5.701650799999989,-1.5303339000000136,-0.7867097333333227
-5.433563099999989,-1.5909728000000136,-0.9845839666666562
-5.1654753999999885,-1.6516117000000137,-1.1824581999999895
-5.1654753999999885,-1.6516117000000137,-1.1824581999999895
-5.1654753999999885,-1.6516117000000137,-1.1824581999999895
-6.477189933333321,-1.6771438666666805,-1.3548002999999893
-7.788904466666655,-1.702676033333347,-1.5271423999999891
-9.10061899999999,-1.7282082000000136,-1.699484499999989
-9.10061899999999,-1.7282082000000136,-1.6994844999999887
-10.63893199999999,-1.8814011333333471,-1.5877812999999883
-12.177244999999987,-2.0345940666666804,-1.476078099999988
-13.715557999999985,-2.1877870000000135,-1.3643748999999878
-14.171945333333317,-1.9037417333333468,-1.3930985666666544
-14.628332666666651,-1.61969646666668,-1.4218222333333213
-15.084719999999985,-1.3356512000000134,-1.450545899999988
-15.084719999999985,-1.3356512000000134,-1.450545899999988
-13.70279166666665,-1.12501085666668,-1.1090532499999881
-12.320863333333316,-0.9143705133333467,-0.7675605999999883
-10.938934999999981,-0.7037301700000134,-0.42606794999998837
-10.938934999999981,-0.7037301700000134,-0.42606794999998837
-10.938934999999981,-0.7037301700000134,-0.42606794999998837
-9.770838666666648,-0.5058559280000133,-0.09734137999998838
-8.602742333333316,-0.30798168600001335,0.2313851900000116
-7.434645999999982,-0.11010744400001338,0.5601117600000116
-8.127205999999982,-0.5186220293333467,-0.13883112666665506
-8.819765999999982,-0.9271366146666798,-0.8377740133333217
-9.512325999999982,-1.3356512000000134,-1.5367168999999883
-9.512325999999982,-1.3356512000000134,-1.5367168999999883
-9.512325999999982,-1.3356512000000134,-1.5367168999999883
-9.014448666666647,-1.56544066666668,-1.0101160923333214
-8.516571333333312,-1.7952301333333465,-0.48351528466665483
-8.018693999999977,-2.025019600000013,0.04308552300001186
-8.018693999999977,-2.0250196000000127,0.04308552300001186
-7.23996333333331,-2.021828066666679,0.2888325686666785
-6.461232666666643,-2.018636533333346,0.5345796143333451
-5.6825019999999755,-2.015445000000012,0.7803266600000119
-5.6825019999999755,-2.015445000000012,0.7803266600000119
-6.12612323333331,-2.104807533333345,0.7579860266666785
-6.569744466666644,-2.194170066666679,0.735645393333345
-7.013365699999977,-2.283532600000013,0.7133047600000116
-7.013365699999977,-2.283532600000013,0.7133047600000116
-8.232526466666643,-2.57715246666668,0.2824495400000116
-9.45168723333331,-2.870772333333347,-0.1484056799999884
-10.670847999999976,-3.1643922000000138,-0.5792608999999884
-10.670847999999976,-3.1643922000000138,-0.5792608999999884
-11.012340666666644,-2.902687533333347,-0.5090474566666551
-11.353833333333311,-2.6409828666666804,-0.4388340133333218
-11.695325999999978,-2.3792782000000137,-0.3686205699999885
-11.695325999999978,-2.3792782000000137,-0.3686205699999885
-12.458098999999978,-2.33778846666668,-0.7228793133333218
-13.220871999999979,-2.2962987333333467,-1.077138056666655
-13.98364499999998,-2.2548090000000136,-1.4313967999999884
-13.983644999999981,-2.2548090000000136,-1.4313967999999884
-12.799590999999984,-2.26119206666668,-1.488844166666655
-11.615536999999984,-2.267575133333347,-1.5462915333333216
-10.431482999999984,-2.273958200000014,-1.6037388999999882
-10.431482999999986,-2.2739582000000143,-1.6037388999999882
-10.820848666666654,-2.3537461333333476,-1.820762266666655
-11.21021433333332,-2.4335340666666805,-2.0377856333333217
-11.599579999999989,-2.513322000000014,-2.2548089999999887
-11.599579999999989,-2.5133220000000134,-2.2548089999999887
-10.983616666666654,-2.340979933333347,-2.0026788999999887
-10.367653333333319,-2.16863786666668,-1.750548799999989
-9.751689999999986,-1.9962958000000135,-1.498418699999989
-9.751689999999986,-1.9962958000000135,-1.498418699999989
-8.880404999999985,-2.0314025333333467,-1.5239508666666557
-8.009119999999985,-2.06650926666668,-1.5494830333333223
-7.137834999999985,-2.101616000000013,-1.5750151999999888
-7.137834999999984,-2.101616000000013,-1.5750151999999888
-7.504859999999984,-2.27076656666668,-1.7154420666666554
-7.871884999999985,-2.439917133333347,-1.8558689333333218
-8.238909999999985,-2.6090677000000135,-1.9962957999999882
-8.238909999999986,-2.6090677000000135,-1.996295799999988
-9.177216666666654,-2.8101334666666804,-2.117573533333321
-10.11552333333332,-3.011199233333347,-2.238851266666655
-11.053829999999985,-3.2122650000000132,-2.360128999999988
-11.053829999999985,-3.2122650000000132,-2.360128999999988
-11.593196666666655,-3.5888643333333463,-2.190978499999988
-12.132563333333321,-3.9654636666666794,-2.021827999999988
-12.671929999999987,-4.342063000000013,-1.852677499999988
-12.671929999999984,-4.342063000000014,-1.852677499999988
-12.59214233333332,-4.300573233333346,-1.6133134666666546
-12.512354666666653,-4.25908346666668,-1.3739494333333215
-12.432566999999986,-4.2175937000000125,-1.134585399999988
-10.798508566666655,-4.137805733333346,-0.28883256666665474
-9.164450133333323,-4.058017766666679,0.5569202666666785
-7.530391699999991,-3.9782298000000123,1.4026731000000119
-7.530391699999991,-3.9782298000000123,1.4026731000000119
-7.530391699999991,-3.9782298000000123,1.4026731000000119
-7.511242566666659,-3.9048248666666794,1.131393900000012
-7.4920934333333244,-3.8314199333333465,0.860114700000012
-7.472944299999991,-3.758015000000013,0.5888355000000121
-6.611233866666659,-4.1665295666666795,0.6016015666666786
-5.749523433333326,-4.575044133333346,0.6143676333333453
-4.887812999999992,-4.983558700000013,0.6271337000000119
-4.8878129999999915,-4.983558700000013,0.6271337000000119
-4.297381833333325,-5.056963633333346,0.6398998000000119
-3.706950666666657,-5.13036856666668,0.652665900000012
-3.1165194999999897,-5.203773500000014,0.665432000000012
-3.1165194999999897,-5.203773500000014,0.665432000000012
-3.2090735666666568,-5.216539533333346,0.5952185466666786
-3.301627633333324,-5.229305566666679,0.5250050933333452
-3.3941816999999914,-5.2420716000000125,0.4547916400000118
-3.3941816999999914,-5.2420716000000125,0.4547916400000118
-3.3941816999999914,-5.2420716000000125,0.4547916400000118
-3.3463089333333245,-6.279315733333346,-0.38776970666665495
-3.298436166666658,-7.31655986666668,-1.2303310533333216
-3.2505633999999914,-8.353804000000013,-2.072892399999988
-3.477161266666658,-8.056992666666678,-2.7494946999999876
-3.7037591333333246,-7.760181333333345,-3.4260969999999866
-3.9303569999999914,-7.463370000000011,-4.102699299999986
-3.9303569999999914,-7.463370000000011,-4.102699299999986
-4.795258999999991,-8.526146000000011,-4.750577766666653
-5.660160999999991,-9.58892200000001,-5.39845623333332
-6.52506299999999,-10.65169800000001,-6.046334699999988
-6.52506299999999,-10.651698000000009,-6.046334699999988
-6.3910191666666565,-9.892116333333343,-5.32185973333332
-6.256975333333323,-9.132534666666675,-4.597384766666654
-6.12293149999999,-8.372953000000008,-3.8729097999999866
-6.12293149999999,-8.372953000000008,-3.8729097999999866
-5.749523666666657,-7.600605200000007,-3.36864953333332
-5.376115833333323,-6.828257400000005,-2.8643892666666537
-5.002707999999989,-6.055909600000004,-2.360128999999987
-5.002707999999989,-6.055909600000004,-2.360128999999987
-5.446329333333321,-5.465478400000005,-1.9196992666666535
-5.889950666666654,-4.8750472000000045,-1.47926953333332
-6.333571999999987,-4.284616000000004,-1.0388397999999863
-6.333571999999987,-4.284616000000004,-1.0388397999999865
-6.592085099999988,-4.00376216666667,-0.5537287333333197
-6.850598199999987,-3.722908333333336,-0.06861766666665307
-7.109111299999987,-3.4420545000000016,0.4164934000000136
-7.109111299999985,-3.4420545000000016,0.4164934000000136
-6.997408066666651,-3.2920530666666683,0.26010890666668024
-6.885704833333317,-3.142051633333335,0.10372441333334692
-6.774001599999981,-2.9920502000000018,-0.05266007999998642
-6.774001599999981,-2.9920502000000018,-0.05266007999998642
-7.1601754999999825,-2.8260911333333354,-0.3845781533333197
-7.546349399999983,-2.660132066666669,-0.7164962266666531
-7.932523299999983,-2.494173000000002,-1.0484142999999866
-7.932523299999983,-2.494173000000002,-1.0484142999999866
-9.69743386666665,-2.187787066666669,-1.9420399333333203
-11.462344433333316,-1.8814011333333351,-2.835665566666654
-13.227254999999984,-1.575015200000002,-3.729291199999988
-13.227254999999984,-1.575015200000002,-3.729291199999988
-14.098539999999984,-0.5984100333333353,-4.140997466666655
-14.969824999999984,0.3781951333333313,-4.552703733333321
-15.841109999999984,1.354800299999998,-4.9644099999999876
-15.841109999999984,1.354800299999998,-4.964409999999987
-14.542161333333317,0.7803266766666646,-5.0856876666666535
-13.24321266666665,0.20585305333333123,-5.2069653333333195
-11.944263999999984,-0.3686205700000021,-5.328242999999986
-11.944263999999984,-0.3686205700000021,-5.328242999999986
-10.935743666666653,-0.1803208866666688,-4.0165281999999864
-9.92722333333332,0.007978796666664548,-2.704813399999987
-8.918702999999985,0.1962784799999979,-1.3930985999999874
-8.918702999999987,0.1962784799999979,-1.3930985999999874
-9.592113666666654,-0.023936403333335455,-1.9133163333333207
-10.26552433333332,-0.24415128666666883,-2.4335340666666543
-10.938934999999987,-0.46436617000000213,-2.953751799999988
-10.938934999999987,-0.46436617000000213,-2.9537517999999885
-9.489984999999985,-1.1473514466666688,-2.229276753333322
-8.041034999999985,-1.8303367233333354,-1.5048017066666552
-6.592084999999984,-2.5133220000000023,-0.7803266599999885
-6.592084999999984,-2.5133220000000023,-0.7803266599999885
-5.70165086666665,-2.178212400000002,-0.4356424866666552
-4.811216733333317,-1.8431028000000016,-0.09095831333332187
-3.9207825999999826,-1.5079932000000014,0.25372586000001146
-3.9207825999999826,-1.5079932000000014,0.25372586000001146
-4.492064733333316,-1.549482966666668,0.036702486666678136
-5.06334686666665,-1.590972733333335,-0.18032088666665522
-5.6346289999999835,-1.6324625000000017,-0.39734425999998857
-5.6346289999999835,-1.6324625000000017,-0.39734425999998857
-6.429317333333317,-1.8303367333333354,-0.6558573733333218
-7.22400566666665,-2.028210966666669,-0.9143704866666552
-8.018693999999984,-2.2260852000000027,-1.1728835999999885
-8.018693999999984,-2.226085200000003,-1.1728835999999885
-8.050609333333316,-2.5516202666666694,-1.1441599333333217
-8.082524666666648,-2.877155333333336,-1.115436266666655
-8.114439999999982,-3.202690400000003,-1.0867125999999883
-8.11443999999998,-3.202690400000003,-1.086712599999988
-8.797425333333313,-3.7229082666666695,-0.8952213999999881
-9.480410666666645,-4.2431261333333365,-0.703730199999988
-10.163395999999977,-4.763344000000003,-0.512238999999988
-10.163395999999977,-4.763344000000003,-0.512238999999988
-11.248512666666644,-4.8718556666666695,-0.5090474833333213
-12.333629333333311,-4.980367333333337,-0.5058559666666547
-13.418745999999977,-5.088879000000005,-0.502664449999988
-13.418745999999977,-5.088879000000005,-0.502664449999988
-12.57937633333331,-4.632491600000004,-0.11649049999998799
-11.740006666666645,-4.176104200000004,0.26968345000001204
-10.90063699999998,-3.7197168000000036,0.655857400000012
-10.90063699999998,-3.7197168000000036,0.655857400000012
-12.633632333333315,-3.6941846333333364,0.2473428166666787
-14.36662766666665,-3.6686524666666696,-0.16117176666665464
-16.099622999999983,-3.6431203000000028,-0.569686349999988
-16.099622999999983,-3.6431203000000028,-0.569686349999988
-14.274073333333314,-3.0686466333333358,0.279258000000012
-12.448523666666647,-2.494172966666669,1.128202350000012
-10.62297399999998,-1.9196993000000024,1.9771467000000118
-10.62297399999998,-1.9196993000000024,1.9771467000000118
-10.010202333333313,-1.5143762566666694,1.4952271666666785
-9.397430666666645,-1.109053213333336,1.0133076333333453
-8.784658999999978,-0.7037301700000028,0.5313881000000119
-8.784658999999978,-0.7037301700000028,0.5313881000000119
-8.143163566666646,-0.7867097133333362,0.4835153000000119
-7.501668133333314,-0.8696892566666695,0.435642500000012
-6.860172699999981,-0.9526688000000029,0.38776970000001204
-6.860172699999981,-0.9526688000000029,0.38776970000001204
-6.1771874666666475,-0.9813924666666695,0.33989690000001205
-5.494202233333314,-1.0101161333333362,0.29202410000001205
-4.8112169999999805,-1.038839800000003,0.24415130000001203
-4.8112169999999805,-1.0388398000000032,0.24415130000001203
-5.341009266666647,-1.2207564333333363,0.15798025300001203
-5.870801533333314,-1.4026730666666698,0.07180920600001203
-6.400593799999981,-1.5845897000000033,-0.014361840999987968
-6.400593799999981,-1.5845897000000033,-0.014361840999987968
-7.6516695333333145,-1.6420371000000031,-0.39096122733332134
-8.902745266666647,-1.699484500000003,-0.7675606136666547
-10.153820999999983,-1.7569319000000025,-1.144159999999988
-10.153820999999981,-1.7569319000000025,-1.1441599999999879
-11.229363333333316,-1.8909757000000027,-1.5079932666666542
-12.304905666666649,-2.0250195000000026,-1.8718265333333208
-13.380447999999982,-2.159063300000003,-2.235659799999987
-13.380447999999982,-2.159063300000003,-2.2356597999999868
-14.00917766666665,-2.159063300000003,-2.4080018666666536
-14.637907333333317,-2.159063300000003,-2.5803439333333205
-15.266636999999983,-2.159063300000003,-2.752685999999987
-15.266636999999983,-2.159063300000003,-2.752685999999987
-14.267690999999985,-1.8877841000000029,-2.6250252666666536
-13.268744999999987,-1.6165049000000031,-2.49736453333332
-12.269798999999987,-1.3452257000000032,-2.369703799999986
-12.269798999999987,-1.3452257000000032,-2.369703799999986
-10.855955666666654,-1.44735436666667,-2.0888499999999866
-9.442112333333322,-1.5494830333333365,-1.8079961999999867
-8.02826899999999,-1.651611700000003,-1.5271423999999871
-7.951672533333323,-1.9643806666666699,-1.792038599999987
-7.875076066666655,-2.277149633333337,-2.056934799999987
-7.798479599999989,-2.589918600000004,-2.3218309999999875
-7.798479599999989,-2.589918600000004,-2.3218309999999875
-7.798479599999989,-2.589918600000004,-2.3218309999999875
-7.986779399999989,-2.7335370666666705,-2.3218309999999875
-8.17507919999999,-2.8771555333333367,-2.3218309999999875
-8.36337899999999,-3.020774000000003,-2.3218309999999875
-8.36337899999999,-3.020774000000003,-2.3218309999999875
-8.905937333333322,-3.2250312000000023,-2.344171599999988
-9.448495666666654,-3.429288400000002,-2.3665121999999883
-9.991053999999986,-3.6335456000000015,-2.3888527999999885
-10.549569999999987,-3.9175909000000018,-2.2005530999999885
-11.108085999999986,-4.201636200000002,-2.0122533999999885
-11.666601999999985,-4.485681500000003,-1.8239536999999888
-11.666601999999985,-4.485681500000003,-1.8239536999999888
-11.666601999999985,-4.485681500000003,-1.8239536999999888
-12.314480666666654,-4.613342333333336,-2.005870399999989
-12.962359333333323,-4.74100316666667,-2.1877870999999884
-13.61023799999999,-4.868664000000003,-2.3697037999999884
-13.61023799999999,-4.868664000000003,-2.369703799999988
-12.767676666666658,-4.4441918333333374,-2.092041499999988
-11.925115333333324,-4.019719666666671,-1.814379199999988
-11.08255399999999,-3.595247500000004,-1.5367168999999883
-11.08255399999999,-3.595247500000004,-1.5367168999999883
-12.541078666666657,-3.2537548333333377,-1.839911366666655
-13.999603333333324,-2.9122621666666717,-2.1431058333333213
-15.45812799999999,-2.5707695000000053,-2.4463002999999883
-15.45812799999999,-2.5707695000000053,-2.446300299999988
-14.963442333333324,-2.261192066666672,-1.7633149533333212
-14.468756666666657,-1.9516146333333386,-1.0803296066666546
-13.97407099999999,-1.6420372000000052,-0.39734425999998796
-13.97407099999999,-1.6420372000000052,-0.39734425999998796
-12.585759666666656,-1.5558661333333388,-0.3718120933333213
-11.197448333333321,-1.4696950666666722,-0.3462799266666547
-9.809136999999987,-1.3835240000000057,-0.320747759999988
-9.809136999999987,-1.383524000000006,-0.320747759999988
-9.311259999999988,-1.2813953666666726,-0.2664919233333214
-8.813382999999988,-1.1792667333333395,-0.21223608666665475
-8.315505999999987,-1.0771381000000064,-0.1579802499999881
-8.315505999999987,-1.0771381000000064,-0.1579802499999881
-8.149546799999987,-0.8026673533333396,-0.06223464666665477
-7.983587599999988,-0.5281966066666729,0.033510956666678554
-7.817628399999989,-0.25372586000000613,0.12925656000001187
-7.817628399999989,-0.25372586000000613,0.12925656000001187
-8.076141599999987,-0.13883113000000616,-0.007978806666654783
-8.334654799999987,-0.02393640000000613,-0.14521417333332143
-8.593167999999988,0.09095832999999387,-0.28244953999998806
-8.59316799999999,0.09095832999999387,-0.28244953999998806
-8.692104999999989,-0.2281936800000061,-0.37500361333332144
-8.791041999999988,-0.5473456900000061,-0.4675576866666547
-8.889978999999988,-0.8664977000000059,-0.560111759999988
-8.889978999999988,-0.8664977000000059,-0.560111759999988
-8.992107666666655,-1.2271394666666726,-0.046277026666654675
-9.094236333333322,-1.5877812333333392,0.4675577066666787
-9.196364999999991,-1.948423000000006,0.981392440000012
-9.196364999999991,-1.948423000000006,0.981392440000012
-9.911265666666658,-1.9420400000000058,0.381386660000012
-10.626166333333325,-1.9356570000000055,-0.21861911999998804
-11.341066999999994,-1.9292740000000055,-0.8186248999999881
-11.341066999999994,-1.9292740000000055,-0.8186248999999881
-10.91659466666666,-2.056934766666672,-0.9175620333333213
-10.492122333333326,-2.1845955333333387,-1.0164991666666547
-10.067649999999992,-2.3122563000000054,-1.115436299999988
-10.067649999999992,-2.3122563000000054,-1.1154362999999883
-9.63041199999999,-2.404810400000006,-1.0196906999999884
-9.19317399999999,-2.4973645000000064,-0.9239450999999885
-8.75593599999999,-2.5899186000000065,-0.8281994999999887
-8.75593599999999,-2.5899186000000065,-0.8281994999999887
-9.509134666666656,-2.8165165333333397,-0.9430941999999886
-10.262333333333324,-3.0431144666666725,-1.0579888999999885
-11.015531999999991,-3.2697124000000053,-1.1728835999999887
-11.015531999999991,-3.2697124000000053,-1.1728835999999887
-11.159150333333324,-3.4707782000000056,-1.1856496999999888
-11.302768666666658,-3.671844000000006,-1.198415799999989
-11.446386999999993,-3.872909800000006,-1.2111818999999888
-11.446386999999993,-3.872909800000006,-1.211181899999989
-12.429374999999993,-3.904824966666673,-1.6579946666666558
-13.412362999999994,-3.9367401333333394,-2.1048074333333227
-14.395350999999996,-3.9686553000000058,-2.5516201999999897
-14.395350999999996,-3.9686553000000058,-2.5516201999999897
-12.96874166666666,-4.032485766666673,-2.3122562333333225
-11.542132333333322,-4.096316233333339,-2.072892266666656
-10.115522999999987,-4.1601467000000065,-1.8335282999999887
-10.115522999999987,-4.1601467000000065,-1.8335282999999887
-10.926169166666654,-3.90482503333334,-2.2931071999999886
-11.73681533333332,-3.649503366666673,-2.752686099999989
-12.547461499999988,-3.3941817000000065,-3.2122649999999893
-12.547461499999988,-3.3941817000000065,-3.2122649999999893
-11.845326999999989,-3.103753400000006,-2.8484317333333227
-11.143192499999989,-2.813325100000006,-2.4845984666666556
-10.441057999999988,-2.5228968000000056,-2.1207651999999886
-10.44105799999999,-2.5228968000000056,-2.120765199999988
-10.44105799999999,-2.5228968000000056,-2.120765199999988
-9.110194099999989,-2.513322200000006,-1.801613166666655
-7.77933019999999,-2.503747600000006,-1.4824611333333217
-6.44846629999999,-2.4941730000000057,-1.1633090999999884
-6.655915099999991,-2.4239595333333397,-1.287778366666655
-6.8633638999999915,-2.353746066666673,-1.4122476333333216
-7.070812699999991,-2.2835326000000067,-1.5367168999999883
-7.070812699999991,-2.283532600000007,-1.5367168999999883
-8.889979466666658,-2.114382066666674,-1.5016101999999882
-10.709146233333323,-1.9452315333333408,-1.4665034999999882
-12.528312999999988,-1.7760810000000076,-1.4313967999999881
-12.528312999999988,-1.7760810000000078,-1.4313967999999881
-12.528312999999988,-1.7760810000000078,-1.4313967999999881
-14.02513599999999,-1.2718208066666745,-1.7058675333333213
-15.52195899999999,-0.7675606133333411,-1.9803382666666547
-17.01878199999999,-0.26330042000000775,-2.254808999999988
-14.947485333333326,0.14202265333332556,-2.0154449666666547
-12.876188666666659,0.5473457266666589,-1.7760809333333214
-10.804891999999994,0.9526687999999922,-1.5367168999999883
-10.804891999999994,0.9526687999999922,-1.5367168999999883
-10.804891999999994,0.9526687999999922,-1.5367168999999883
-9.151684333333327,0.4420255666666589,-0.6622403999999881
-7.498476666666659,-0.06861766666667446,0.21223610000001192
-5.845268999999992,-0.5792609000000079,1.086712600000012
-6.968683999999992,-0.5473457000000078,0.47394073333334535
-8.09209899999999,-0.5154305000000079,-0.13883113333332134
-9.21551399999999,-0.4835153000000079,-0.7516029999999881
-9.21551399999999,-0.4835153000000079,-0.7516029999999881
-9.02402299999999,-0.9335196333333413,-0.6303252333333214
-8.832531999999992,-1.3835239666666748,-0.5090474666666547
-8.641040999999992,-1.8335283000000082,-0.387769699999988
-8.641040999999992,-1.8335283000000082,-0.387769699999988
-8.641040999999992,-1.8335283000000082,-0.387769699999988
-7.974013333333325,-2.2292768666666745,-0.07500073333332136
-7.306985666666658,-2.625025433333341,0.2377682333333453
-6.63995799999999,-3.0207740000000083,0.5505372000000119
-7.986779333333324,-3.1484347000000086,0.2441512766666786
-9.333600666666657,-3.2760954000000084,-0.0622346466666547
-10.680421999999991,-3.4037561000000083,-0.36862056999998805
-10.680421999999991,-3.4037561000000083,-0.36862056999998805
-10.680421999999991,-3.4037561000000083,-0.36862056999998805
-11.64745266666666,-3.866526566666675,-0.4420255466666547
-12.614483333333327,-4.329297033333341,-0.5154305233333214
-13.581513999999997,-4.792067500000007,-0.5888354999999881
-13.651727333333332,-4.504830666666673,-0.9494772666666548
-13.721940666666663,-4.21759383333334,-1.3101190333333215
-13.792153999999996,-3.930357000000006,-1.6707607999999883
-13.792153999999996,-3.9303570000000057,-1.6707607999999883
-13.508108999999996,-3.5090763333333386,-1.667569266666655
-13.224063999999993,-3.087795666666672,-1.6643777333333218
-12.940018999999992,-2.6665150000000053,-1.6611861999999886
-12.940018999999992,-2.6665150000000053,-1.6611861999999886
-11.663410666666659,-3.1643922333333383,-1.6069303666666552
-10.386802333333327,-3.6622694666666717,-1.5526745333333218
-9.110193999999993,-4.160146700000005,-1.4984186999999884
-9.110193999999993,-4.160146700000005,-1.4984186999999884
-10.252758333333325,-3.652694933333338,-2.012253466666655
-11.395322666666658,-3.145243166666671,-2.5260882333333217
-12.53788699999999,-2.6377914000000042,-3.039922999999988
-12.53788699999999,-2.6377914000000042,-3.039922999999988
-11.216597499999992,-2.5133221333333378,-2.487789999999988
-9.895307999999993,-2.3888528666666713,-1.9356569999999877
-8.574018499999994,-2.2643836000000053,-1.3835239999999878
-8.574018499999994,-2.2643836000000053,-1.3835239999999878
-7.766563999999993,-2.286724200000005,-1.2909699333333209
-6.959109499999992,-2.3090648000000047,-1.1984158666666542
-6.151654999999991,-2.3314054000000044,-1.1058617999999876
-6.151654999999991,-2.3314054000000044,-1.1058617999999876
-7.013365666666658,-2.1845955000000044,-1.2558632333333208
-7.875076333333325,-2.0377856000000047,-1.4058646666666543
-8.736786999999993,-1.890975700000005,-1.5558660999999876
-8.736786999999993,-1.890975700000005,-1.5558660999999876
-10.958084999999992,-1.6771438333333384,-1.5590576333333208
-13.179382999999993,-1.4633119666666718,-1.562249166666654
-15.400680999999992,-1.249480100000005,-1.5654406999999873
-15.400680999999992,-1.249480100000005,-1.5654406999999873
-15.055996666666658,-0.8409655340000052,-1.7473573333333208
-14.711312333333325,-0.43245096800000504,-1.9292739666666543
-14.366627999999992,-0.023936402000004946,-2.1111905999999876
-14.366627999999992,-0.023936402000004946,-2.1111905999999876
-12.241075566666659,-0.11649049133333828,-1.4026731196666538
-10.115523133333326,-0.20904458066667161,-0.6941556393333203
-7.9899706999999935,-0.30159867000000495,0.014361841000013253
-7.9899706999999935,-0.301598670000005,0.014361841000013253
-7.93890636666666,-0.5760693800000051,0.14840569400001327
-7.8878420333333255,-0.8505400900000052,0.2824495470000133
-7.836777699999992,-1.1250108000000052,0.4164934000000133
-7.836777699999992,-1.1250108000000052,0.4164934000000133
-7.836777699999992,-1.1250108000000052,0.4164934000000133
-8.583593466666658,-1.0516058466666716,-0.5824523999999868
-9.330409233333326,-0.9782008933333382,-1.581398199999987
-10.077224999999991,-0.9047959400000049,-2.5803439999999873
-9.336792333333326,-1.4345882933333385,-1.6867183733333204
-8.59635966666666,-1.9643806466666718,-0.7930927466666535
-7.855926999999994,-2.4941730000000053,0.10053288000001315
-7.855926999999994,-2.4941730000000053,0.10053288000001315
-7.319751599999994,-2.6250253333333387,0.2792580066666798
-6.783576199999994,-2.755877666666672,0.45798313333334645
-6.247400799999994,-2.8867300000000053,0.6367082600000132
-6.247400799999994,-2.8867300000000053,0.6367082600000132
-6.247400799999994,-2.8867300000000053,0.6367082600000132
-7.472944533333327,-3.030348400000005,0.27287496000001316
-8.69848826666666,-3.1739668000000054,-0.09095833999998683
-9.924031999999995,-3.3175852000000052,-0.4547916399999868
-11.685750999999996,-3.355883433333339,-0.7579860599999869
-13.447469999999996,-3.394181666666672,-1.0611804799999869
-15.209188999999995,-3.432479900000006,-1.3643748999999872
-15.209188999999995,-3.432479900000006,-1.3643748999999872
-15.209188999999995,-3.432479900000006,-1.3643748999999872
-14.599608666666661,-3.550566133333339,-1.1250108833333206
-13.990028333333328,-3.668652366666672,-0.8856468666666539
-13.380447999999994,-3.786738600000005,-0.6462828499999872
-12.863421999999995,-3.668652366666672,-0.8569231666666539
-12.346395999999993,-3.550566133333339,-1.0675634833333205
-11.829369999999992,-3.432479900000006,-1.2782037999999871
-11.829369999999992,-3.432479900000006,-1.278203799999987
-11.679368333333324,-3.106944833333339,-1.7058675333333202
-11.529366666666656,-2.781409766666673,-2.1335312666666533
-11.379364999999988,-2.455874700000006,-2.561194999999987
-11.379364999999988,-2.455874700000006,-2.561194999999987
-11.36979033333332,-2.385661300000006,-2.3505546666666532
-11.360215666666654,-2.315447900000006,-2.1399143333333197
-11.350640999999989,-2.245234500000006,-1.9292739999999864
-11.35064099999999,-2.245234500000006,-1.9292739999999864
-9.984670466666659,-2.2037447333333393,-1.6292710999999869
-8.618699933333327,-2.1622549666666724,-1.329268199999987
-7.2527293999999936,-2.120765200000005,-1.029265299999987
-7.252729399999995,-2.120765200000005,-1.029265299999987
-6.869746933333327,-2.066509333333338,-1.1154363333333204
-6.486764466666659,-2.0122534666666714,-1.2016073666666538
-6.103781999999991,-1.9579976000000048,-1.287778399999987
-6.103781999999991,-1.9579976000000048,-1.287778399999987
-7.23357999999999,-1.8718265666666714,-1.3356511999999867
-8.363377999999992,-1.785655533333338,-1.3835239999999864
-9.493175999999993,-1.6994845000000047,-1.4313967999999864
-9.493175999999993,-1.6994845000000047,-1.4313967999999864
-11.38574766666666,-1.4441628866666711,-1.622887966666653
-13.278319333333327,-1.1888412733333378,-1.8143791333333195
-15.170890999999992,-0.9335196600000043,-2.005870299999986
-15.170890999999992,-0.9335196600000043,-2.005870299999986
-14.337903999999995,-0.8569231633333376,-1.6611861666666528
-13.504916999999997,-0.7803266666666709,-1.3165020333333193
-12.671929999999998,-0.7037301700000044,-0.9718178999999858
-12.671929999999998,-0.7037301700000044,-0.9718178999999858
-11.529365999999996,-0.745219946666671,-0.7005386833333191
-10.386801999999994,-0.7867097233333378,-0.4292594666666525
-9.244237999999994,-0.8281995000000045,-0.15798024999998583
-9.244237999999994,-0.8281995000000045,-0.15798024999998586
-8.883596166666662,-0.7707521333333377,-0.33351386666665245
-8.52295433333333,-0.713304766666671,-0.5090474833333191
-8.162312499999997,-0.6558574000000043,-0.6845810999999857
-8.162312499999999,-0.6558574000000043,-0.6845810999999857
-8.765509999999999,-1.1345854333333374,-0.7452199666666525
-9.3687075,-1.6133134666666706,-0.8058588333333191
-9.971905,-2.092041500000004,-0.8664976999999858
-9.971905,-2.092041500000004,-0.8664976999999858
-9.1070029,-2.0537432333333374,-0.5984100146666526
-8.242100800000001,-2.0154449666666707,-0.33032232933331923
-7.377198700000001,-1.977146700000004,-0.06223464399998594
-7.377198700000001,-1.977146700000004,-0.06223464399998594
-7.0261314666666665,-2.494172933333337,0.2537258373333474
-6.675064233333333,-3.0111991666666706,0.5696863186666808
-6.3239969999999985,-3.5282254000000037,0.8856468000000142
-6.3239969999999985,-3.5282254000000037,0.8856468000000142
-7.635711999999998,-3.5984389000000037,0.7164962466666808
-8.947426999999998,-3.668652400000004,0.5473456933333475
-10.259141999999999,-3.738865900000004,0.3781951400000141
-10.259142,-3.738865900000004,0.3781951400000141
-11.720858000000002,-3.6654609333333372,-0.07180920666665258
-13.182574000000002,-3.5920559666666705,-0.5218135533333191
-14.644290000000003,-3.5186510000000037,-0.9718178999999858
-14.644290000000003,-3.5186510000000037,-0.9718178999999858
-14.803866000000005,-3.23779726666667,-1.290969933333319
-14.963442000000006,-2.956943533333337,-1.6101219666666526
-15.123018000000007,-2.6760898000000033,-1.929273999999986
-15.123018000000007,-2.6760898000000033,-1.929273999999986
-14.127264000000006,-2.9346028666666704,-1.6867184333333192
-13.131510000000006,-3.193115933333337,-1.4441628666666524
-12.135756000000006,-3.451629000000004,-1.2016072999999856
-12.135756000000006,-3.451629000000004,-1.2016072999999858
-11.503834666666672,-3.2377971666666703,-1.6260795333333193
-10.871913333333339,-3.0239653333333365,-2.050551766666653
-10.239992000000006,-2.8101335000000027,-2.475023999999986
-10.239992000000006,-2.8101335000000027,-2.475023999999986
-10.948509666666672,-2.685664200000003,-2.4016189999999864
-11.657027333333337,-2.5611949000000025,-2.3282139999999862
-12.365545000000003,-2.436725600000002,-2.2548089999999865
-12.365545000000003,-2.436725600000002,-2.254808999999987
-11.35702466666667,-2.248425900000002,-1.9165078666666535
-10.348504333333338,-2.0601262000000022,-1.5782067333333203
-9.339984000000007,-1.8718265000000025,-1.239905599999987
-9.339984000000007,-1.8718265000000025,-1.239905599999987
-8.672956200000007,-1.8016130666666692,-1.1313939133333204
-8.005928400000007,-1.731399633333336,-1.0228822266666537
-7.338900600000007,-1.6611862000000028,-0.9143705399999872
-7.338900600000007,-1.6611862000000028,-0.9143705399999872
-7.961247066666673,-1.5590575666666693,-0.9207535799999871
-8.58359353333334,-1.4569289333333357,-0.927136619999987
-9.205940000000009,-1.3548003000000024,-0.933519659999987
-9.20594000000001,-1.3548003000000024,-0.933519659999987
-9.847435333333344,-1.1984158000000023,-0.866497739999987
-10.488930666666677,-1.0420313000000023,-0.7994758199999872
-11.130426000000012,-0.8856468000000023,-0.7324538999999873
-11.130426000000012,-0.8856468000000023,-0.7324538999999873
-10.916594333333345,-0.805858816666669,-0.44840859666665395
-10.702762666666679,-0.7260708333333357,-0.16436329333332056
-10.488931000000013,-0.6462828500000023,0.11968201000001281
-10.488931000000013,-0.6462828500000023,0.11968201000001281
-10.208077333333344,-0.6622404433333356,0.29840714000001284
-9.927223666666677,-0.678198036666669,0.47713227000001285
-9.64637000000001,-0.6941556300000024,0.6558574000000128
-9.64637000000001,-0.6941556300000024,0.6558574000000128
-9.691051333333343,-0.7388369200000025,0.3750036200000128
-9.735732666666678,-0.7835182100000025,0.09414984000001277
-9.780414000000013,-0.8281995000000025,-0.18670393999998725
-9.780414000000013,-0.8281995000000025,-0.18670393999998725
-10.871913833333345,-1.2239480000000025,-0.7962842933333206
-11.963413666666677,-1.6196965000000023,-1.405864646666654
-13.05491350000001,-2.015445000000002,-2.0154449999999877
-13.05491350000001,-2.015445000000002,-2.0154449999999877
-11.992137333333345,-2.309064866666669,-1.9260823999999879
-10.929361166666679,-2.602684733333336,-1.8367197999999878
-9.866585000000013,-2.896304600000003,-1.747357199999988
-9.866585000000013,-2.896304600000003,-1.747357199999988
-9.866585000000013,-2.896304600000003,-1.747357199999988
-8.746361233333346,-3.1612007333333363,-1.3260765666666545
-7.6261374666666795,-3.42609686666667,-0.9047959333333212
-6.505913700000012,-3.690993000000003,-0.4835152999999879
-6.8250658000000115,-3.71971666666667,-0.8888383666666546
-7.144217900000011,-3.7484403333333365,-1.2941614333333213
-7.463370000000009,-3.777164000000003,-1.699484499999988
-7.463370000000009,-3.777164000000004,-1.699484499999988
-9.094236666666676,-3.6686523333333376,-1.9196993333333214
-10.725103333333344,-3.5601406666666713,-2.139914166666655
-12.355970000000012,-3.4516290000000054,-2.360128999999988
-12.355970000000012,-3.4516290000000054,-2.360128999999988
-12.572993333333343,-3.435671366666672,-2.114381999999988
-12.790016666666679,-3.4197137333333387,-1.8686349999999876
-13.007040000000012,-3.4037561000000056,-1.6228879999999872
-13.007040000000012,-3.4037561000000056,-1.6228879999999872
-12.365544666666679,-3.375032466666672,-1.0739465326666537
-11.724049333333346,-3.3463088333333384,-0.5250050653333204
-11.08255400000001,-3.317585200000005,0.02393640200001294
-11.08255400000001,-3.317585200000005,0.02393640200001294
-11.08255400000001,-3.317585200000005,0.02393640200001294
-11.203831666666678,-3.126094000000005,-0.19308696533332037
-11.325109333333344,-2.9346028000000053,-0.4101103326666536
-11.44638700000001,-2.7431116000000055,-0.6271336999999869
-13.377257000000009,-2.190978600000005,-0.3781951299999869
-15.308127000000008,-1.6388456000000051,-0.12925655999998695
-17.23899700000001,-1.0867126000000051,0.11968201000001304
-17.23899700000001,-1.086712600000005,0.11968201000001304
-16.003878333333343,-0.2984071333333383,0.39415274000001305
-14.768759666666677,0.4898983333333284,0.668623470000013
-13.533641000000012,1.278203799999995,0.943094200000013
-13.533641000000012,1.278203799999995,0.943094200000013
-13.533641000000012,1.278203799999995,0.943094200000013
-9.994245233333347,-1.0164991333333384,0.21223610000001294
-6.454849466666679,-3.3112020666666715,-0.5186219999999871
-2.9154537000000125,-5.605905000000004,-1.249480099999987
-4.2718498000000125,-3.4548204666666713,-0.33670533333332037
-5.628245900000013,-1.303735933333338,0.5760694333333464
-6.9846420000000125,0.8473485999999953,1.488844200000013
-6.9846420000000125,0.8473485999999953,1.488844200000013
-6.9846420000000125,0.8473485999999953,1.488844200000013
-6.068675666666679,-0.0015957666666712722,1.4856526666666798
-5.152709333333346,-0.8505401333333379,1.4824611333333466
-4.236743000000012,-1.6994845000000047,1.4792696000000134
-4.236743000000012,-1.6994845000000047,1.4792696000000134
-4.358020800000013,-2.181404066666671,0.8952214066666798
-4.479298600000013,-2.6633236333333374,0.31117321333334647
-4.600576400000013,-3.1452432000000035,-0.2728749799999869
-4.600576400000013,-3.1452432000000035,-0.2728749799999869
-4.600576400000013,-3.1452432000000035,-0.2728749799999869
-4.600576400000013,-3.1452432000000035,-0.2728749799999869
-4.600576400000013,-3.1452432000000035,-0.2728749799999869
-6.643149266666679,-3.4324800333333374,-0.949477219999987
-8.685722133333345,-3.719716866666671,-1.626079459999987
-10.72829500000001,-4.006953700000005,-2.302681699999987
-10.728295000000008,-4.006953700000005,-2.3026816999999866
-11.079362333333341,-3.655886400000005,-2.139914199999986
-11.430429666666674,-3.3048191000000045,-1.9771466999999856
-11.781497000000007,-2.953751800000004,-1.8143791999999859
-11.781497000000007,-2.953751800000004,-1.8143791999999859
-12.91448666666667,-3.1069448000000044,-2.3058732999999854
-14.047476333333336,-3.2601378000000047,-2.797367399999986
-15.180466000000001,-3.4133308000000055,-3.2888614999999857
-15.180466000000001,-3.4133308000000055,-3.2888614999999857
-12.601717500000001,-3.221839600000005,-2.9314112666666525
-10.022969000000002,-3.0303484000000047,-2.5739610333333194
-7.444220500000004,-2.8388572000000045,-2.2165107999999862
-7.444220500000004,-2.8388572000000045,-2.2165107999999862
-7.444220500000004,-2.8388572000000045,-2.2165107999999862
-7.112302433333337,-2.803750466666671,-1.97076373333332
-6.78038436666667,-2.768643733333338,-1.7250166666666533
-6.448466300000003,-2.733537000000005,-1.4792695999999868
-7.2463465333333374,-2.733537000000005,-1.5845897333333199
-8.04422676666667,-2.733537000000005,-1.6899098666666532
-8.842107000000004,-2.733537000000005,-1.7952299999999866
-8.842107000000004,-2.733537000000005,-1.7952299999999866
-9.253813000000003,-3.100561800000005,-2.0122534333333197
-9.665519000000003,-3.4675866000000046,-2.229276866666653
-10.077225000000004,-3.834611400000005,-2.4463002999999865
-10.077225000000004,-3.834611400000005,-2.446300299999987
-10.077225000000004,-3.834611400000005,-2.446300299999987
-10.249567000000004,-4.032485600000005,-2.261192099999987
-10.421909000000005,-4.230359800000005,-2.0760838999999867
-10.594251000000005,-4.428234000000004,-1.8909756999999863
-11.191065333333336,-4.750577533333338,-1.8750180999999861
-11.787879666666669,-5.072921066666672,-1.859060499999986
-12.384694000000001,-5.395264600000005,-1.8431028999999859
-12.384694000000001,-5.395264600000007,-1.8431028999999859
-12.384694000000001,-5.395264600000007,-1.8431028999999859
-12.02086066666667,-5.133560066666674,-1.6260795333333196
-11.657027333333337,-4.871855533333341,-1.4090561666666528
-11.293194000000005,-4.610151000000008,-1.1920327999999862
-13.319809333333339,-3.7963133333333414,-1.2430970999999862
-15.346424666666673,-2.9824756666666747,-1.2941613999999861
-17.373040000000007,-2.168638000000008,-1.345225699999986
-17.373040000000007,-2.168638000000008,-1.345225699999986
-15.493234500000009,-2.194170166666675,-0.7228792666666527
-13.61342900000001,-2.2197023333333417,-0.10053283333331937
-11.733623500000013,-2.245234500000009,0.521813600000014
-11.733623500000013,-2.245234500000009,0.5218136000000139
-10.970850333333345,-2.0665093333333417,0.35904605333334727
-10.208077166666678,-1.887784166666675,0.19627850666668065
-9.445304000000013,-1.709059000000008,0.03351096000001397
-9.445304000000013,-1.709059000000008,0.03351096000001397
-8.941043766666679,-1.3196935466666748,0.13563960666668065
-8.436783533333346,-0.9303280933333417,0.2377682533333473
-7.932523300000011,-0.5409626400000083,0.339896900000014
-7.932523300000011,-0.5409626400000084,0.339896900000014
-8.171887533333345,-0.6111760933333418,0.09095832666668063
-8.411251766666679,-0.6813895466666752,-0.1579802466666527
-8.650616000000012,-0.7516030000000086,-0.406918819999986
-8.650616000000012,-0.7516030000000086,-0.406918819999986
-9.068704666666678,-1.1377769333333418,-0.46117466333331936
-9.486793333333345,-1.5239508666666752,-0.5154305066666527
-9.904882000000013,-1.9101248000000084,-0.5696863499999861
-9.904882000000013,-1.9101248000000084,-0.5696863499999861
-10.689996000000013,-1.9260824000000085,-1.1473514666666529
-11.475110000000013,-1.9420400000000086,-1.7250165833333195
-12.260224000000013,-1.9579976000000088,-2.3026816999999866
-12.260224000000013,-1.9579976000000088,-2.3026816999999866
-12.129372000000012,-1.8750180666666754,-2.548428799999986
-11.998520000000013,-1.7920385333333417,-2.794175899999986
-11.867668000000014,-1.709059000000008,-3.0399229999999857
-11.867668000000014,-1.709059000000008,-3.0399229999999857
-12.69427166666668,-2.197361666666675,-3.4005646666666522
-13.520875333333345,-2.6856643333333423,-3.761206333333319
-14.347479000000012,-3.1739670000000095,-4.121847999999986
-14.347479000000012,-3.1739670000000095,-4.121847999999986
-12.892146000000011,-3.2250312000000094,-3.295244399999986
-11.43681300000001,-3.2760954000000098,-2.4686407999999864
-9.98148000000001,-3.32715960000001,-1.6420371999999865
-9.98148000000001,-3.32715960000001,-1.6420371999999865
-9.119769333333345,-3.2409886333333433,-1.0484144266666533
-8.258058666666678,-3.154817666666677,-0.45479165333332
-7.39634800000001,-3.0686467000000106,0.1388311200000134
-7.39634800000001,-3.0686467000000106,0.1388311200000134
-7.878267666666677,-3.234605733333344,-0.21223609999998658
-8.360187333333345,-3.4005647666666774,-0.5633033199999866
-8.842107000000011,-3.566523800000011,-0.9143705399999865
-8.842107000000013,-3.566523800000011,-0.9143705399999865
-9.505943000000014,-3.9431232000000107,-0.9590517933333199
-10.169779000000014,-4.31972260000001,-1.0037330466666532
-10.833615000000016,-4.69632200000001,-1.0484142999999866
-10.833615000000016,-4.69632200000001,-1.0484142999999866
-10.651698666666682,-4.763343833333343,-1.0803295333333198
-10.469782333333349,-4.830365666666675,-1.1122447666666533
-10.287866000000015,-4.897387500000009,-1.1441599999999867
-10.287866000000015,-4.897387500000008,-1.1441599999999867
-11.140001666666683,-4.642066000000008,-1.3611833333333199
-11.992137333333348,-4.386744500000009,-1.5782066666666532
-12.844273000000015,-4.131423000000009,-1.7952299999999866
-12.844273000000015,-4.131423000000009,-1.7952299999999866
-12.959167666666682,-3.821845466666675,-2.0537431666666532
-13.07406233333335,-3.512267933333341,-2.3122563333333197
-13.188957000000016,-3.202690400000007,-2.5707694999999866
-13.188957000000016,-3.202690400000007,-2.570769499999987
-13.188957000000016,-3.202690400000007,-2.570769499999987
-14.321947000000016,-2.925028200000007,-2.925028199999987
-15.454937000000015,-2.647366000000007,-3.279286899999987
-16.587927000000015,-2.369703800000007,-3.6335455999999873
-14.66663133333335,-2.2101277666666737,-2.9441772999999873
-12.745335666666683,-2.0505517333333407,-2.2548089999999874
-10.824040000000018,-1.8909757000000074,-1.5654406999999875
-10.82404000000002,-1.8909757000000074,-1.5654406999999875
-9.898499333333353,-1.8526774666666739,-1.4952272333333207
-8.972958666666687,-1.8143792333333402,-1.4250137666666542
-8.047418000000018,-1.7760810000000067,-1.3548002999999875
-8.047418000000016,-1.7760810000000067,-1.3548002999999875
-8.047418000000016,-1.7760810000000067,-1.3548002999999875
-8.82295733333335,-1.6069304333333398,-1.3962900666666542
-9.598496666666684,-1.4377798666666728,-1.4377798333333212
-10.374036000000016,-1.2686293000000062,-1.4792695999999879
-11.047446666666682,-0.9367111933333394,-1.6133134666666544
-11.720857333333347,-0.6047930866666728,-1.747357333333321
-12.394268000000011,-0.2728749800000061,-1.8814011999999876
-12.394268000000011,-0.27287498000000604,-1.8814011999999876
-12.394268000000011,-0.27287498000000604,-1.8814011999999876
-11.637877666666677,-0.18670393366667273,-1.7218251666666544
-10.881487333333345,-0.10053288733333943,-1.562249133333321
-10.12509700000001,-0.014361841000006093,-1.402673099999988
-10.12509700000001,-0.014361841000006093,-1.4026730999999881
-9.343174766666676,-0.5250050606666729,-0.9430942006666551
-8.561252533333343,-1.0356482803333396,-0.4835153013333217
-7.779330300000011,-1.5462915000000061,-0.023936401999988366
-7.779330300000012,-1.546291500000006,-0.023936401999988366
-8.468698533333347,-1.5526745666666724,-0.2696834479999884
-9.158066766666684,-1.5590576333333388,-0.5154304939999884
-9.847435000000019,-1.5654407000000052,-0.7611775399999886
-9.84743500000002,-1.5654407000000052,-0.7611775399999884
-9.802753666666685,-1.6675693000000054,-0.7388369033333216
-9.75807233333335,-1.7696979000000053,-0.7164962666666549
-9.713391000000017,-1.8718265000000054,-0.6941556299999881
-9.713391000000016,-1.8718265000000054,-0.6941556299999881
-9.572964000000015,-2.187787000000005,-0.5122389833333215
-9.432537000000016,-2.5037475000000056,-0.33032233666665484
-9.292110000000015,-2.8197080000000057,-0.14840568999998816
-9.292110000000015,-2.8197080000000057,-0.14840568999998816
-10.616591000000016,-3.394181666666672,-0.15798024999998816
-11.941072000000018,-3.968655333333339,-0.16755480999998815
-13.265553000000018,-4.543129000000006,-0.1771293699999881
-13.26555300000002,-4.543129000000005,-0.17712936999998807
-13.520874666666685,-5.146326233333338,-0.23457672999998805
-13.77619633333335,-5.749523466666671,-0.292024089999988
-14.031518000000014,-6.352720700000003,-0.349471449999988
-14.031518000000014,-6.352720700000003,-0.349471449999988
-13.840027000000015,-4.658023566666671,-0.5313880999999879
-13.648536000000016,-2.963326433333338,-0.7133047499999879
-13.457045000000017,-1.268629300000005,-0.8952213999999881
-13.457045000000017,-1.268629300000005,-0.8952213999999881
-13.032572666666683,-2.535662866666672,-1.0420313333333213
-12.608100333333349,-3.802696433333338,-1.1888412666666546
-12.183628000000015,-5.069730000000004,-1.3356511999999878
-12.183628000000015,-5.069730000000004,-1.3356511999999878
-11.558090000000016,-4.670789933333338,-1.7601233666666547
-10.932552000000017,-4.27184986666667,-2.1845955333333213
-10.307014000000018,-3.8729098000000035,-2.6090676999999878
-10.307014000000018,-3.8729098000000035,-2.6090676999999878
-10.50808000000002,-3.59843906666667,-2.519705133333321
-10.709146000000018,-3.3239683333333367,-2.430342566666654
-10.910212000000017,-3.0494976000000036,-2.340979999999987
-10.910212000000017,-3.0494976000000036,-2.340979999999987
-10.118715000000018,-2.775026800000003,-2.0792753666666535
-9.327218000000018,-2.500556000000003,-1.8175707333333202
-8.535721000000018,-2.226085200000003,-1.555866099999987
-8.535721000000018,-2.226085200000003,-1.555866099999987
-8.455932666666685,-2.1239565666666693,-1.57820673333332
-8.37614433333335,-2.021827933333336,-1.6005473666666534
-8.296356000000015,-1.9196993000000024,-1.622887999999987
-9.295302000000015,-1.906933266666669,-1.58139823333332
-10.294248000000016,-1.8941672333333355,-1.5399084666666536
-11.293194000000014,-1.881401200000002,-1.4984186999999871
-11.293194000000014,-1.881401200000002,-1.4984186999999871
-11.293194000000014,-1.881401200000002,-1.4984186999999871
-12.675122333333348,-1.677143900000002,-1.5686321333333204
-14.057050666666683,-1.4728866000000018,-1.6388455666666537
-15.438979000000018,-1.2686293000000017,-1.7090589999999868
-14.417692333333349,-1.1441600000000018,-1.5079932666666533
-13.39640566666668,-1.0196907000000017,-1.30692753333332
-12.375119000000012,-0.8952214000000017,-1.1058617999999865
-12.375119000000012,-0.8952214000000017,-1.1058617999999865
-10.504888333333346,-0.805858833333335,-0.614367676666653
-8.634657666666678,-0.7164962666666682,-0.12287355333331969
-6.764427000000012,-0.6271337000000016,0.36862057000001364
-6.764427000000012,-0.6271337000000016,0.36862057000001364
-6.764427000000012,-0.6271337000000016,0.36862057000001364
-7.176133000000011,-0.8856468333333348,0.13244808000001365
-7.5878390000000095,-1.144159966666668,-0.10372440999998635
-7.999545000000008,-1.4026731000000012,-0.33989689999998635
-8.274015666666676,-1.654803166666668,-0.6686234666666532
-8.548486333333344,-1.9069332333333346,-0.99735003333332
-8.822957000000011,-2.1590633000000015,-1.3260765999999866
-8.822957000000011,-2.1590633000000015,-1.3260765999999864
-8.242100533333344,-2.2228937666666684,-0.7484114599999865
-7.661244066666678,-2.286724233333335,-0.17074631999998643
-7.080387600000011,-2.3505547000000018,0.4069188200000136
-7.080387600000011,-2.3505547000000018,0.4069188200000136
-8.021885733333345,-2.778218333333335,0.41968490333334696
-8.963383866666678,-3.2058819666666682,0.4324509866666803
-9.904882000000013,-3.6335456000000015,0.4452170700000136
-9.904882000000015,-3.6335456000000015,0.4452170700000136
-11.854901000000014,-3.923974066666668,0.043085533333346936
-13.804920000000015,-4.214402533333334,-0.35904600333331976
-15.754939000000014,-4.504831,-0.7611775399999864
-15.754939000000014,-4.504830999999999,-0.7611775399999864
-14.800674666666682,-4.405893766666666,-0.726070826666653
-13.84641033333335,-4.3069565333333335,-0.6909641133333198
-12.892146000000018,-4.2080193,-0.6558573999999864
-12.89214600000002,-4.2080193,-0.6558573999999865
-12.802783333333352,-3.8378029999999996,-0.7388369133333198
-12.713420666666684,-3.4675866999999996,-0.8218164266666532
-12.624058000000014,-3.097370399999999,-0.9047959399999866
-12.624058000000014,-3.097370399999999,-0.9047959399999866
-11.625112000000016,-3.662269433333332,-1.1473514599999866
-10.626166000000017,-4.227168466666665,-1.3899069799999868
-9.627220000000017,-4.792067499999998,-1.6324624999999868
-9.627220000000017,-4.792067499999997,-1.6324624999999868
-11.01553133333335,-4.179295599999998,-2.2516174333333203
-12.403842666666684,-3.566523699999998,-2.8707723666666545
-13.792154000000018,-2.9537517999999987,-3.4899272999999873
-13.79215400000002,-2.953751799999999,-3.4899272999999873
-13.169807666666685,-2.8324740666666663,-2.963326466666654
-12.54746133333335,-2.7111963333333335,-2.436725633333321
-11.925115000000014,-2.5899186000000003,-1.9101247999999877
-11.925115000000014,-2.5899186000000003,-1.9101247999999877
-10.913403000000015,-2.369703733333333,-1.7282081666666542
-9.901691000000014,-2.149488866666666,-1.5462915333333207
-8.889979000000013,-1.9292739999999988,-1.3643748999999872
-8.889979000000013,-1.9292739999999988,-1.3643748999999872
-9.030406000000013,-1.795230133333332,-1.4250137666666542
-9.170833000000016,-1.6611862666666652,-1.485652633333321
-9.311260000000019,-1.5271423999999982,-1.5462914999999882
-9.31126000000002,-1.5271423999999982,-1.5462914999999882
-10.632549333333353,-1.1920327999999982,-1.5367169666666545
-11.953838666666684,-0.8569231999999983,-1.5271424333333208
-13.275128000000018,-0.5218135999999982,-1.517567899999987
-13.275128000000018,-0.5218135999999982,-1.517567899999987
-12.793208666666684,-0.5377711833333315,-1.4569289999999873
-12.31128933333335,-0.5537287666666647,-1.3962900999999874
-11.829370000000019,-0.569686349999998,-1.3356511999999876
-11.82937000000002,-0.5696863499999979,-1.3356511999999876
-10.415526333333355,-0.576069399999998,-1.032456783333321
-9.001682666666687,-0.582452449999998,-0.7292623666666543
-7.58783900000002,-0.588835499999998,-0.4260679499999878
-7.58783900000002,-0.588835499999998,-0.4260679499999878
-7.747415000000021,-0.7388369333333312,-0.5792608999999879
-7.90699100000002,-0.8888383666666645,-0.7324538499999879
-8.06656700000002,-1.0388397999999979,-0.8856467999999879
-8.06656700000002,-1.0388397999999979,-0.8856467999999879
-8.982533333333352,-1.3292681333333312,-1.042031299999988
-9.898499666666687,-1.6196964666666647,-1.1984157999999878
-10.814466000000023,-1.9101247999999982,-1.3548002999999877
-10.814466000000024,-1.9101247999999982,-1.3548002999999877
-10.667656000000028,-1.9611891333333313,-1.1888412533333212
-10.520846000000029,-2.0122534666666647,-1.0228822066666545
-10.374036000000029,-2.0633177999999983,-0.8569231599999879
-10.374036000000029,-2.0633177999999983,-0.8569231599999879
-10.17616200000003,-2.548428866666665,-0.7516029866666546
-9.978288000000031,-3.0335399333333317,-0.6462828133333213
-9.780414000000032,-3.5186509999999984,-0.540962639999988
-9.780414000000034,-3.5186509999999984,-0.540962639999988
-10.741061333333368,-3.9016333999999984,-0.5186220033333212
-11.701708666666702,-4.284615799999999,-0.4962813666666544
-12.662356000000036,-4.6675982,-0.47394072999998776
-12.662356000000036,-4.6675982000000005,-0.47394072999998776
-12.614483333333368,-4.673981333333334,-0.4867068199999877
-12.5666106666667,-4.680364466666667,-0.49947290999998767
-12.518738000000033,-4.6867476,-0.5122389999999876
-12.518738000000033,-4.6867476,-0.5122389999999876
-13.0772536666667,-4.1952533999999995,-0.8313909999999876
-13.635769333333366,-3.7037592,-1.1505429999999874
-14.194285000000034,-3.212265,-1.4696949999999873
-14.194285000000034,-3.212265,-1.4696949999999873
-13.077253000000034,-3.6590778,-1.431396766666654
-11.960221000000034,-4.1058905999999995,-1.3930985333333208
-10.843189000000036,-4.5527033999999995,-1.3548002999999875
-11.966604333333366,-4.089932999999999,-1.9260824333333206
-13.090019666666699,-3.627162599999999,-2.4973645666666537
-14.21343500000003,-3.1643921999999987,-3.0686466999999866
-14.213435000000027,-3.1643921999999987,-3.0686466999999866
-14.213435000000027,-3.1643921999999987,-3.0686466999999866
-13.607046000000025,-2.829282566666665,-2.7941759666666535
-13.000657000000023,-2.494172933333332,-2.5197052333333203
-12.39426800000002,-2.1590632999999984,-2.2452344999999867
-12.39426800000002,-2.1590632999999984,-2.2452344999999867
-11.072979000000023,-2.037785533333332,-1.9196994333333202
-9.751690000000023,-1.9165077666666654,-1.5941643666666536
-8.430401000000023,-1.795229999999999,-1.2686292999999869
-8.912320333333357,-1.5654405999999987,-1.3516088333333203
-9.394239666666689,-1.3356511999999985,-1.4345883666666535
-9.87615900000002,-1.1058617999999985,-1.5175678999999869
-9.87615900000002,-1.1058617999999982,-1.5175678999999869
-9.87615900000002,-1.1058617999999982,-1.5175678999999869
-10.511271666666687,-0.9079875333333316,-1.5079933333333202
-11.146384333333353,-0.710113266666665,-1.4984187666666537
-11.781497000000021,-0.5122389999999983,-1.4888441999999873
-11.781497000000021,-0.5122389999999983,-1.4888441999999873
-11.369790666666688,-0.5281965866666649,-1.3069275333333206
-10.958084333333355,-0.5441541733333315,-1.1250108666666538
-10.546378000000024,-0.5601117599999981,-0.9430941999999872
-10.546378000000024,-0.5601117599999981,-0.9430941999999872
-10.211268666666692,-0.6750064866666649,-0.7611775533333206
-9.876159333333359,-0.7899012133333315,-0.579260906666654
-9.541050000000025,-0.9047959399999983,-0.3973442599999874
-9.541050000000027,-0.9047959399999983,-0.3973442599999874
-9.416580666666695,-1.0292652266666649,-0.3941527399999874
-9.292111333333361,-1.1537345133333317,-0.39096121999998745
-9.16764200000003,-1.278203799999998,-0.3877696999999875
-9.955947333333363,-1.4569289333333313,-0.7994757999999876
-10.744252666666696,-1.6356540666666648,-1.211181899999988
-11.53255800000003,-1.8143791999999983,-1.622887999999988
-11.53255800000003,-1.8143791999999983,-1.622887999999988
-11.098511333333363,-1.9899127999999981,-1.568632133333321
-10.664464666666696,-2.165446399999998,-1.5143762666666543
-10.230418000000029,-2.3409799999999987,-1.4601203999999874
-10.230418000000029,-2.3409799999999987,-1.4601203999999874
-9.75807300000003,-2.8739638666666654,-1.0611804066666541
-9.285728000000029,-3.406947733333332,-0.6622404133333207
-8.81338300000003,-3.939931599999998,-0.2633004199999875
-8.81338300000003,-3.939931599999998,-0.2633004199999875
-9.422963333333364,-4.093124533333332,-0.48989834666665416
-10.032543666666697,-4.246317466666666,-0.7164962733333207
-10.642124000000031,-4.3995104,-0.9430941999999872
-10.642124000000031,-4.3995104000000005,-0.9430941999999872
-11.388939666666696,-4.393127466666667,-1.1569260333333207
-12.135755333333362,-4.386744533333334,-1.370757866666654
-12.882571000000027,-4.3803616000000005,-1.5845896999999871
-12.882571000000027,-4.3803616000000005,-1.584589699999987
-12.991082666666694,-3.9909960666666664,-1.6771437999999865
-13.099594333333362,-3.6016305333333336,-1.7696978999999864
-13.20810600000003,-3.212265000000001,-1.8622519999999863
-13.20810600000003,-3.212265000000001,-1.8622519999999863
-12.82831500000003,-3.6909930000000006,-1.6165049333333197
-12.44852400000003,-4.169721,-1.3707578666666531
-12.06873300000003,-4.6484489999999985,-1.1250107999999865
-11.398514000000029,-4.259083533333332,-1.3930985333333197
-10.72829500000003,-3.8697180666666653,-1.6611862666666528
-10.058076000000028,-3.4803525999999985,-1.929273999999986
-10.058076000000028,-3.4803525999999985,-1.929273999999986
-10.058076000000028,-3.4803525999999985,-1.929273999999986
-11.752773000000028,-3.2026903999999985,-2.2069362333333196
-13.44747000000003,-2.9250281999999985,-2.4845984666666534
-15.142167000000029,-2.6473659999999986,-2.762260699999987
-15.142167000000029,-2.6473659999999986,-2.762260699999987
-14.787908500000029,-2.3888528333333316,-2.2675750666666534
-14.433650000000029,-2.1303396666666647,-1.7728894333333198
-14.079391500000028,-1.871826499999998,-1.2782037999999862
-14.079391500000028,-1.871826499999998,-1.2782037999999865
-12.563419333333362,-1.683526799999998,-0.9622433099999862
-11.047447166666695,-1.4952270999999981,-0.6462828199999863
-9.531475000000029,-1.3069273999999982,-0.33032232999998623
-8.261250000000027,-0.6750064333333313,-0.29202408666665286
-6.991025000000028,-0.043085466666664685,-0.25372584333331955
-5.720800000000028,0.588835500000002,-0.21542759999998617
-5.720800000000028,0.588835500000002,-0.21542759999998617
-5.934631866666694,0.14202266666666866,0.04308552000001381
-6.148463733333361,-0.30479016666666464,0.30159864000001374
-6.362295600000027,-0.751602999999998,0.5601117600000137
-6.362295600000027,-0.7516029999999979,0.5601117600000137
-7.600605400000027,-0.6430913166666646,0.17074630666668045
-8.838915200000027,-0.5345796333333313,-0.21861914666665286
-10.077225000000029,-0.4260679499999979,-0.6079845999999862
-10.077225000000029,-0.4260679499999979,-0.6079845999999862
-10.56233600000003,-0.7484114999999978,-0.5537287566666529
-11.047447000000032,-1.0707550499999978,-0.49947291333331956
-11.532558000000032,-1.3930985999999976,-0.4452170699999862
-11.532558000000032,-1.3930985999999976,-0.4452170699999862
-11.532558000000032,-1.3930985999999976,-0.4452170699999862
-11.976179333333365,-1.5462915666666646,-0.7356454133333195
-12.419800666666697,-1.6994845333333313,-1.026073756666653
-12.86342200000003,-1.852677499999998,-1.3165020999999861
-12.815549333333365,-1.9069333333333311,-1.5909728333333195
-12.767676666666697,-1.9611891666666643,-1.865443566666653
-12.71980400000003,-2.0154449999999975,-2.1399142999999863
-12.71980400000003,-2.0154449999999975,-2.139914299999986
-12.895337666666697,-2.2005531666666642,-2.4877899666666523
-13.070871333333363,-2.3856613333333314,-2.8356656333333183
-13.24640500000003,-2.5707694999999986,-3.1835412999999853
-13.24640500000003,-2.5707694999999986,-3.1835412999999853
-12.161288000000027,-2.701621833333332,-3.1548176666666516
-11.076171000000025,-2.8324741666666653,-3.1260940333333185
-9.991054000000025,-2.9633264999999986,-3.0973703999999853
-9.991054000000027,-2.9633264999999986,-3.097370399999986
-8.538912333333359,-3.0814127333333317,-2.4558747999999864
-7.086770666666692,-3.1994989666666647,-1.814379199999986
-5.634629000000025,-3.3175851999999977,-1.172883599999986
-5.634629000000025,-3.3175851999999977,-1.1728835999999858
-5.650586666666691,-3.1643921999999978,-1.3994815666666522
-5.666544333333358,-3.011199199999998,-1.626079533333319
-5.682502000000024,-2.858006199999998,-1.8526774999999855
-5.682502000000024,-2.858006199999998,-1.8526774999999855
-6.256975466666692,-2.826091033333331,-1.8143792333333189
-6.831448933333359,-2.7941758666666647,-1.7760809666666522
-7.405922400000026,-2.7622606999999983,-1.7377826999999855
-7.405922400000026,-2.7622606999999983,-1.7377826999999855
-7.7410319333333595,-2.800558899999998,-1.664377766666652
-8.076141466666693,-2.838857099999998,-1.5909728333333184
-8.411251000000023,-2.877155299999998,-1.5175678999999846
-8.411251000000023,-2.877155299999998,-1.5175678999999846
-8.749552333333357,-3.126093933333331,-1.4409713999999851
-9.08785366666669,-3.3750325666666643,-1.3643748999999854
-9.426155000000024,-3.6239711999999975,-1.2877783999999857
-9.426155000000024,-3.6239711999999975,-1.287778399999986
-10.75701866666669,-3.7771641333333306,-1.131393899999986
-12.087882333333356,-3.9303570666666636,-0.9750093999999859
-13.418746000000022,-4.083549999999996,-0.8186248999999859
-13.418746000000022,-4.083549999999996,-0.8186248999999859
-12.774059000000022,-3.7420573333333302,-0.6718149799999859
-12.129372000000023,-3.4005646666666642,-0.5250050599999857
-11.484685000000022,-3.0590719999999982,-0.37819513999998566
-11.484685000000022,-3.0590719999999982,-0.37819513999998566
-13.067679000000021,-3.0239652666666643,-0.26968345333331895
-14.65067300000002,-2.9888585333333304,-0.1611717666666523
-16.233667000000022,-2.953751799999997,-0.05266007999998564
-16.233667000000022,-2.953751799999997,-0.05266007999998564
-16.233667000000022,-2.953751799999997,-0.05266007999998564
-14.72407800000002,-2.692047199999996,0.6590488800000144
-13.21448900000002,-2.4303425999999964,1.3707578400000144
-11.704900000000018,-2.1686379999999965,2.0824668000000144
-11.232555333333352,-2.1143820999999967,1.5845897000000146
-10.760210666666685,-2.060126199999997,1.0867126000000147
-10.287866000000017,-2.0058702999999967,0.5888355000000146
-10.287866000000017,-2.0058702999999967,0.5888355000000146
-10.20488633333335,-1.5462914333333302,0.7420284333333479
-10.121906666666684,-1.0867125666666635,0.8952213666666813
-10.038927000000017,-0.6271336999999967,1.0484143000000146
-10.038927000000017,-0.6271336999999967,1.0484143000000146
-10.038927000000017,-0.6271336999999967,1.0484143000000146
-8.982533666666683,-0.5345796166666634,0.8154333500000147
-7.92614033333335,-0.4420255333333301,0.5824524000000147
-6.869747000000018,-0.34947144999999685,0.34947145000001484
-6.355912333333351,-0.7962842666666633,0.3622375333333481
-5.842077666666685,-1.24309708333333,0.37500361666668147
-5.328243000000018,-1.6899098999999962,0.3877697000000148
-5.328243000000018,-1.6899098999999957,0.3877697000000148
-5.992079100000018,-1.7920385333333293,0.19308697333334812
-6.655915200000018,-1.8941671666666628,-0.001595753333318554
-7.319751300000018,-1.9962957999999962,-0.19627847999998524
-7.319751300000018,-1.9962957999999962,-0.19627847999998524
-7.319751300000018,-1.9962957999999962,-0.19627847999998524
-9.011256866666685,-2.0441686333333298,-1.0611804533333185
-10.70276243333335,-2.0920414666666627,-1.926082426666652
-12.394268000000018,-2.1399142999999956,-2.790984399999985
-13.600663000000017,-2.3920443999999956,-2.9601349999999855
-14.807058000000017,-2.6441744999999957,-3.1292855999999865
-16.013453000000016,-2.8963045999999957,-3.298436199999987
-16.013453000000016,-2.8963045999999957,-3.298436199999987
-14.816632666666685,-2.7909843999999957,-3.247371866666653
-13.619812333333352,-2.6856641999999957,-3.1963075333333193
-12.42299200000002,-2.5803439999999953,-3.1452431999999853
-12.42299200000002,-2.5803439999999953,-3.1452431999999853
-12.42299200000002,-2.5803439999999953,-3.1452431999999853
-10.897445333333353,-2.7239623999999956,-2.5101306666666523
-9.371898666666688,-2.8675807999999954,-1.8750181333333191
-7.846352000000022,-3.011199199999995,-1.2399055999999857
-7.846352000000022,-3.011199199999995,-1.2399055999999857
-7.677201533333355,-3.004816199999995,-1.1058617466666523
-7.508051066666688,-2.998433199999995,-0.971817893333319
-7.338900600000021,-2.9920501999999947,-0.8377740399999857
-7.900608066666688,-3.1484346666666614,-1.0643719933333189
-8.462315533333355,-3.304819133333328,-1.290969946666652
-9.02402300000002,-3.4612035999999944,-1.517567899999985
-9.02402300000002,-3.461203599999994,-1.517567899999985
-10.010202666666686,-3.62397116666666,-1.6101219333333185
-10.996382333333353,-3.7867387333333262,-1.702675966666652
-11.982562000000021,-3.9495062999999924,-1.7952299999999857
-11.982562000000021,-3.9495062999999924,-1.7952299999999857
-11.982562000000021,-3.9495062999999924,-1.7952299999999857
-12.869804666666687,-3.9941875333333257,-1.8367197666666524
-13.757047333333352,-4.038868766666659,-1.8782095333333189
-14.644290000000018,-4.083549999999992,-1.9196992999999853
-13.188957000000016,-4.185678666666658,-1.6548031333333189
-11.733624000000015,-4.287807333333325,-1.3899069666666524
-10.278291000000015,-4.389935999999992,-1.1250107999999857
-10.278291000000014,-4.389935999999992,-1.1250107999999859
-10.278291000000014,-4.389935999999992,-1.1250107999999859
-11.532558333333347,-4.201636333333326,-1.5048017333333192
-12.786825666666681,-4.01333666666666,-1.8845926666666528
-14.041093000000018,-3.8250369999999947,-2.264383599999986
-14.041093000000018,-3.8250369999999947,-2.264383599999986
-13.597471666666683,-3.346308933333328,-1.8941672666666527
-13.153850333333347,-2.867580866666662,-1.5239509333333192
-12.710229000000012,-2.3888527999999947,-1.153734599999986
-12.710229000000012,-2.3888527999999947,-1.153734599999986
-11.200640000000012,-2.1909785333333276,-0.6686235099999859
-9.69105100000001,-1.993104266666661,-0.1835124199999858
-8.18146200000001,-1.795229999999994,0.3015986700000142
-7.79528800000001,-1.6516116333333273,0.07500073333334757
-7.4091140000000095,-1.5079932666666604,-0.15159720333331908
-7.022940000000009,-1.3643748999999936,-0.3781951399999857
-7.022940000000009,-1.3643748999999936,-0.37819513999998583
-7.022940000000009,-1.3643748999999936,-0.37819513999998583
-7.865501333333342,-1.434588333333327,-0.4388340133333191
-8.708062666666676,-1.5048017666666602,-0.49947288666665246
-9.550624000000008,-1.5750151999999933,-0.5601117599999857
-9.550624000000008,-1.5750151999999933,-0.5601117599999857
-10.265524666666677,-1.41543916666666,-0.6654319399999858
-10.980425333333343,-1.2558631333333266,-0.7707521199999859
-11.69532600000001,-1.0962870999999934,-0.876072299999986
-11.443195666666677,-1.0579888799999932,-0.8664977333333194
-11.191065333333343,-1.0196906599999933,-0.8569231666666526
-10.93893500000001,-0.9813924399999933,-0.8473485999999858
-10.93893500000001,-0.9813924399999933,-0.8473485999999856
-10.93893500000001,-0.9813924399999933,-0.8473485999999856
-9.981479000000009,-1.2399055933333265,-0.6590489133333189
-9.024023000000009,-1.49841874666666,-0.47074922666665225
-8.066567000000008,-1.7569318999999932,-0.2824495399999856
-8.066567000000008,-1.7569318999999932,-0.2824495399999856
-8.886787666666676,-1.8782096666666597,-0.5760693933333189
-9.707008333333341,-1.9994874333333261,-0.8696892466666523
-10.527229000000007,-2.1207651999999935,-1.1633090999999858
-9.831477666666673,-2.2739581333333265,-0.9782009333333189
-9.13572633333334,-2.4271510666666605,-0.7930927666666522
-8.439975000000006,-2.5803439999999935,-0.6079845999999856
-8.439975000000006,-2.580343999999993,-0.6079845999999854
-8.439975000000006,-2.580343999999993,-0.6079845999999854
-7.670818666666672,-2.7973673333333267,-0.09095833333331882
-6.901662333333338,-3.0143906666666602,0.42606793333334786
-6.132506000000004,-3.231413999999994,0.9430942000000145
-6.132506000000004,-3.231413999999994,0.9430942000000145
-7.453795333333338,-3.263329199999994,0.6303252266666811
-8.775084666666672,-3.2952443999999943,0.3175562533333478
-10.096374000000004,-3.3271595999999946,0.004787280000014456
-10.096374000000006,-3.3271595999999946,0.004787280000014456
-11.685751000000005,-3.5473745333333278,-0.3845781799999855
-13.275128000000004,-3.7675894666666614,-0.7739436399999855
-14.864505000000003,-3.9878043999999946,-1.1633090999999856
-14.864505000000003,-3.9878043999999946,-1.1633090999999853
-13.945347333333338,-4.019719599999994,-0.943094216666652
-13.026189666666669,-4.051634799999994,-0.7228793333333187
-12.107032000000002,-4.0835499999999945,-0.5026644499999854
-12.107031999999998,-4.083549999999995,-0.5026644499999854
-11.864476333333334,-4.058017899999996,-0.7069217333333185
-11.621920666666668,-4.032485799999996,-0.9111790166666518
-11.379365000000002,-4.006953699999997,-1.115436299999985
-11.379365000000002,-4.006953699999997,-1.115436299999985
-11.33468366666667,-3.92397413333333,-1.507993299999985
-11.290002333333335,-3.8409945666666636,-1.900550299999985
-11.245321000000002,-3.7580149999999968,-2.2931072999999853
-11.245320999999999,-3.7580149999999968,-2.2931072999999853
-11.625111999999996,-3.5218425333333303,-2.2994902999999858
-12.004902999999993,-3.2856700666666634,-2.305873299999986
-12.38469399999999,-3.049497599999997,-2.312256299999986
-12.38469399999999,-3.049497599999997,-2.312256299999986
-10.88787099999999,-2.8484318333333296,-1.8111876666666529
-9.391047999999989,-2.6473660666666627,-1.3101190333333197
-7.894224999999991,-2.4463002999999954,-0.8090503999999862
-7.894224999999991,-2.446300299999995,-0.8090503999999862
-7.795287833333323,-2.3314055333333283,-0.9494772999999862
-7.696350666666657,-2.2165107666666612,-1.0899041999999863
-7.59741349999999,-2.101615999999994,-1.2303310999999861
-7.59741349999999,-2.101615999999994,-1.2303310999999864
-7.59741349999999,-2.101615999999994,-1.2303310999999864
-8.663381333333325,-1.9739552333333272,-1.214373466666653
-9.72934916666666,-1.8462944666666605,-1.1984158333333197
-10.795316999999992,-1.7186336999999938,-1.1824581999999866
-11.76553899999999,-1.3037360433333272,-1.2430970999999866
-12.735760999999988,-0.8888383866666606,-1.3037359999999867
-13.705982999999984,-0.4739407299999938,-1.364374899999987
-13.705982999999984,-0.4739407299999938,-1.3643748999999872
-12.805974666666652,-0.3781951333333271,-1.176075199999987
-11.90596633333332,-0.2824495366666604,-0.9877754999999871
-11.005957999999987,-0.18670393999999368,-0.7994757999999872
-11.005957999999987,-0.18670393999999368,-0.7994757999999872
-11.005957999999987,-0.18670393999999368,-0.7994757999999872
-9.971905166666653,-0.4898983266666604,-0.4452170599999872
-8.93785233333332,-0.7930927133333271,-0.09095831999998716
-7.9037994999999865,-1.0962870999999936,0.26330042000001286
-8.612316999999988,-1.0930955999999938,-0.11010743999998714
-9.320834499999988,-1.0899040999999936,-0.48351529999998716
-10.029351999999987,-1.0867125999999936,-0.8569231599999872
-10.029351999999985,-1.0867125999999934,-0.8569231599999872
-9.70700866666665,-1.47288656666666,-0.7388369233333206
-9.384665333333318,-1.8590605333333265,-0.620750686666654
-9.062321999999984,-2.2452344999999934,-0.5026644499999874
-9.062321999999982,-2.2452344999999934,-0.5026644499999874
-9.062321999999982,-2.2452344999999934,-0.5026644499999874
-8.545295666666648,-2.545237399999993,0.020744866666679296
-8.028269333333315,-2.845240299999993,0.5441541833333461
-7.511242999999982,-3.1452431999999924,1.0675635000000128
-8.424017666666648,-3.3143936999999926,0.7739436466666794
-9.336792333333314,-3.4835441999999923,0.480323793333346
-10.24956699999998,-3.6526946999999925,0.18670394000001264
-10.24956699999998,-3.6526946999999925,0.18670394000001264
-10.75382699999998,-3.5473745666666594,-0.24415130666665405
-11.25808699999998,-3.442054433333326,-0.6750065533333207
-11.762346999999979,-3.3367342999999927,-1.1058617999999873
-11.762346999999979,-3.3367342999999927,-1.1058617999999876
-11.762346999999979,-3.3367342999999927,-1.1058617999999876
-12.001710999999979,-3.3016275333333263,-1.0739465666666541
-12.241074999999979,-3.2665207666666602,-1.0420313333333209
-12.480438999999977,-3.231413999999994,-1.0101160999999874
-12.480438999999976,-3.231413999999994,-1.0101160999999872
-12.381501999999974,-3.454820499999993,-1.179266699999987
-12.282564999999972,-3.6782269999999926,-1.3484172999999868
-12.18362799999997,-3.901633499999992,-1.5175678999999864
-12.02405199999997,-3.917591099999992,-1.76331493333332
-11.864475999999973,-3.9335486999999922,-2.0090619666666534
-11.704899999999974,-3.9495062999999924,-2.254808999999987
-11.704899999999974,-3.9495062999999924,-2.254808999999987
-11.704899999999974,-3.9495062999999924,-2.254808999999987
-11.56128166666664,-3.6112050999999923,-2.21012773333332
-11.417663333333307,-3.272903899999992,-2.165446466666653
-11.274044999999973,-2.934602699999992,-2.1207651999999864
-11.274044999999973,-2.934602699999992,-2.120765199999986
-9.850626999999973,-2.692047166666659,-1.6579947666666526
-8.427208999999971,-2.449491633333326,-1.1952243333333195
-7.003790999999971,-2.2069360999999925,-0.7324538999999861
-6.662298333333304,-2.146297266666659,-0.8409655666666526
-6.320805666666637,-2.0856584333333257,-0.9494772333333191
-5.979312999999969,-2.0250195999999927,-1.0579888999999856
-5.979312999999969,-2.0250195999999927,-1.0579888999999856
-7.102727999999971,-2.021828066666659,-1.0292652333333188
-8.226142999999972,-2.0186365333333254,-1.0005415666666522
-9.349557999999973,-2.015444999999992,-0.9718178999999854
-9.349557999999973,-2.015444999999992,-0.9718178999999854
-9.349557999999973,-2.015444999999992,-0.9718178999999854
-11.283619333333306,-1.772889466666659,-1.2782038333333188
-13.217680666666638,-1.530333933333326,-1.584589766666652
-15.15174199999997,-1.2877783999999928,-1.8909756999999854
-15.15174199999997,-1.2877783999999928,-1.8909756999999854
-14.708120666666638,-1.038839813333326,-1.852677466666652
-14.264499333333305,-0.7899012266666595,-1.8143792333333184
-13.820877999999972,-0.5409626399999928,-1.7760809999999847
-11.730432333333304,-0.6462828133333262,-1.1728836799999847
-9.639986666666637,-0.7516029866666595,-0.5696863599999847
-7.549540999999969,-0.8569231599999928,0.033510960000015334
-7.549540999999969,-0.8569231599999928,0.033510960000015334
-7.549540999999969,-0.8569231599999928,0.033510960000015334
-8.079333333333302,-0.9941585399999928,-0.2377682466666513
-8.609125666666635,-1.1313939199999927,-0.5090474533333179
-9.138917999999968,-1.2686292999999926,-0.7803266599999846
-9.138917999999967,-1.2686292999999926,-0.7803266599999846
-8.829340666666635,-1.4313968333333262,-0.700538653333318
-8.519763333333303,-1.5941643666666598,-0.6207506466666514
-8.21018599999997,-1.7569318999999934,-0.5409626399999846
-7.508051333333303,-1.9484230666666604,-0.18989542666665127
-6.805916666666636,-2.139914233333327,0.16117178666668208
-6.10378199999997,-2.3314053999999937,0.5122390000000154
-6.10378199999997,-2.3314053999999937,0.5122390000000153
-6.10378199999997,-2.3314053999999937,0.5122390000000153
-6.572935666666637,-2.650557433333327,0.6590489333333487
-7.042089333333302,-2.9697094666666604,0.805858866666682
-7.511242999999968,-3.2888614999999937,0.9526688000000153
-7.5112429999999675,-3.2888614999999937,0.9526688000000153
-9.122960499999968,-3.317585233333327,0.6462828533333487
-10.734677999999967,-3.3463089666666606,0.339896906666682
-12.346395499999966,-3.3750326999999944,0.033510960000015376
-13.003848666666633,-3.4452460999999945,-0.3686205599999847
-13.661301833333297,-3.5154594999999946,-0.7707520799999847
-14.318754999999962,-3.5856728999999947,-1.1728835999999847
-14.318754999999962,-3.5856728999999947,-1.1728835999999847
-14.318754999999962,-3.5856728999999947,-1.1728835999999847
-14.124072333333297,-3.5952474666666614,-1.1186277666666513
-13.929389666666632,-3.604822033333328,-1.064371933333318
-13.734706999999966,-3.614396599999995,-1.0101160999999845
-12.553844666666635,-3.617588133333328,-1.0388397666666511
-11.372982333333303,-3.6207796666666616,-1.0675634333333177
-10.192119999999969,-3.623971199999995,-1.0962870999999845
-10.19211999999997,-3.623971199999995,-1.0962870999999847
-11.140001333333302,-3.4069477999999953,-1.6324624666666516
-12.087882666666635,-3.1899243999999953,-2.1686378333333187
-13.035763999999967,-2.9729009999999954,-2.7048131999999856
-13.035763999999967,-2.9729009999999954,-2.7048131999999856
-12.151712999999967,-2.727153933333329,-2.353746033333319
-11.267661999999968,-2.481406866666662,-2.002678866666652
-10.383610999999968,-2.2356597999999956,-1.6516116999999852
-10.383610999999968,-2.2356597999999956,-1.6516116999999852
-9.142109566666635,-2.146297266666662,-1.2750123333333185
-7.900608133333303,-2.0569347333333283,-0.8984129666666517
-6.6591066999999695,-1.9675721999999947,-0.521813599999985
-6.6591066999999695,-1.9675721999999947,-0.521813599999985
-6.8505979999999695,-1.919699366666661,-0.6750065466666518
-7.04208929999997,-1.8718265333333275,-0.8281994933333184
-7.2335805999999705,-1.8239536999999941,-0.981392439999985
-7.2335805999999705,-1.8239536999999941,-0.981392439999985
-8.69848839999997,-1.6675692333333274,-1.0643719933333184
-10.16339619999997,-1.511184766666661,-1.1473515466666515
-11.628303999999972,-1.3548002999999944,-1.230331099999985
-11.628303999999972,-1.3548002999999944,-1.230331099999985
-12.154904666666638,-1.2558631666666609,-1.160117599999985
-12.681505333333305,-1.1569260333333276,-1.089904099999985
-13.208105999999972,-1.0579888999999942,-1.0196905999999848
-13.208105999999972,-1.0579888999999942,-1.0196905999999848
-12.368736333333304,-1.1122447333333276,-0.7962842166666517
-11.529366666666638,-1.1665005666666606,-0.5728778333333185
-10.68999699999997,-1.2207563999999937,-0.3494714499999852
-10.68999699999997,-1.2207563999999935,-0.3494714499999852
-10.68999699999997,-1.2207563999999935,-0.3494714499999852
-9.703817233333304,-1.287778333333327,-0.25372584799998527
-8.717637466666638,-1.3548002666666605,-0.15798024599998525
-7.731457699999972,-1.421822199999994,-0.06223464399998524
-8.360187133333305,-1.6835268333333273,-0.4005357959999853
-8.988916566666639,-1.9452314666666606,-0.7388369479999852
-9.617645999999972,-2.206936099999994,-1.077138099999985
-9.617645999999972,-2.2069360999999943,-1.077138099999985
-8.835723566666637,-2.181403933333327,-0.8154334333333185
-8.053801133333302,-2.1558717666666602,-0.5537287666666517
-7.271878699999967,-2.1303395999999934,-0.292024099999985
-7.271878699999967,-2.130339599999993,-0.2920240999999851
-7.144217966666635,-2.4207679333333263,-0.01755336666665175
-7.016557233333303,-2.71119626666666,0.2569173666666816
-6.88889649999997,-3.0016245999999938,0.5313881000000148
-6.88889649999997,-3.0016245999999938,0.5313881000000148
-8.095291166666636,-3.036731333333327,0.2473428133333482
-9.301685833333302,-3.07183806666666,-0.03670247333331842
-10.508080499999968,-3.1069447999999933,-0.32074775999998506
-10.508080499999968,-3.1069447999999933,-0.32074775999998506
-11.7049003333333,-3.11332786666666,-0.5281965733333184
-12.901720166666635,-3.119710933333327,-0.7356453866666516
-14.09853999999997,-3.1260939999999944,-0.9430941999999849
-14.09853999999997,-3.1260939999999944,-0.9430941999999849
-13.421937666666636,-3.343117333333328,-0.8218164333333182
-12.745335333333303,-3.5601406666666615,-0.7005386666666515
-12.068732999999972,-3.777163999999995,-0.5792608999999849
-12.068732999999972,-3.7771639999999955,-0.5792608999999849
-12.068732999999972,-3.917590999999996,-0.7356453666666515
-12.068732999999972,-4.058017999999996,-0.892029833333318
-12.068732999999972,-4.198444999999996,-1.0484142999999846
-12.068732999999972,-4.198444999999996,-1.0484142999999844
-11.446386833333305,-3.968655466666663,-1.0803295333333178
-10.824040666666638,-3.7388659333333294,-1.1122447666666513
-10.201694499999972,-3.5090763999999957,-1.1441599999999845
-10.201694499999972,-3.5090763999999957,-1.1441599999999845
-11.117660666666637,-3.308010599999996,-1.332459666666651
-12.033626833333303,-3.106944799999996,-1.5207593333333176
-12.94959299999997,-2.9058789999999965,-1.7090589999999841
-12.94959299999997,-2.9058789999999965,-1.7090589999999841
-12.94959299999997,-2.9058789999999965,-1.7090589999999841
-12.049584333333302,-2.625025266666663,-1.495227166666651
-11.149575666666635,-2.3441715333333293,-1.281395333333318
-10.249566999999969,-2.063317799999996,-1.0675634999999846
-9.4357293333333,-1.9931043666666628,-0.9494772533333178
-8.621891666666635,-1.9228909333333295,-0.8313910066666509
-7.808053999999967,-1.8526774999999962,-0.7133047599999841
-7.808053999999967,-1.8526774999999962,-0.7133047599999841
-8.095290833333301,-1.7186336333333294,-0.7196878066666509
-8.382527666666634,-1.5845897666666626,-0.7260708533333178
-8.66976449999997,-1.4505458999999956,-0.7324538999999847
-8.66976449999997,-1.4505458999999956,-0.7324538999999847
-8.66976449999997,-1.4505458999999956,-0.7324538999999847
-9.189982333333303,-1.1601175666666625,-0.7899012466666514
-9.710200166666636,-0.8696892333333294,-0.8473485933333181
-10.23041799999997,-0.5792608999999961,-0.9047959399999849
-10.610208666666637,-0.7037301999999962,-0.8664977133333182
-10.989999333333303,-0.8281994999999962,-0.8281994866666516
-11.369789999999972,-0.9526687999999962,-0.789901259999985
-11.369789999999972,-0.9526687999999962,-0.789901259999985
-11.092127999999972,-0.9430942233333295,-0.8377740599999849
-10.81446599999997,-0.9335196466666628,-0.8856468599999848
-10.536803999999968,-0.9239450699999959,-0.9335196599999848
-10.536803999999966,-0.9239450699999958,-0.9335196599999848
-10.536803999999966,-0.9239450699999958,-0.9335196599999848
-10.4251008333333,-1.1090532466666625,-0.761177573333318
-10.313397666666633,-1.2941614233333292,-0.5888354866666514
-10.201694499999965,-1.4792695999999959,-0.41649339999998486
-10.201694499999965,-1.4792695999999959,-0.41649339999998486
-10.24637566666663,-1.7122505333333293,-0.8122418999999846
-10.291056833333295,-1.9452314666666624,-1.2079903999999846
-10.335737999999962,-2.1782123999999956,-1.6037388999999844
-9.381473433333296,-2.315447799999996,-1.255863186666651
-8.42720886666663,-2.452683199999996,-0.9079874733333178
-7.472944299999964,-2.5899185999999967,-0.5601117599999844
-7.472944299999964,-2.5899185999999967,-0.5601117599999844
-7.472944299999964,-2.5899185999999967,-0.5601117599999844
-7.03570606666663,-2.8324741333333296,-0.4069187999999844
-6.598467833333295,-3.0750296666666626,-0.2537258399999845
-6.1612295999999604,-3.317585199999996,-0.1005328799999845
-6.1612295999999604,-3.317585199999996,-0.1005328799999845
-6.8059167333332935,-3.3590749666666624,-0.3845781866666511
-7.450603866666626,-3.400564733333329,-0.6686234933333178
-8.095290999999959,-3.4420544999999954,-0.9526687999999846
-9.49636833333329,-3.461203666666662,-1.121819333333318
-10.897445666666622,-3.480352833333329,-1.2909698666666511
-12.298522999999955,-3.4995019999999957,-1.4601203999999843
-12.298522999999955,-3.4995019999999957,-1.4601203999999843
-12.298522999999955,-3.4995019999999957,-1.4601203999999843
-12.745335999999957,-3.518651033333329,-1.4696949999999844
-13.192148999999958,-3.5378000666666627,-1.4792695999999843
-13.638961999999959,-3.5569490999999966,-1.4888441999999842
-13.638961999999959,-3.5569490999999966,-1.4888441999999842
-13.383639999999959,-3.534608499999996,-1.3707579333333175
-13.12831799999996,-3.512267899999996,-1.2526716666666509
-12.87299599999996,-3.4899272999999957,-1.134585399999984
-11.484684999999962,-3.3782240666666623,-0.8920298733333173
