accx,accy,accz
0.18670394,4.648448999999999,4.5335545999999995
0.78032666,2.905879,4.8590894
0.78032666,2.905879,4.8590894
0.78032666,2.905879,4.8590894
0.78032666,2.905879,4.8590894
0.9430941999999999,2.3026817000000004,8.124015
0.9430941999999999,2.3026817000000004,8.124015
0.9430941999999999,2.3026817000000004,8.124015
0.9430941999999999,2.3026817000000004,8.124015
-0.56011176,1.383524,9.761265
-0.56011176,1.383524,9.761265
-0.56011176,1.383524,9.761265
-2.513322,1.862252,9.8953085
-2.513322,1.862252,9.8953085
-2.513322,1.862252,9.8953085
-2.513322,1.862252,9.8953085
-3.7963133,-0.05266008,9.608071
-3.7963133,-0.05266008,9.608071
-3.7963133,-0.05266008,9.608071
-3.7963133,-0.05266008,9.608071
-5.0122824,0.15798025,9.18679
-5.0122824,0.15798025,9.18679
-5.0122824,0.15798025,9.18679
-5.0122824,0.15798025,9.18679
-5.462287,-1.0005416,8.305931
-5.462287,-1.0005416,8.305931
-5.462287,-1.0005416,8.305931
-5.462287,-1.0005416,8.305931
-6.8027253,-0.70373017,6.5729356
-6.8027253,-0.70373017,6.5729356
-6.8027253,-0.70373017,6.5729356
-6.8027253,-0.70373017,6.5729356
-8.478273,-0.54096264,5.098453500000001
-8.478273,-0.54096264,5.098453500000001
-8.478273,-0.54096264,5.098453500000001
-8.478273,-0.54096264,5.098453500000001
-10.622974000000001,-0.5888355,4.428234
-10.622974000000001,-0.5888355,4.428234
-10.622974000000001,-0.5888355,4.428234
-11.1208515,-2.0824668,2.9633265
-11.1208515,-2.0824668,2.9633265
-11.1208515,-2.0824668,2.9633265
-11.1208515,-2.0824668,2.9633265
-11.1208515,-2.0824668,2.9633265
-10.584677000000001,-4.926111,1.0388398
-10.584677000000001,-4.926111,1.0388398
-10.584677000000001,-4.926111,1.0388398
-9.62722,-5.021857,0.44521707
-9.62722,-5.021857,0.44521707
-9.62722,-5.021857,0.44521707
-9.62722,-5.021857,0.44521707
-9.004874000000001,-3.9112080000000002,1.6994845
-9.004874000000001,-3.9112080000000002,1.6994845
-9.004874000000001,-3.9112080000000002,1.6994845
-9.004874000000001,-3.9112080000000002,1.6994845
-8.928278,-3.5952474999999997,1.2399056
-8.928278,-3.5952474999999997,1.2399056
-8.928278,-3.5952474999999997,1.2399056
-8.928278,-3.5952474999999997,1.2399056
-9.100619,-3.2792869,0.26330042
-9.100619,-3.2792869,0.26330042
-9.100619,-3.2792869,0.26330042
-9.100619,-3.2792869,0.26330042
-9.215514,-2.5037475,0.28244954
-9.215514,-2.5037475,0.28244954
-9.215514,-2.5037475,0.28244954
-9.215514,-2.5037475,0.28244954
-9.129342999999999,-2.101616,0.3111732
-9.129342999999999,-2.101616,0.3111732
-9.129342999999999,-2.101616,0.3111732
-9.129342999999999,-2.101616,0.3111732
-9.41658,-2.0537431,0.0718092
-9.41658,-2.0537431,0.0718092
-9.41658,-2.0537431,0.0718092
-9.378282,-1.9196993000000002,0.22500217
-9.378282,-1.9196993000000002,0.22500217
-9.378282,-1.9196993000000002,0.22500217
-9.378282,-1.9196993000000002,0.22500217
-9.292110000000001,-1.7377827000000001,0.39734426
-9.292110000000001,-1.7377827000000001,0.39734426
-9.292110000000001,-1.7377827000000001,0.39734426
-9.292110000000001,-1.7377827000000001,0.39734426
-9.253813000000001,-1.948423,0.2920241
-9.253813000000001,-1.948423,0.2920241
-9.253813000000001,-1.948423,0.2920241
-9.253813000000001,-1.948423,0.2920241
-9.263388,-2.101616,0.18670394
-9.263388,-2.101616,0.18670394
-9.263388,-2.101616,0.18670394
-9.263388,-2.101616,0.18670394
-9.339984,-1.9101248,0.32074776
-9.339984,-1.9101248,0.32074776
-9.339984,-1.9101248,0.32074776
-9.339984,-1.9101248,0.32074776
-9.330409,-2.0250196,0.37819514
-9.330409,-2.0250196,0.37819514
-9.330409,-2.0250196,0.37819514
-9.330409,-2.0250196,0.37819514
-9.359133,-2.0250196,0.42606795
-9.359133,-2.0250196,0.42606795
-9.359133,-2.0250196,0.42606795
-9.359133,-2.0250196,0.42606795
-9.359133,-1.9388485,0.40691882
-9.359133,-1.9388485,0.40691882
-9.359133,-1.9388485,0.40691882
-9.292110000000001,-1.8526775000000002,0.3877697
-9.292110000000001,-1.8526775000000002,0.3877697
-9.292110000000001,-1.8526775000000002,0.3877697
-9.292110000000001,-1.8526775000000002,0.3877697
-9.2825365,-1.9005502,0.3398969
-9.2825365,-1.9005502,0.3398969
-9.2825365,-1.9005502,0.3398969
-9.2825365,-1.9005502,0.3398969
-9.244238000000001,-1.8909756999999998,0.37819514
-9.244238000000001,-1.8909756999999998,0.37819514
-9.244238000000001,-1.8909756999999998,0.37819514
-9.244238000000001,-1.8909756999999998,0.37819514
-9.349558,-1.8909756999999998,0.3398969
-9.349558,-1.8909756999999998,0.3398969
-9.349558,-1.8909756999999998,0.3398969
-9.349558,-1.8909756999999998,0.3398969
-9.407005,-1.9101248,0.359046
-9.407005,-1.9101248,0.359046
-9.407005,-1.9101248,0.359046
-9.378282,-1.9005502,0.37819514
-9.378282,-1.9005502,0.37819514
-9.378282,-1.9005502,0.37819514
-9.378282,-1.9005502,0.37819514
-9.378282,-1.9005502,0.37819514
-9.215514,-1.8718264999999998,0.39734426
-9.215514,-1.8718264999999998,0.39734426
-9.215514,-1.8718264999999998,0.39734426
-9.330409,-1.9292740000000002,0.3877697
-9.330409,-1.9292740000000002,0.3877697
-9.330409,-1.9292740000000002,0.3877697
-9.330409,-1.9292740000000002,0.3877697
-9.378282,-1.9388485,0.37819514
-9.378282,-1.9388485,0.37819514
-9.378282,-1.9388485,0.37819514
-9.378282,-1.9388485,0.37819514
-9.339984,-1.9005502,0.37819514
-9.339984,-1.9005502,0.37819514
-9.339984,-1.9005502,0.37819514
-9.339984,-1.9005502,0.37819514
-9.31126,-1.8239537000000001,0.359046
-9.31126,-1.8239537000000001,0.359046
-9.31126,-1.8239537000000001,0.359046
-9.31126,-1.8239537000000001,0.359046
-9.263388,-1.8048046999999998,0.33032233
-9.263388,-1.8048046999999998,0.33032233
-9.263388,-1.8048046999999998,0.33032233
-9.263388,-1.8048046999999998,0.33032233
-9.368708,-1.7952299999999999,0.34947145
-9.368708,-1.7952299999999999,0.34947145
-9.368708,-1.7952299999999999,0.34947145
-9.368708,-1.7952299999999999,0.34947145
-9.339984,-1.7377827000000001,0.36862057
-9.339984,-1.7377827000000001,0.36862057
-9.339984,-1.7377827000000001,0.36862057
-9.31126,-1.7377827000000001,0.37819514
-9.31126,-1.7377827000000001,0.37819514
-9.31126,-1.7377827000000001,0.37819514
-9.31126,-1.7377827000000001,0.37819514
-9.31126,-1.7377827000000001,0.37819514
-9.349558,-1.776081,0.37819514
-9.349558,-1.776081,0.37819514
-9.349558,-1.776081,0.37819514
-9.359133,-1.8239537000000001,0.40691882
-9.359133,-1.8239537000000001,0.40691882
-9.359133,-1.8239537000000001,0.40691882
-9.359133,-1.8239537000000001,0.40691882
-9.359133,-1.8143792,0.36862057
-9.359133,-1.8143792,0.36862057
-9.359133,-1.8143792,0.36862057
-9.359133,-1.8143792,0.36862057
-9.320834,-1.8431028999999999,0.33032233
-9.320834,-1.8431028999999999,0.33032233
-9.320834,-1.8431028999999999,0.33032233
-9.320834,-1.8431028999999999,0.33032233
-9.359133,-1.8048046999999998,0.3398969
-9.359133,-1.8048046999999998,0.3398969
-9.359133,-1.8048046999999998,0.3398969
-9.359133,-1.8048046999999998,0.3398969
-9.339984,-1.8239537000000001,0.34947145
-9.339984,-1.8239537000000001,0.34947145
-9.339984,-1.8239537000000001,0.34947145
-9.339984,-1.8239537000000001,0.34947145
-9.349558,-1.7952299999999999,0.40691882
-9.349558,-1.7952299999999999,0.40691882
-9.349558,-1.7952299999999999,0.40691882
-9.397431,-1.7952299999999999,0.37819514
-9.397431,-1.7952299999999999,0.37819514
-9.397431,-1.7952299999999999,0.37819514
-9.397431,-1.7952299999999999,0.37819514
-9.359133,-1.8048046999999998,0.43564250000000004
-9.359133,-1.8048046999999998,0.43564250000000004
-9.359133,-1.8048046999999998,0.43564250000000004
-9.359133,-1.8048046999999998,0.43564250000000004
-9.359133,-1.7856555,0.47394073
-9.359133,-1.7856555,0.47394073
-9.359133,-1.7856555,0.47394073
-9.359133,-1.7856555,0.47394073
-9.349558,-1.7952299999999999,0.48351530000000004
-9.349558,-1.7952299999999999,0.48351530000000004
-9.349558,-1.7952299999999999,0.48351530000000004
-9.349558,-1.7952299999999999,0.48351530000000004
-9.2825365,-1.8335283,0.40691882
-9.2825365,-1.8335283,0.40691882
-9.2825365,-1.8335283,0.40691882
-9.2825365,-1.8335283,0.40691882
-9.407005,-1.7952299999999999,0.3398969
-9.407005,-1.7952299999999999,0.3398969
-9.407005,-1.7952299999999999,0.3398969
-9.407005,-1.7952299999999999,0.3398969
-9.359133,-1.7473572,0.36862057
-9.359133,-1.7473572,0.36862057
-9.359133,-1.7473572,0.36862057
-9.2825365,-1.7569318999999999,0.36862057
-9.2825365,-1.7569318999999999,0.36862057
-9.2825365,-1.7569318999999999,0.36862057
-9.2825365,-1.7569318999999999,0.36862057
-9.2825365,-1.7569318999999999,0.36862057
-9.253813000000001,-1.7856555,0.42606795
-9.253813000000001,-1.7856555,0.42606795
-9.253813000000001,-1.7856555,0.42606795
-9.320834,-1.7856555,0.46436617
-9.320834,-1.7856555,0.46436617
-9.320834,-1.7856555,0.46436617
-9.320834,-1.7856555,0.46436617
-9.349558,-1.776081,0.47394073
-9.349558,-1.776081,0.47394073
-9.349558,-1.776081,0.47394073
-9.349558,-1.776081,0.47394073
-9.301685,-1.7377827000000001,0.44521707
-9.301685,-1.7377827000000001,0.44521707
-9.301685,-1.7377827000000001,0.44521707
-9.301685,-1.7377827000000001,0.44521707
-9.253813000000001,-1.7282081999999999,0.44521707
-9.253813000000001,-1.7282081999999999,0.44521707
-9.253813000000001,-1.7282081999999999,0.44521707
-9.253813000000001,-1.7282081999999999,0.44521707
-9.349558,-1.9101248,0.36862057
-9.349558,-1.9101248,0.36862057
-9.349558,-1.9101248,0.36862057
-9.531475,-1.9101248,0.45479164
-9.531475,-1.9101248,0.45479164
-9.531475,-1.9101248,0.45479164
-9.531475,-1.9101248,0.45479164
-9.531475,-1.9101248,0.45479164
-9.397431,-1.776081,0.54096264
-9.397431,-1.776081,0.54096264
-9.397431,-1.776081,0.54096264
-9.349558,-1.7569318999999999,0.5888355
-9.349558,-1.7569318999999999,0.5888355
-9.349558,-1.7569318999999999,0.5888355
-9.349558,-1.7569318999999999,0.5888355
-9.234664,-1.6803354,0.5313880999999999
-9.234664,-1.6803354,0.5313880999999999
-9.234664,-1.6803354,0.5313880999999999
-9.234664,-1.6803354,0.5313880999999999
-9.339984,-1.7569318999999999,0.43564250000000004
-9.339984,-1.7569318999999999,0.43564250000000004
-9.339984,-1.7569318999999999,0.43564250000000004
-9.339984,-1.7569318999999999,0.43564250000000004
-9.330409,-1.776081,0.3877697
-9.330409,-1.776081,0.3877697
-9.330409,-1.776081,0.3877697
-9.330409,-1.776081,0.3877697
-9.378282,-1.7377827000000001,0.44521707
-9.378282,-1.7377827000000001,0.44521707
-9.378282,-1.7377827000000001,0.44521707
-9.378282,-1.7377827000000001,0.44521707
-9.330409,-1.7473572,0.5313880999999999
-9.330409,-1.7473572,0.5313880999999999
-9.330409,-1.7473572,0.5313880999999999
-9.330409,-1.7473572,0.5313880999999999
-9.225089,-1.6899098999999997,0.56011176
-9.225089,-1.6899098999999997,0.56011176
-9.225089,-1.6899098999999997,0.56011176
-9.3878565,-1.6803354,0.5792609000000001
-9.3878565,-1.6803354,0.5792609000000001
-9.3878565,-1.6803354,0.5792609000000001
-9.3878565,-1.6803354,0.5792609000000001
-9.3878565,-1.6803354,0.5792609000000001
-9.320834,-1.6037389,0.56968635
-9.320834,-1.6037389,0.56968635
-9.320834,-1.6037389,0.56968635
-9.18679,-1.5941644,0.512239
-9.18679,-1.5941644,0.512239
-9.18679,-1.5941644,0.512239
-9.18679,-1.5941644,0.512239
-9.445304,-1.8048046999999998,0.3877697
-9.445304,-1.8048046999999998,0.3877697
-9.445304,-1.8048046999999998,0.3877697
-9.445304,-1.8048046999999998,0.3877697
-9.301685,-1.7665064,0.49308985
-9.301685,-1.7665064,0.49308985
-9.301685,-1.7665064,0.49308985
-9.301685,-1.7665064,0.49308985
-9.320834,-1.709059,0.5505372
-9.320834,-1.709059,0.5505372
-9.320834,-1.709059,0.5505372
-9.320834,-1.709059,0.5505372
-9.41658,-1.7473572,0.5218136
-9.41658,-1.7473572,0.5218136
-9.41658,-1.7473572,0.5218136
-9.41658,-1.7473572,0.5218136
-9.378282,-1.7665064,0.5218136
-9.378282,-1.7665064,0.5218136
-9.378282,-1.7665064,0.5218136
-9.397431,-1.7473572,0.49308985
-9.397431,-1.7473572,0.49308985
-9.397431,-1.7473572,0.49308985
-9.397431,-1.7473572,0.49308985
-9.579348,-1.7377827000000001,0.43564250000000004
-9.579348,-1.7377827000000001,0.43564250000000004
-9.579348,-1.7377827000000001,0.43564250000000004
-9.579348,-1.7377827000000001,0.43564250000000004
-9.359133,-1.6133133999999998,0.56968635
-9.359133,-1.6133133999999998,0.56968635
-9.359133,-1.6133133999999998,0.56968635
-9.359133,-1.6133133999999998,0.56968635
-9.349558,-1.6516117,0.5792609000000001
-9.349558,-1.6516117,0.5792609000000001
-9.349558,-1.6516117,0.5792609000000001
-9.349558,-1.6516117,0.5218136
-9.349558,-1.6516117,0.5218136
-9.349558,-1.6516117,0.5218136
-9.349558,-1.6516117,0.5218136
-9.349558,-1.6516117,0.5218136
-9.301685,-1.5845897,0.512239
-9.301685,-1.5845897,0.512239
-9.301685,-1.5845897,0.512239
-9.2825365,-1.6228879999999999,0.48351530000000004
-9.2825365,-1.6228879999999999,0.48351530000000004
-9.2825365,-1.6228879999999999,0.48351530000000004
-9.2825365,-1.6228879999999999,0.48351530000000004
-9.244238000000001,-1.7569318999999999,0.3877697
-9.244238000000001,-1.7569318999999999,0.3877697
-9.244238000000001,-1.7569318999999999,0.3877697
-9.244238000000001,-1.7569318999999999,0.3877697
-9.31126,-1.8431028999999999,0.40691882
-9.31126,-1.8431028999999999,0.40691882
-9.31126,-1.8431028999999999,0.40691882
-9.31126,-1.8431028999999999,0.40691882
-9.31126,-1.8718264999999998,0.5218136
-9.31126,-1.8718264999999998,0.5218136
-9.31126,-1.8718264999999998,0.5218136
-9.31126,-1.8718264999999998,0.5218136
-9.244238000000001,-1.8718264999999998,0.6558574
-9.244238000000001,-1.8718264999999998,0.6558574
-9.244238000000001,-1.8718264999999998,0.6558574
-9.244238000000001,-1.8718264999999998,0.6558574
-9.349558,-1.7665064,0.59841
-9.349558,-1.7665064,0.59841
-9.349558,-1.7665064,0.59841
-9.359133,-1.6994845,0.5505372
-9.359133,-1.6994845,0.5505372
-9.359133,-1.6994845,0.5505372
-9.359133,-1.6994845,0.5505372
-9.359133,-1.6994845,0.5792609000000001
-9.359133,-1.6994845,0.5792609000000001
-9.359133,-1.6994845,0.5792609000000001
-9.359133,-1.6994845,0.5792609000000001
-9.330409,-1.7569318999999999,0.6271336999999999
-9.330409,-1.7569318999999999,0.6271336999999999
-9.330409,-1.7569318999999999,0.6271336999999999
-9.330409,-1.7569318999999999,0.6271336999999999
-9.292110000000001,-1.7665064,0.56968635
-9.292110000000001,-1.7665064,0.56968635
-9.292110000000001,-1.7665064,0.56968635
-9.292110000000001,-1.7665064,0.56968635
-9.339984,-1.7473572,0.50266445
-9.339984,-1.7473572,0.50266445
-9.339984,-1.7473572,0.50266445
-9.339984,-1.7473572,0.50266445
-9.339984,-1.7473572,0.50266445
-9.339984,-1.7473572,0.50266445
-9.339984,-1.7473572,0.50266445
-9.349558,-1.6899098999999997,0.6271336999999999
-9.349558,-1.6899098999999997,0.6271336999999999
-9.349558,-1.6899098999999997,0.6271336999999999
-9.349558,-1.6899098999999997,0.6271336999999999
-9.378282,-1.862252,0.5505372
-9.378282,-1.862252,0.5505372
-9.378282,-1.862252,0.5505372
-9.359133,-1.7952299999999999,0.50266445
-9.359133,-1.7952299999999999,0.50266445
-9.359133,-1.7952299999999999,0.50266445
-9.359133,-1.7952299999999999,0.50266445
-9.378282,-1.8239537000000001,0.44521707
-9.378282,-1.8239537000000001,0.44521707
-9.378282,-1.8239537000000001,0.44521707
-9.378282,-1.8239537000000001,0.44521707
-9.272962,-1.8048046999999998,0.45479164
-9.272962,-1.8048046999999998,0.45479164
-9.272962,-1.8048046999999998,0.45479164
-9.272962,-1.8048046999999998,0.45479164
-9.349558,-1.776081,0.43564250000000004
-9.349558,-1.776081,0.43564250000000004
-9.349558,-1.776081,0.43564250000000004
-9.349558,-1.776081,0.43564250000000004
-9.272962,-1.8239537000000001,0.40691882
-9.272962,-1.8239537000000001,0.40691882
-9.272962,-1.8239537000000001,0.40691882
-9.272962,-1.8239537000000001,0.40691882
-9.3878565,-1.8431028999999999,0.40691882
-9.3878565,-1.8431028999999999,0.40691882
-9.3878565,-1.8431028999999999,0.40691882
-9.2825365,-1.776081,0.46436617
-9.2825365,-1.776081,0.46436617
-9.2825365,-1.776081,0.46436617
-9.2825365,-1.776081,0.46436617
-9.2825365,-1.776081,0.46436617
-9.349558,-1.7665064,0.47394073
-9.349558,-1.7665064,0.47394073
-9.349558,-1.7665064,0.47394073
-9.349558,-1.7282081999999999,0.43564250000000004
-9.349558,-1.7282081999999999,0.43564250000000004
-9.349558,-1.7282081999999999,0.43564250000000004
-9.349558,-1.7282081999999999,0.43564250000000004
-9.454879,-1.6899098999999997,0.42606795
-9.454879,-1.6899098999999997,0.42606795
-9.454879,-1.6899098999999997,0.42606795
-9.454879,-1.6899098999999997,0.42606795
-9.349558,-1.6228879999999999,0.47394073
-9.349558,-1.6228879999999999,0.47394073
-9.349558,-1.6228879999999999,0.47394073
-9.349558,-1.6228879999999999,0.47394073
-9.301685,-1.5941644,0.512239
-9.301685,-1.5941644,0.512239
-9.301685,-1.5941644,0.512239
-9.301685,-1.5941644,0.512239
-9.3878565,-1.6324625,0.48351530000000004
-9.3878565,-1.6324625,0.48351530000000004
-9.3878565,-1.6324625,0.48351530000000004
-9.3878565,-1.6324625,0.48351530000000004
-9.339984,-1.6803354,0.48351530000000004
-9.339984,-1.6803354,0.48351530000000004
-9.339984,-1.6803354,0.48351530000000004
-9.339984,-1.6803354,0.48351530000000004
-9.349558,-1.709059,0.48351530000000004
-9.349558,-1.709059,0.48351530000000004
-9.349558,-1.709059,0.48351530000000004
-9.3878565,-1.7569318999999999,0.42606795
-9.3878565,-1.7569318999999999,0.42606795
-9.3878565,-1.7569318999999999,0.42606795
-9.3878565,-1.7569318999999999,0.42606795
-9.378282,-1.7665064,0.47394073
-9.378282,-1.7665064,0.47394073
-9.378282,-1.7665064,0.47394073
-9.378282,-1.7665064,0.47394073
-9.2825365,-1.7473572,0.5505372
-9.2825365,-1.7473572,0.5505372
-9.2825365,-1.7473572,0.5505372
-9.2825365,-1.7473572,0.5505372
-9.339984,-1.7856555,0.46436617
-9.339984,-1.7856555,0.46436617
-9.339984,-1.7856555,0.46436617
-9.339984,-1.7856555,0.46436617
-9.483603,-1.7856555,0.50266445
-9.483603,-1.7856555,0.50266445
-9.483603,-1.7856555,0.50266445
-9.483603,-1.7856555,0.50266445
-9.31126,-1.5845897,0.6079846
-9.31126,-1.5845897,0.6079846
-9.31126,-1.5845897,0.6079846
-9.31126,-1.5845897,0.6079846
-9.339984,-1.6228879999999999,0.5313880999999999
-9.339984,-1.6228879999999999,0.5313880999999999
-9.339984,-1.6228879999999999,0.5313880999999999
-9.339984,-1.6228879999999999,0.5313880999999999
-9.349558,-1.6516117,0.46436617
-9.349558,-1.6516117,0.46436617
-9.349558,-1.6516117,0.46436617
-9.272962,-1.6228879999999999,0.44521707
-9.272962,-1.6228879999999999,0.44521707
-9.272962,-1.6228879999999999,0.44521707
-9.272962,-1.6228879999999999,0.44521707
-9.330409,-1.6037389,0.45479164
-9.330409,-1.6037389,0.45479164
-9.330409,-1.6037389,0.45479164
-9.330409,-1.6037389,0.45479164
-9.359133,-1.6707608,0.39734426
-9.359133,-1.6707608,0.39734426
-9.359133,-1.6707608,0.39734426
-9.359133,-1.6707608,0.39734426
-9.320834,-1.6899098999999997,0.4164934
-9.320834,-1.6899098999999997,0.4164934
-9.320834,-1.6899098999999997,0.4164934
-9.320834,-1.6899098999999997,0.4164934
-9.359133,-1.7186337,0.44521707
-9.359133,-1.7186337,0.44521707
-9.359133,-1.7186337,0.44521707
-9.359133,-1.7186337,0.44521707
-9.320834,-1.6611862000000002,0.48351530000000004
-9.320834,-1.6611862000000002,0.48351530000000004
-9.320834,-1.6611862000000002,0.48351530000000004
-9.320834,-1.6611862000000002,0.48351530000000004
-9.41658,-1.7377827000000001,0.3877697
-9.41658,-1.7377827000000001,0.3877697
-9.41658,-1.7377827000000001,0.3877697
-9.426155,-1.6611862000000002,0.48351530000000004
-9.426155,-1.6611862000000002,0.48351530000000004
-9.426155,-1.6611862000000002,0.48351530000000004
-9.426155,-1.6611862000000002,0.48351530000000004
-9.31126,-1.6037389,0.50266445
-9.31126,-1.6037389,0.50266445
-9.31126,-1.6037389,0.50266445
-9.31126,-1.6037389,0.50266445
-9.407005,-1.6324625,0.45479164
-9.407005,-1.6324625,0.45479164
-9.407005,-1.6324625,0.45479164
-9.407005,-1.6324625,0.45479164
-9.292110000000001,-1.7377827000000001,0.45479164
-9.292110000000001,-1.7377827000000001,0.45479164
-9.292110000000001,-1.7377827000000001,0.45479164
-9.292110000000001,-1.7377827000000001,0.45479164
-9.359133,-1.9005502,0.46436617
-9.359133,-1.9005502,0.46436617
-9.359133,-1.9005502,0.46436617
-9.359133,-1.9005502,0.46436617
-9.272962,-2.0058703,0.3877697
-9.272962,-2.0058703,0.3877697
-9.272962,-2.0058703,0.3877697
-9.272962,-2.0058703,0.3877697
-9.3878565,-2.1399142999999996,0.19627848
-9.3878565,-2.1399142999999996,0.19627848
-9.3878565,-2.1399142999999996,0.19627848
-9.301685,-2.0250196,0.2154276
-9.301685,-2.0250196,0.2154276
-9.301685,-2.0250196,0.2154276
-9.301685,-2.0250196,0.2154276
-9.301685,-2.0250196,0.2154276
-9.18679,-2.0728923999999997,0.081383765
-9.18679,-2.0728923999999997,0.081383765
-9.18679,-2.0728923999999997,0.081383765
-9.100619,-2.3505547000000004,0.0
-9.100619,-2.3505547000000004,0.0
-9.100619,-2.3505547000000004,0.0
-9.100619,-2.3505547000000004,0.0
-8.937852000000001,-2.6090677,0.0718092
-8.937852000000001,-2.6090677,0.0718092
-8.937852000000001,-2.6090677,0.0718092
-8.937852000000001,-2.6090677,0.0718092
-9.2825365,-2.6282167000000003,0.63670826
-9.2825365,-2.6282167000000003,0.63670826
-9.2825365,-2.6282167000000003,0.63670826
-9.2825365,-2.6282167000000003,0.63670826
-9.253813000000001,-2.149489,1.0962871
-9.253813000000001,-2.149489,1.0962871
-9.253813000000001,-2.149489,1.0962871
-9.253813000000001,-2.149489,1.0962871
-9.914457,-2.4845984,1.5367169
-9.914457,-2.4845984,1.5367169
-9.914457,-2.4845984,1.5367169
-9.914457,-2.4845984,1.5367169
-7.961247,-2.0250196,1.3739493999999999
-7.961247,-2.0250196,1.3739493999999999
-7.961247,-2.0250196,1.3739493999999999
-7.961247,-2.0250196,1.3739493999999999
-6.1899533,-1.5558661,1.1824582000000001
-6.1899533,-1.5558661,1.1824582000000001
-6.1899533,-1.5558661,1.1824582000000001
-10.565528,-3.078221,0.70373017
-10.565528,-3.078221,0.70373017
-10.565528,-3.078221,0.70373017
-10.565528,-3.078221,0.70373017
-19.603912,-9.41658,-0.19627848
-19.603912,-9.41658,-0.19627848
-19.603912,-9.41658,-0.19627848
-19.603912,-9.41658,-0.19627848
-9.407005,-12.90172,1.1250108
-9.407005,-12.90172,1.1250108
-9.407005,-12.90172,1.1250108
-9.407005,-12.90172,1.1250108
1.8335283,-9.138917999999999,1.3165021000000001
1.8335283,-9.138917999999999,1.3165021000000001
1.8335283,-9.138917999999999,1.3165021000000001
1.8335283,-9.138917999999999,1.3165021000000001
11.580430999999999,-4.6867475999999995,3.3654580000000003
11.580430999999999,-4.6867475999999995,3.3654580000000003
11.580430999999999,-4.6867475999999995,3.3654580000000003
11.580430999999999,-4.6867475999999995,3.3654580000000003
9.5889225,-8.708063000000001,2.3888528
9.5889225,-8.708063000000001,2.3888528
9.5889225,-8.708063000000001,2.3888528
-5.634629,-19.594337,2.34098
-5.634629,-19.594337,2.34098
-5.634629,-19.594337,2.34098
-5.634629,-19.594337,2.34098
-5.634629,-19.594337,2.34098
-19.57519,-19.55604,-0.20585304
-19.57519,-19.55604,-0.20585304
-19.57519,-19.55604,-0.20585304
-15.927280999999999,-9.684667999999999,-4.916537
-15.927280999999999,-9.684667999999999,-4.916537
-15.927280999999999,-9.684667999999999,-4.916537
-15.927280999999999,-9.684667999999999,-4.916537
-7.875075999999999,4.1984449999999995,-4.456958
-7.875075999999999,4.1984449999999995,-4.456958
-7.875075999999999,4.1984449999999995,-4.456958
-7.875075999999999,4.1984449999999995,-4.456958
-7.300602400000001,10.06765,-4.8207912
-7.300602400000001,10.06765,-4.8207912
-7.300602400000001,10.06765,-4.8207912
-7.300602400000001,10.06765,-4.8207912
-15.936856,7.9420977,-5.155901
-15.936856,7.9420977,-5.155901
-15.936856,7.9420977,-5.155901
-15.936856,7.9420977,-5.155901
-19.603912,-13.638962,-3.604822
-19.603912,-13.638962,-3.604822
-19.603912,-13.638962,-3.604822
-19.603912,-13.638962,-3.604822
-10.488931,-19.594337,0.25372586
-10.488931,-19.594337,0.25372586
-10.488931,-19.594337,0.25372586
-10.488931,-19.594337,0.25372586
9.407005,-11.848517999999999,-0.751603
9.407005,-11.848517999999999,-0.751603
9.407005,-11.848517999999999,-0.751603
13.390023000000001,-4.428234,-0.10053288
13.390023000000001,-4.428234,-0.10053288
13.390023000000001,-4.428234,-0.10053288
13.390023000000001,-4.428234,-0.10053288
10.967659,-10.958084,0.8473485999999999
10.967659,-10.958084,0.8473485999999999
10.967659,-10.958084,0.8473485999999999
10.967659,-10.958084,0.8473485999999999
0.49308985,-19.594337,-0.50266445
0.49308985,-19.594337,-0.50266445
0.49308985,-19.594337,-0.50266445
0.49308985,-19.594337,-0.50266445
-16.224092000000002,-19.594337,-2.0537431
-16.224092000000002,-19.594337,-2.0537431
-16.224092000000002,-19.594337,-2.0537431
-16.224092000000002,-19.594337,-2.0537431
-15.63047,-14.462373999999999,-3.5378
-15.63047,-14.462373999999999,-3.5378
-15.63047,-14.462373999999999,-3.5378
-15.63047,-14.462373999999999,-3.5378
-8.124015,3.0973704,-3.6143966
-8.124015,3.0973704,-3.6143966
-8.124015,3.0973704,-3.6143966
-8.124015,3.0973704,-3.6143966
-6.7357035000000005,8.928278,-3.4707782
-6.7357035000000005,8.928278,-3.4707782
-6.7357035000000005,8.928278,-3.4707782
-11.216598,6.429317500000001,-4.5622783
-11.216598,6.429317500000001,-4.5622783
-11.216598,6.429317500000001,-4.5622783
-11.216598,6.429317500000001,-4.5622783
-11.216598,6.429317500000001,-4.5622783
-18.703903,-5.941015,-4.4856815
-18.703903,-5.941015,-4.4856815
-18.703903,-5.941015,-4.4856815
-17.880491,-19.594337,-1.6516117
-17.880491,-19.594337,-1.6516117
-17.880491,-19.594337,-1.6516117
-17.880491,-19.594337,-1.6516117
-3.997379,-18.521988,-0.92394507
-3.997379,-18.521988,-0.92394507
-3.997379,-18.521988,-0.92394507
-3.997379,-18.521988,-0.92394507
8.430401,-7.300602400000001,0.014361841
8.430401,-7.300602400000001,0.014361841
8.430401,-7.300602400000001,0.014361841
8.430401,-7.300602400000001,0.014361841
12.499589,-3.078221,2.513322
12.499589,-3.078221,2.513322
12.499589,-3.078221,2.513322
12.499589,-3.078221,2.513322
11.551707,-10.354887,1.3643749
11.551707,-10.354887,1.3643749
11.551707,-10.354887,1.3643749
11.551707,-10.354887,1.3643749
1.0292653,-19.594337,-2.1111906000000005
1.0292653,-19.594337,-2.1111906000000005
1.0292653,-19.594337,-2.1111906000000005
-16.482605,-19.163483,-3.997379
-16.482605,-19.163483,-3.997379
-16.482605,-19.163483,-3.997379
-16.482605,-19.163483,-3.997379
-11.838944,-9.837861,-4.389936
-11.838944,-9.837861,-4.389936
-11.838944,-9.837861,-4.389936
-11.838944,-9.837861,-4.389936
-6.9654926999999995,6.7165539999999995,-3.6814184
-6.9654926999999995,6.7165539999999995,-3.6814184
-6.9654926999999995,6.7165539999999995,-3.6814184
-6.9654926999999995,6.7165539999999995,-3.6814184
-7.137835000000001,6.984642,-4.08355
-7.137835000000001,6.984642,-4.08355
-7.137835000000001,6.984642,-4.08355
-7.137835000000001,6.984642,-4.08355
-11.637878,4.1122737,-4.1792955
-11.637878,4.1122737,-4.1792955
-11.637878,4.1122737,-4.1792955
-11.637878,4.1122737,-4.1792955
-18.857098,-10.105948,-3.9495062999999995
-18.857098,-10.105948,-3.9495062999999995
-18.857098,-10.105948,-3.9495062999999995
-18.857098,-10.105948,-3.9495062999999995
-16.415585,-19.594337,1.383524
-16.415585,-19.594337,1.383524
-16.415585,-19.594337,1.383524
-0.63670826,-16.587927,0.6750065
-0.63670826,-16.587927,0.6750065
-0.63670826,-16.587927,0.6750065
-0.63670826,-16.587927,0.6750065
-0.63670826,-16.587927,0.6750065
7.2240057,-7.7793303,0.2154276
7.2240057,-7.7793303,0.2154276
7.2240057,-7.7793303,0.2154276
12.758101,-4.782493,1.8718264999999998
12.758101,-4.782493,1.8718264999999998
12.758101,-4.782493,1.8718264999999998
12.758101,-4.782493,1.8718264999999998
11.408089,-11.685751,2.015445
11.408089,-11.685751,2.015445
11.408089,-11.685751,2.015445
11.408089,-11.685751,2.015445
0.37819514,-19.594337,-0.59841
0.37819514,-19.594337,-0.59841
0.37819514,-19.594337,-0.59841
0.37819514,-19.594337,-0.59841
-17.191124,-19.335825,-3.2218397000000003
-17.191124,-19.335825,-3.2218397000000003
-17.191124,-19.335825,-3.2218397000000003
-17.191124,-19.335825,-3.2218397000000003
-14.155988,-11.513409,-4.658024
-14.155988,-11.513409,-4.658024
-14.155988,-11.513409,-4.658024
-14.155988,-11.513409,-4.658024
-8.832532,6.726128599999999,-3.2888615
-8.832532,6.726128599999999,-3.2888615
-8.832532,6.726128599999999,-3.2888615
-8.832532,6.726128599999999,-3.2888615
-7.693159,8.44955,-3.3654580000000003
-7.693159,8.44955,-3.3654580000000003
-7.693159,8.44955,-3.3654580000000003
-11.676176,3.844186,-4.409085299999999
-11.676176,3.844186,-4.409085299999999
-11.676176,3.844186,-4.409085299999999
-11.676176,3.844186,-4.409085299999999
-11.676176,3.844186,-4.409085299999999
-18.713478,-10.575102000000001,-4.6771727
-18.713478,-10.575102000000001,-4.6771727
-18.713478,-10.575102000000001,-4.6771727
-18.062407999999998,-19.594337,-0.36862057
-18.062407999999998,-19.594337,-0.36862057
-18.062407999999998,-19.594337,-0.36862057
-18.062407999999998,-19.594337,-0.36862057
-3.2218397000000003,-17.794321,0.6750065
-3.2218397000000003,-17.794321,0.6750065
-3.2218397000000003,-17.794321,0.6750065
-3.2218397000000003,-17.794321,0.6750065
8.631466,-6.8410234,0.0718092
8.631466,-6.8410234,0.0718092
8.631466,-6.8410234,0.0718092
8.631466,-6.8410234,0.0718092
12.174053,-4.648448999999999,1.9005502
12.174053,-4.648448999999999,1.9005502
12.174053,-4.648448999999999,1.9005502
12.174053,-4.648448999999999,1.9005502
12.499589,-9.828286,3.0686467
12.499589,-9.828286,3.0686467
12.499589,-9.828286,3.0686467
5.1176023,-19.077312,-1.1345854
5.1176023,-19.077312,-1.1345854
5.1176023,-19.077312,-1.1345854
5.1176023,-19.077312,-1.1345854
-18.809223,-19.594337,-1.9388485
-18.809223,-19.594337,-1.9388485
-18.809223,-19.594337,-1.9388485
-18.809223,-19.594337,-1.9388485
-17.047504,-13.370873000000001,-4.5910015
-17.047504,-13.370873000000001,-4.5910015
-17.047504,-13.370873000000001,-4.5910015
-17.047504,-13.370873000000001,-4.5910015
-9.742115,7.808053999999999,-6.304848000000001
-9.742115,7.808053999999999,-6.304848000000001
-9.742115,7.808053999999999,-6.304848000000001
-9.742115,7.808053999999999,-6.304848000000001
-9.818711,10.651698,-6.323997
-9.818711,10.651698,-6.323997
-9.818711,10.651698,-6.323997
-9.818711,10.651698,-6.323997
-13.801729000000002,4.610151,-5.4431376
-13.801729000000002,4.610151,-5.4431376
-13.801729000000002,4.610151,-5.4431376
-13.801729000000002,4.610151,-5.4431376
-19.3454,-12.595334,-1.0675635
-19.3454,-12.595334,-1.0675635
-19.3454,-12.595334,-1.0675635
-19.3454,-12.595334,-1.0675635
-14.299605999999999,-19.594337,2.6377914000000002
-14.299605999999999,-19.594337,2.6377914000000002
-14.299605999999999,-19.594337,2.6377914000000002
0.69415563,-17.420912,1.6324625
0.69415563,-17.420912,1.6324625
0.69415563,-17.420912,1.6324625
0.69415563,-17.420912,1.6324625
8.803808,-6.151655,0.49308985
8.803808,-6.151655,0.49308985
8.803808,-6.151655,0.49308985
8.803808,-6.151655,0.49308985
13.610238,-4.7920675,1.9579976000000003
13.610238,-4.7920675,1.9579976000000003
13.610238,-4.7920675,1.9579976000000003
13.610238,-4.7920675,1.9579976000000003
12.384694,-13.418745999999999,1.2016073
12.384694,-13.418745999999999,1.2016073
12.384694,-13.418745999999999,1.2016073
12.384694,-13.418745999999999,1.2016073
-6.6878304,-19.594337,-0.56011176
-6.6878304,-19.594337,-0.56011176
-6.6878304,-19.594337,-0.56011176
-6.6878304,-19.594337,-0.56011176
-19.603912,-19.173057999999997,-2.101616
-19.603912,-19.173057999999997,-2.101616
-19.603912,-19.173057999999997,-2.101616
-19.603912,-19.173057999999997,-2.101616
-13.954922,-6.0559096,-4.1409974
-13.954922,-6.0559096,-4.1409974
-13.954922,-6.0559096,-4.1409974
-8.210186,9.85701,-3.5378
-8.210186,9.85701,-3.5378
-8.210186,9.85701,-3.5378
-8.210186,9.85701,-3.5378
-8.210186,9.85701,-3.5378
-10.316589,8.459125,-4.0548263
-10.316589,8.459125,-4.0548263
-10.316589,8.459125,-4.0548263
-16.492179999999998,0.5505372,-3.7197167999999996
-16.492179999999998,0.5505372,-3.7197167999999996
-16.492179999999998,0.5505372,-3.7197167999999996
-16.492179999999998,0.5505372,-3.7197167999999996
-19.603912,-18.541135999999998,-2.6186423
-19.603912,-18.541135999999998,-2.6186423
-19.603912,-18.541135999999998,-2.6186423
-19.603912,-18.541135999999998,-2.6186423
-13.303852,-19.594337,-1.4601203999999999
-13.303852,-19.594337,-1.4601203999999999
-13.303852,-19.594337,-1.4601203999999999
-13.303852,-19.594337,-1.4601203999999999
1.776081,-13.504917,-1.2590546999999999
1.776081,-13.504917,-1.2590546999999999
1.776081,-13.504917,-1.2590546999999999
1.776081,-13.504917,-1.2590546999999999
13.093211,-6.5729356,1.4505458999999998
13.093211,-6.5729356,1.4505458999999998
13.093211,-6.5729356,1.4505458999999998
13.093211,-6.5729356,1.4505458999999998
13.734707,-10.316589,2.408002
13.734707,-10.316589,2.408002
13.734707,-10.316589,2.408002
13.734707,-10.316589,2.408002
6.3718699999999995,-18.081557999999998,0.03351096
6.3718699999999995,-18.081557999999998,0.03351096
6.3718699999999995,-18.081557999999998,0.03351096
-8.047417999999999,-19.594337,-2.7814097
-8.047417999999999,-19.594337,-2.7814097
-8.047417999999999,-19.594337,-2.7814097
-8.047417999999999,-19.594337,-2.7814097
-19.479443,-18.608158,-3.8058877
-19.479443,-18.608158,-3.8058877
-19.479443,-18.608158,-3.8058877
-19.479443,-18.608158,-3.8058877
-11.972988,-0.44521707,-5.1176023
-11.972988,-0.44521707,-5.1176023
-11.972988,-0.44521707,-5.1176023
-11.972988,-0.44521707,-5.1176023
-8.746361,12.758101,-4.150572
-8.746361,12.758101,-4.150572
-8.746361,12.758101,-4.150572
-8.746361,12.758101,-4.150572
-12.202777000000001,5.2037735000000005,-4.409085299999999
-12.202777000000001,5.2037735000000005,-4.409085299999999
-12.202777000000001,5.2037735000000005,-4.409085299999999
-12.202777000000001,5.2037735000000005,-4.409085299999999
-17.851768,-4.8590894,-3.2601378
-17.851768,-4.8590894,-3.2601378
-17.851768,-4.8590894,-3.2601378
-17.851768,-4.8590894,-3.2601378
-18.885820000000002,-19.594337,0.64628285
-18.885820000000002,-19.594337,0.64628285
-18.885820000000002,-19.594337,0.64628285
-6.9559183,-19.517742000000002,1.7665064
-6.9559183,-19.517742000000002,1.7665064
-6.9559183,-19.517742000000002,1.7665064
-6.9559183,-19.517742000000002,1.7665064
2.9441773999999996,-11.551707,1.9196993000000002
2.9441773999999996,-11.551707,1.9196993000000002
2.9441773999999996,-11.551707,1.9196993000000002
2.9441773999999996,-11.551707,1.9196993000000002
12.336822,-6.2378263,2.8101335
12.336822,-6.2378263,2.8101335
12.336822,-6.2378263,2.8101335
12.336822,-6.2378263,2.8101335
12.69108,-11.063405,3.2505634
12.69108,-11.063405,3.2505634
12.69108,-11.063405,3.2505634
12.69108,-11.063405,3.2505634
3.212265,-18.44539,1.5845897
3.212265,-18.44539,1.5845897
3.212265,-18.44539,1.5845897
3.212265,-18.44539,1.5845897
-15.477276999999999,-19.594337,-0.71330476
-15.477276999999999,-19.594337,-0.71330476
-15.477276999999999,-19.594337,-0.71330476
-19.010289999999998,-15.94643,-3.7101421
-19.010289999999998,-15.94643,-3.7101421
-19.010289999999998,-15.94643,-3.7101421
-19.010289999999998,-15.94643,-3.7101421
-19.010289999999998,-15.94643,-3.7101421
-10.0868,3.8920587999999996,-4.4952559999999995
-10.0868,3.8920587999999996,-4.4952559999999995
-10.0868,3.8920587999999996,-4.4952559999999995
-8.516571,11.4272375,-3.8250370000000005
-8.516571,11.4272375,-3.8250370000000005
-8.516571,11.4272375,-3.8250370000000005
-8.516571,11.4272375,-3.8250370000000005
-9.483603,6.429317500000001,-4.409085299999999
-9.483603,6.429317500000001,-4.409085299999999
-9.483603,6.429317500000001,-4.409085299999999
-9.483603,6.429317500000001,-4.409085299999999
-15.103869,-1.5271424,-4.849515
-15.103869,-1.5271424,-4.849515
-15.103869,-1.5271424,-4.849515
-15.103869,-1.5271424,-4.849515
-19.603912,-19.594337,0.043085523
-19.603912,-19.594337,0.043085523
-19.603912,-19.594337,0.043085523
-19.603912,-19.594337,0.043085523
-7.894225,-19.594337,1.8909756999999998
-7.894225,-19.594337,1.8909756999999998
-7.894225,-19.594337,1.8909756999999998
-7.894225,-19.594337,1.8909756999999998
4.715471,-11.590005999999999,1.2111819
4.715471,-11.590005999999999,1.2111819
4.715471,-11.590005999999999,1.2111819
4.715471,-11.590005999999999,1.2111819
12.595334,-4.8590894,2.733537
12.595334,-4.8590894,2.733537
12.595334,-4.8590894,2.733537
13.3612995,-5.7016506,4.3995104000000005
13.3612995,-5.7016506,4.3995104000000005
13.3612995,-5.7016506,4.3995104000000005
13.3612995,-5.7016506,4.3995104000000005
13.3612995,-5.7016506,4.3995104000000005
6.0463347,-16.95176,2.34098
6.0463347,-16.95176,2.34098
6.0463347,-16.95176,2.34098
-9.397431,-19.594337,-0.98139244
-9.397431,-19.594337,-0.98139244
-9.397431,-19.594337,-0.98139244
-9.397431,-19.594337,-0.98139244
-19.192207,-18.617732999999998,-4.658024
-19.192207,-18.617732999999998,-4.658024
-19.192207,-18.617732999999998,-4.658024
-19.192207,-18.617732999999998,-4.658024
-10.335738000000001,-1.5271424,-5.299519
-10.335738000000001,-1.5271424,-5.299519
-10.335738000000001,-1.5271424,-5.299519
-10.335738000000001,-1.5271424,-5.299519
-9.512326,10.919786,-4.428234
-9.512326,10.919786,-4.428234
-9.512326,10.919786,-4.428234
-9.512326,10.919786,-4.428234
-11.982562,5.8931417,-3.9112080000000002
-11.982562,5.8931417,-3.9112080000000002
-11.982562,5.8931417,-3.9112080000000002
-11.982562,5.8931417,-3.9112080000000002
-15.161317000000002,-2.867581,-2.6282167000000003
-15.161317000000002,-2.867581,-2.6282167000000003
-15.161317000000002,-2.867581,-2.6282167000000003
-19.527314999999998,-19.594337,1.469695
-19.527314999999998,-19.594337,1.469695
-19.527314999999998,-19.594337,1.469695
-19.527314999999998,-19.594337,1.469695
-8.277207,-19.527314999999998,2.5037475
-8.277207,-19.527314999999998,2.5037475
-8.277207,-19.527314999999998,2.5037475
-8.277207,-19.527314999999998,2.5037475
5.0601554,-10.2016945,1.2782038
5.0601554,-10.2016945,1.2782038
5.0601554,-10.2016945,1.2782038
5.0601554,-10.2016945,1.2782038
16.84644,-4.7537694,2.0250196
16.84644,-4.7537694,2.0250196
16.84644,-4.7537694,2.0250196
16.84644,-4.7537694,2.0250196
15.812386499999999,-11.044255,1.4601203999999999
15.812386499999999,-11.044255,1.4601203999999999
15.812386499999999,-11.044255,1.4601203999999999
15.812386499999999,-11.044255,1.4601203999999999
3.193116,-18.732628,-0.90479594
3.193116,-18.732628,-0.90479594
3.193116,-18.732628,-0.90479594
3.193116,-18.732628,-0.90479594
-17.765596,-19.594337,-1.6707608
-17.765596,-19.594337,-1.6707608
-17.765596,-19.594337,-1.6707608
-18.569860000000002,-13.705982999999998,-3.2409887000000004
-18.569860000000002,-13.705982999999998,-3.2409887000000004
-18.569860000000002,-13.705982999999998,-3.2409887000000004
-18.569860000000002,-13.705982999999998,-3.2409887000000004
-18.569860000000002,-13.705982999999998,-3.2409887000000004
-8.7750845,8.028269,-3.8250370000000005
-8.7750845,8.028269,-3.8250370000000005
-8.7750845,8.028269,-3.8250370000000005
-7.664436,12.844273,-5.041005999999999
-7.664436,12.844273,-5.041005999999999
-7.664436,12.844273,-5.041005999999999
-7.664436,12.844273,-5.041005999999999
-16.358137,6.0463347,-6.5537868
-16.358137,6.0463347,-6.5537868
-16.358137,6.0463347,-6.5537868
-16.358137,6.0463347,-6.5537868
-19.55604,-14.969825,-3.9399316
-19.55604,-14.969825,-3.9399316
-19.55604,-14.969825,-3.9399316
-19.55604,-14.969825,-3.9399316
-17.775171,-19.594337,2.5899186000000003
-17.775171,-19.594337,2.5899186000000003
-17.775171,-19.594337,2.5899186000000003
-17.775171,-19.594337,2.5899186000000003
-2.88673,-17.07623,1.8814011999999998
-2.88673,-17.07623,1.8814011999999998
-2.88673,-17.07623,1.8814011999999998
13.667685500000001,-8.076141,2.0633178
13.667685500000001,-8.076141,2.0633178
13.667685500000001,-8.076141,2.0633178
13.667685500000001,-8.076141,2.0633178
13.667685500000001,-8.076141,2.0633178
15.448553,-9.110194,3.7292912000000005
15.448553,-9.110194,3.7292912000000005
15.448553,-9.110194,3.7292912000000005
5.653778,-18.091131,2.666515
5.653778,-18.091131,2.666515
5.653778,-18.091131,2.666515
5.653778,-18.091131,2.666515
-12.413418,-19.594337,0.23457673
-12.413418,-19.594337,0.23457673
-12.413418,-19.594337,0.23457673
-12.413418,-19.594337,0.23457673
-19.603912,-18.818798,-3.3080106
-19.603912,-18.818798,-3.3080106
-19.603912,-18.818798,-3.3080106
-19.603912,-18.818798,-3.3080106
-12.8538475,-0.77075213,-5.941015
-12.8538475,-0.77075213,-5.941015
-12.8538475,-0.77075213,-5.941015
-12.8538475,-0.77075213,-5.941015
-8.210186,12.298523,-5.1271772
-8.210186,12.298523,-5.1271772
-8.210186,12.298523,-5.1271772
-8.210186,12.298523,-5.1271772
-12.834699,7.35805,-5.347392
-12.834699,7.35805,-5.347392
-12.834699,7.35805,-5.347392
-12.834699,7.35805,-5.347392
-15.333657999999998,3.5378,-4.476107
-15.333657999999998,3.5378,-4.476107
-15.333657999999998,3.5378,-4.476107
-19.603912,-19.144333,0.081383765
-19.603912,-19.144333,0.081383765
-19.603912,-19.144333,0.081383765
-19.603912,-19.144333,0.081383765
-8.708063000000001,-19.594337,2.0058703
-8.708063000000001,-19.594337,2.0058703
-8.708063000000001,-19.594337,2.0058703
-8.708063000000001,-19.594337,2.0058703
7.2335806,-11.207023,1.0196906
7.2335806,-11.207023,1.0196906
7.2335806,-11.207023,1.0196906
7.2335806,-11.207023,1.0196906
12.872996,-4.8878129999999995,3.7580150000000003
12.872996,-4.8878129999999995,3.7580150000000003
12.872996,-4.8878129999999995,3.7580150000000003
12.872996,-4.8878129999999995,3.7580150000000003
11.130426,-9.18679,5.1176023
11.130426,-9.18679,5.1176023
11.130426,-9.18679,5.1176023
11.130426,-9.18679,5.1176023
3.8824842000000004,-16.319838,2.5516202
3.8824842000000004,-16.319838,2.5516202
3.8824842000000004,-16.319838,2.5516202
3.8824842000000004,-16.319838,2.5516202
3.8824842000000004,-16.319838,2.5516202
3.8824842000000004,-16.319838,2.5516202
3.8824842000000004,-16.319838,2.5516202
-19.249653,-16.358137,-2.9346027
-19.249653,-16.358137,-2.9346027
-19.249653,-16.358137,-2.9346027
-19.249653,-16.358137,-2.9346027
-10.804892,4.3324885,-6.333572
-10.804892,4.3324885,-6.333572
-10.804892,4.3324885,-6.333572
-10.804892,4.3324885,-6.333572
-8.957002000000001,13.696407999999998,-7.271878699999999
-8.957002000000001,13.696407999999998,-7.271878699999999
-8.957002000000001,13.696407999999998,-7.271878699999999
-8.957002000000001,13.696407999999998,-7.271878699999999
-12.145328999999998,7.252729400000001,-6.5825105
-12.145328999999998,7.252729400000001,-6.5825105
-12.145328999999998,7.252729400000001,-6.5825105
-12.145328999999998,7.252729400000001,-6.5825105
-17.966663,-6.2474008,-3.690993
-17.966663,-6.2474008,-3.690993
-17.966663,-6.2474008,-3.690993
-18.110281,-19.594337,1.8526775000000002
-18.110281,-19.594337,1.8526775000000002
-18.110281,-19.594337,1.8526775000000002
-18.110281,-19.594337,1.8526775000000002
-5.1176023,-18.675179999999997,1.4313968000000001
-5.1176023,-18.675179999999997,1.4313968000000001
-5.1176023,-18.675179999999997,1.4313968000000001
-5.1176023,-18.675179999999997,1.4313968000000001
7.4442205,-11.226172,1.7665064
7.4442205,-11.226172,1.7665064
7.4442205,-11.226172,1.7665064
7.4442205,-11.226172,1.7665064
15.63047,-6.668680999999999,4.3516379999999995
15.63047,-6.668680999999999,4.3516379999999995
15.63047,-6.668680999999999,4.3516379999999995
15.63047,-6.668680999999999,4.3516379999999995
9.85701,-12.987891000000001,4.476107
9.85701,-12.987891000000001,4.476107
9.85701,-12.987891000000001,4.476107
9.85701,-12.987891000000001,4.476107
0.17712937,-19.106035000000002,1.9101248
0.17712937,-19.106035000000002,1.9101248
0.17712937,-19.106035000000002,1.9101248
0.17712937,-19.106035000000002,1.9101248
0.17712937,-19.106035000000002,1.9101248
0.17712937,-19.106035000000002,1.9101248
0.17712937,-19.106035000000002,1.9101248
-16.913462,-14.740035999999998,-3.4133307999999998
-16.913462,-14.740035999999998,-3.4133307999999998
-16.913462,-14.740035999999998,-3.4133307999999998
-16.913462,-14.740035999999998,-3.4133307999999998
-11.312344,6.333572,-4.9069624
-11.312344,6.333572,-4.9069624
-11.312344,6.333572,-4.9069624
-11.312344,6.333572,-4.9069624
-10.843189,13.370873000000001,-4.6005764000000005
-10.843189,13.370873000000001,-4.6005764000000005
-10.843189,13.370873000000001,-4.6005764000000005
-10.843189,13.370873000000001,-4.6005764000000005
-12.2410755,5.529309,-4.236743
-12.2410755,5.529309,-4.236743
-12.2410755,5.529309,-4.236743
-12.2410755,5.529309,-4.236743
-18.483688,-4.6867475999999995,-6.438892
-18.483688,-4.6867475999999995,-6.438892
-18.483688,-4.6867475999999995,-6.438892
-19.278378,-19.594337,0.7420284
-19.278378,-19.594337,0.7420284
-19.278378,-19.594337,0.7420284
-19.278378,-19.594337,0.7420284
-6.180379,-17.497509,2.8197080000000003
-6.180379,-17.497509,2.8197080000000003
-6.180379,-17.497509,2.8197080000000003
-6.180379,-17.497509,2.8197080000000003
10.383611,-11.417664,4.121848
10.383611,-11.417664,4.121848
10.383611,-11.417664,4.121848
10.383611,-11.417664,4.121848
13.954922,-9.301685,6.639958
13.954922,-9.301685,6.639958
13.954922,-9.301685,6.639958
13.954922,-9.301685,6.639958
5.711225499999999,-15.419829,5.653778
5.711225499999999,-15.419829,5.653778
5.711225499999999,-15.419829,5.653778
5.711225499999999,-15.419829,5.653778
-10.92936,-19.594337,1.9771467
-10.92936,-19.594337,1.9771467
-10.92936,-19.594337,1.9771467
-10.92936,-19.594337,1.9771467
-19.603912,-19.364548000000003,-1.8335283
-19.603912,-19.364548000000003,-1.8335283
-19.603912,-19.364548000000003,-1.8335283
-17.545382,-3.8920587999999996,-5.1367517
-17.545382,-3.8920587999999996,-5.1367517
-17.545382,-3.8920587999999996,-5.1367517
-17.545382,-3.8920587999999996,-5.1367517
-11.140001,14.634716000000001,-4.610151
-11.140001,14.634716000000001,-4.610151
-11.140001,14.634716000000001,-4.610151
-11.140001,14.634716000000001,-4.610151
-9.41658,10.603826,-3.212265
-9.41658,10.603826,-3.212265
-9.41658,10.603826,-3.212265
-9.41658,10.603826,-3.212265
-14.548545,2.6282167000000003,-3.6335455999999997
-14.548545,2.6282167000000003,-3.6335455999999997
-14.548545,2.6282167000000003,-3.6335455999999997
-14.548545,2.6282167000000003,-3.6335455999999997
-19.603912,-17.870916,-1.8048046999999998
-19.603912,-17.870916,-1.8048046999999998
-19.603912,-17.870916,-1.8048046999999998
-19.603912,-17.870916,-1.8048046999999998
-13.99322,-19.594337,1.7186337
-13.99322,-19.594337,1.7186337
-13.99322,-19.594337,1.7186337
2.6377914000000002,-11.570856,2.0824668
2.6377914000000002,-11.570856,2.0824668
2.6377914000000002,-11.570856,2.0824668
2.6377914000000002,-11.570856,2.0824668
2.6377914000000002,-11.570856,2.0824668
16.961334,-5.778247400000001,2.3026817000000004
16.961334,-5.778247400000001,2.3026817000000004
16.961334,-5.778247400000001,2.3026817000000004
11.609155,-12.67193,2.7622607000000006
11.609155,-12.67193,2.7622607000000006
11.609155,-12.67193,2.7622607000000006
11.609155,-12.67193,2.7622607000000006
0.8090504,-18.569860000000002,0.99096704
0.8090504,-18.569860000000002,0.99096704
0.8090504,-18.569860000000002,0.99096704
0.8090504,-18.569860000000002,0.99096704
-16.93261,-19.594337,1.0388398
-16.93261,-19.594337,1.0388398
-16.93261,-19.594337,1.0388398
-16.93261,-19.594337,1.0388398
-19.603912,-16.856014000000002,-1.1920328000000002
-19.603912,-16.856014000000002,-1.1920328000000002
-19.603912,-16.856014000000002,-1.1920328000000002
-19.603912,-16.856014000000002,-1.1920328000000002
-13.227255,4.811217,-3.5665237999999997
-13.227255,4.811217,-3.5665237999999997
-13.227255,4.811217,-3.5665237999999997
-13.227255,4.811217,-3.5665237999999997
-8.181462,14.395351000000002,-2.4654493
-8.181462,14.395351000000002,-2.4654493
-8.181462,14.395351000000002,-2.4654493
-8.181462,14.395351000000002,-2.4654493
-10.651698,8.765511,-3.2409887000000004
-10.651698,8.765511,-3.2409887000000004
-10.651698,8.765511,-3.2409887000000004
-16.923035000000002,-1.9962958,-4.6293
-16.923035000000002,-1.9962958,-4.6293
-16.923035000000002,-1.9962958,-4.6293
-16.923035000000002,-1.9962958,-4.6293
-16.923035000000002,-1.9962958,-4.6293
-19.603912,-19.594337,-0.7994758000000001
-19.603912,-19.594337,-0.7994758000000001
-19.603912,-19.594337,-0.7994758000000001
-7.243155000000001,-19.489017,0.3111732
-7.243155000000001,-19.489017,0.3111732
-7.243155000000001,-19.489017,0.3111732
-7.243155000000001,-19.489017,0.3111732
8.066567,-10.383611,1.2016073
8.066567,-10.383611,1.2016073
8.066567,-10.383611,1.2016073
8.066567,-10.383611,1.2016073
17.717724,-5.2133484,3.5952474999999997
17.717724,-5.2133484,3.5952474999999997
17.717724,-5.2133484,3.5952474999999997
17.717724,-5.2133484,3.5952474999999997
11.934689500000001,-13.323001000000001,1.9101248
11.934689500000001,-13.323001000000001,1.9101248
11.934689500000001,-13.323001000000001,1.9101248
11.934689500000001,-13.323001000000001,1.9101248
-2.4175766,-19.594337,0.23457673
-2.4175766,-19.594337,0.23457673
-2.4175766,-19.594337,0.23457673
-2.4175766,-19.594337,0.23457673
-17.832619,-19.43157,-1.2303311000000001
-17.832619,-19.43157,-1.2303311000000001
-17.832619,-19.43157,-1.2303311000000001
-17.832619,-19.43157,-1.2303311000000001
-14.759185,-11.235746,-2.3122563
-14.759185,-11.235746,-2.3122563
-14.759185,-11.235746,-2.3122563
-7.520817299999999,9.091045,-3.4420545
-7.520817299999999,9.091045,-3.4420545
-7.520817299999999,9.091045,-3.4420545
-7.520817299999999,9.091045,-3.4420545
-10.986808,13.457045,-6.0463347
-10.986808,13.457045,-6.0463347
-10.986808,13.457045,-6.0463347
-10.986808,13.457045,-6.0463347
-18.167728,4.868664,-5.5963306
-18.167728,4.868664,-5.5963306
-18.167728,4.868664,-5.5963306
-18.167728,4.868664,-5.5963306
-19.603912,-19.402847,-1.0867126
-19.603912,-19.402847,-1.0867126
-19.603912,-19.402847,-1.0867126
-19.603912,-19.402847,-1.0867126
-12.6527815,-19.594337,1.0579889
-12.6527815,-19.594337,1.0579889
-12.6527815,-19.594337,1.0579889
-12.6527815,-19.594337,1.0579889
0.20585304,-13.169807,0.61755913
0.20585304,-13.169807,0.61755913
0.20585304,-13.169807,0.61755913
8.870830999999999,-5.0505805,-0.26330042
8.870830999999999,-5.0505805,-0.26330042
8.870830999999999,-5.0505805,-0.26330042
8.870830999999999,-5.0505805,-0.26330042
13.954922,-6.1612295999999995,1.948423
13.954922,-6.1612295999999995,1.948423
13.954922,-6.1612295999999995,1.948423
13.954922,-6.1612295999999995,1.948423
7.9420977,-14.854931,2.34098
7.9420977,-14.854931,2.34098
7.9420977,-14.854931,2.34098
7.9420977,-14.854931,2.34098
-8.861256,-19.594337,1.5079931999999998
-8.861256,-19.594337,1.5079931999999998
-8.861256,-19.594337,1.5079931999999998
-8.861256,-19.594337,1.5079931999999998
-19.603912,-18.971989999999998,0.43564250000000004
-19.603912,-18.971989999999998,0.43564250000000004
-19.603912,-18.971989999999998,0.43564250000000004
-19.603912,-18.971989999999998,0.43564250000000004
-13.99322,-0.512239,-4.0356774
-13.99322,-0.512239,-4.0356774
-13.99322,-0.512239,-4.0356774
-13.99322,-0.512239,-4.0356774
-8.191036,15.745364000000002,-5.739949
-8.191036,15.745364000000002,-5.739949
-8.191036,15.745364000000002,-5.739949
-10.910212,8.832532,-5.9697385
-10.910212,8.832532,-5.9697385
-10.910212,8.832532,-5.9697385
-10.910212,8.832532,-5.9697385
-10.910212,8.832532,-5.9697385
-18.033684,-2.6282167000000003,-5.8739930000000005
-18.033684,-2.6282167000000003,-5.8739930000000005
-18.033684,-2.6282167000000003,-5.8739930000000005
-19.53689,-19.594337,-0.54096264
-19.53689,-19.594337,-0.54096264
-19.53689,-19.594337,-0.54096264
-19.53689,-19.594337,-0.54096264
-7.4154973,-18.483688,1.0579889
-7.4154973,-18.483688,1.0579889
-7.4154973,-18.483688,1.0579889
-7.4154973,-18.483688,1.0579889
6.3814445,-8.679339,1.3739493999999999
6.3814445,-8.679339,1.3739493999999999
6.3814445,-8.679339,1.3739493999999999
6.3814445,-8.679339,1.3739493999999999
13.619812,-6.946343400000001,3.2409887000000004
13.619812,-6.946343400000001,3.2409887000000004
13.619812,-6.946343400000001,3.2409887000000004
13.619812,-6.946343400000001,3.2409887000000004
12.327247,-12.308098,2.6377914000000002
12.327247,-12.308098,2.6377914000000002
12.327247,-12.308098,2.6377914000000002
12.327247,-12.308098,2.6377914000000002
-0.39734426,-18.981565,-0.8281995000000001
-0.39734426,-18.981565,-0.8281995000000001
-0.39734426,-18.981565,-0.8281995000000001
-0.39734426,-18.981565,-0.8281995000000001
-19.354975,-19.594337,-2.3697037999999995
-19.354975,-19.594337,-2.3697037999999995
-19.354975,-19.594337,-2.3697037999999995
-17.085804,-11.168725,-4.08355
-17.085804,-11.168725,-4.08355
-17.085804,-11.168725,-4.08355
-17.085804,-11.168725,-4.08355
-17.085804,-11.168725,-4.08355
-9.004874000000001,11.235746,-4.954835
-9.004874000000001,11.235746,-4.954835
-9.004874000000001,11.235746,-4.954835
-7.5112429999999994,11.580430999999999,-4.8207912
-7.5112429999999994,11.580430999999999,-4.8207912
-7.5112429999999994,11.580430999999999,-4.8207912
-7.5112429999999994,11.580430999999999,-4.8207912
-13.447470000000001,4.466532,-4.7537694
-13.447470000000001,4.466532,-4.7537694
-13.447470000000001,4.466532,-4.7537694
-13.447470000000001,4.466532,-4.7537694
-18.857098,-9.96233,-0.93351966
-18.857098,-9.96233,-0.93351966
-18.857098,-9.96233,-0.93351966
-18.857098,-9.96233,-0.93351966
-18.34007,-19.594337,3.4324798999999997
-18.34007,-19.594337,3.4324798999999997
-18.34007,-19.594337,3.4324798999999997
-18.34007,-19.594337,3.4324798999999997
-4.5144053,-17.334742000000002,-0.023936402000000002
-4.5144053,-17.334742000000002,-0.023936402000000002
-4.5144053,-17.334742000000002,-0.023936402000000002
-4.5144053,-17.334742000000002,-0.023936402000000002
11.341067,-8.784659,0.110107444
11.341067,-8.784659,0.110107444
11.341067,-8.784659,0.110107444
15.888982999999998,-7.635712,1.709059
15.888982999999998,-7.635712,1.709059
15.888982999999998,-7.635712,1.709059
15.888982999999998,-7.635712,1.709059
6.9942164,-15.333657999999998,2.101616
6.9942164,-15.333657999999998,2.101616
6.9942164,-15.333657999999998,2.101616
6.9942164,-15.333657999999998,2.101616
-7.961247,-19.594337,0.751603
-7.961247,-19.594337,0.751603
-7.961247,-19.594337,0.751603
-7.961247,-19.594337,0.751603
-19.603912,-19.594337,-1.9292740000000002
-19.603912,-19.594337,-1.9292740000000002
-19.603912,-19.594337,-1.9292740000000002
-19.603912,-19.594337,-1.9292740000000002
-13.23683,-8.784659,-3.212265
-13.23683,-8.784659,-3.212265
-13.23683,-8.784659,-3.212265
-13.23683,-8.784659,-3.212265
-7.865501400000001,9.349558,-4.8303657
-7.865501400000001,9.349558,-4.8303657
-7.865501400000001,9.349558,-4.8303657
-7.865501400000001,9.349558,-4.8303657
-9.5889225,11.934689500000001,-5.366541000000001
-9.5889225,11.934689500000001,-5.366541000000001
-9.5889225,11.934689500000001,-5.366541000000001
-14.395351000000002,4.389936,-4.5910015
-14.395351000000002,4.389936,-4.5910015
-14.395351000000002,4.389936,-4.5910015
-14.395351000000002,4.389936,-4.5910015
-19.603912,-17.009207,-1.1824582000000001
-19.603912,-17.009207,-1.1824582000000001
-19.603912,-17.009207,-1.1824582000000001
-19.603912,-17.009207,-1.1824582000000001
-15.314509,-19.594337,2.9824755
-15.314509,-19.594337,2.9824755
-15.314509,-19.594337,2.9824755
-15.314509,-19.594337,2.9824755
-0.28244954,-12.030436,0.6750065
-0.28244954,-12.030436,0.6750065
-0.28244954,-12.030436,0.6750065
-0.28244954,-12.030436,0.6750065
7.9133744,-4.9835587,-0.70373017
7.9133744,-4.9835587,-0.70373017
7.9133744,-4.9835587,-0.70373017
7.9133744,-4.9835587,-0.70373017
13.457045,-6.726128599999999,0.71330476
13.457045,-6.726128599999999,0.71330476
13.457045,-6.726128599999999,0.71330476
13.457045,-6.726128599999999,0.71330476
11.877241999999999,-16.042175,3.6814184
11.877241999999999,-16.042175,3.6814184
11.877241999999999,-16.042175,3.6814184
-2.2069361,-19.594337,4.0548263
-2.2069361,-19.594337,4.0548263
-2.2069361,-19.594337,4.0548263
-2.2069361,-19.594337,4.0548263
-2.2069361,-19.594337,4.0548263
-19.603912,-19.508167,-2.752686
-19.603912,-19.508167,-2.752686
-19.603912,-19.508167,-2.752686
-18.158154,-7.3389006,-7.0133657000000005
-18.158154,-7.3389006,-7.0133657000000005
-18.158154,-7.3389006,-7.0133657000000005
-18.158154,-7.3389006,-7.0133657000000005
-18.158154,-7.3389006,-7.0133657000000005
-18.158154,-7.3389006,-7.0133657000000005
-18.158154,-7.3389006,-7.0133657000000005
-18.158154,-7.3389006,-7.0133657000000005
-10.488931,9.091045,-3.9495062999999995
-10.488931,9.091045,-3.9495062999999995
-10.488931,9.091045,-3.9495062999999995
-13.217680999999999,3.212265,-3.2505634
-13.217680999999999,3.212265,-3.2505634
-13.217680999999999,3.212265,-3.2505634
-13.217680999999999,3.212265,-3.2505634
-19.603912,-16.923035000000002,-1.7952299999999999
-19.603912,-16.923035000000002,-1.7952299999999999
-19.603912,-16.923035000000002,-1.7952299999999999
-19.603912,-16.923035000000002,-1.7952299999999999
-16.26239,-19.594337,-0.59841
-16.26239,-19.594337,-0.59841
-16.26239,-19.594337,-0.59841
-16.26239,-19.594337,-0.59841
-0.85692316,-13.974070999999999,2.5803439999999997
-0.85692316,-13.974070999999999,2.5803439999999997
-0.85692316,-13.974070999999999,2.5803439999999997
-0.85692316,-13.974070999999999,2.5803439999999997
14.682589000000002,-8.899554,2.9441773999999996
14.682589000000002,-8.899554,2.9441773999999996
14.682589000000002,-8.899554,2.9441773999999996
14.682589000000002,-8.899554,2.9441773999999996
12.882571,-14.443225,1.0388398
12.882571,-14.443225,1.0388398
12.882571,-14.443225,1.0388398
12.882571,-14.443225,1.0388398
2.1111906000000005,-18.895395,0.98139244
2.1111906000000005,-18.895395,0.98139244
2.1111906000000005,-18.895395,0.98139244
-16.559202,-19.594337,-1.6420371999999999
-16.559202,-19.594337,-1.6420371999999999
-16.559202,-19.594337,-1.6420371999999999
-16.559202,-19.594337,-1.6420371999999999
-16.559202,-19.594337,-1.6420371999999999
-19.086885000000002,-17.26772,-3.231414
-19.086885000000002,-17.26772,-3.231414
-19.086885000000002,-17.26772,-3.231414
-12.403843,4.342063,-5.730374299999999
-12.403843,4.342063,-5.730374299999999
-12.403843,4.342063,-5.730374299999999
-12.403843,4.342063,-5.730374299999999
-12.403843,4.342063,-5.730374299999999
-12.403843,4.342063,-5.730374299999999
-12.403843,4.342063,-5.730374299999999
-12.403843,4.342063,-5.730374299999999
-12.681505,7.0612383,-5.6825019999999995
-12.681505,7.0612383,-5.6825019999999995
-12.681505,7.0612383,-5.6825019999999995
-19.019865,-8.746361,-2.1303396
-19.019865,-8.746361,-2.1303396
-19.019865,-8.746361,-2.1303396
-19.019865,-8.746361,-2.1303396
-18.483688,-19.594337,0.5888355
-18.483688,-19.594337,0.5888355
-18.483688,-19.594337,0.5888355
-18.483688,-19.594337,0.5888355
-5.194199,-18.924118,1.9292740000000002
-5.194199,-18.924118,1.9292740000000002
-5.194199,-18.924118,1.9292740000000002
-5.194199,-18.924118,1.9292740000000002
13.897473999999999,-10.833615,2.4750240000000003
13.897473999999999,-10.833615,2.4750240000000003
13.897473999999999,-10.833615,2.4750240000000003
13.897473999999999,-10.833615,2.4750240000000003
12.968742,-11.7049,2.513322
12.968742,-11.7049,2.513322
12.968742,-11.7049,2.513322
12.968742,-11.7049,2.513322
4.7441945,-17.976236,4.6388745
4.7441945,-17.976236,4.6388745
4.7441945,-17.976236,4.6388745
4.7441945,-17.976236,4.6388745
-12.930444,-19.594337,1.7282081999999999
-12.930444,-19.594337,1.7282081999999999
-12.930444,-19.594337,1.7282081999999999
-19.603912,-18.837948,-1.3452256999999999
-19.603912,-18.837948,-1.3452256999999999
-19.603912,-18.837948,-1.3452256999999999
-19.603912,-18.837948,-1.3452256999999999
-14.87408,-3.3654580000000003,-3.9207826
-14.87408,-3.3654580000000003,-3.9207826
-14.87408,-3.3654580000000003,-3.9207826
-14.87408,-3.3654580000000003,-3.9207826
-9.138917999999999,10.92936,-4.0644007
-9.138917999999999,10.92936,-4.0644007
-9.138917999999999,10.92936,-4.0644007
-9.138917999999999,10.92936,-4.0644007
-10.546378,10.182545,-3.6143966
-10.546378,10.182545,-3.6143966
-10.546378,10.182545,-3.6143966
-10.546378,10.182545,-3.6143966
-13.878325,4.7537694,-3.5282254
-13.878325,4.7537694,-3.5282254
-13.878325,4.7537694,-3.5282254
-13.878325,4.7537694,-3.5282254
-19.603912,-16.15707,-3.5473747
-19.603912,-16.15707,-3.5473747
-19.603912,-16.15707,-3.5473747
-19.603912,-16.15707,-3.5473747
-14.854931,-19.594337,1.3260766000000002
-14.854931,-19.594337,1.3260766000000002
-14.854931,-19.594337,1.3260766000000002
-0.25372586,-15.209189000000002,-0.110107444
-0.25372586,-15.209189000000002,-0.110107444
-0.25372586,-15.209189000000002,-0.110107444
-0.25372586,-15.209189000000002,-0.110107444
-0.25372586,-15.209189000000002,-0.110107444
13.514492,-9.569773,2.733537
13.514492,-9.569773,2.733537
13.514492,-9.569773,2.733537
16.214517999999998,-12.116607,3.6239712
16.214517999999998,-12.116607,3.6239712
16.214517999999998,-12.116607,3.6239712
16.214517999999998,-12.116607,3.6239712
5.7208,-18.7805,1.8431028999999999
5.7208,-18.7805,1.8431028999999999
5.7208,-18.7805,1.8431028999999999
5.7208,-18.7805,1.8431028999999999
-17.497509,-19.594337,-0.30159867
-17.497509,-19.594337,-0.30159867
-17.497509,-19.594337,-0.30159867
-17.497509,-19.594337,-0.30159867
-19.603912,-17.05708,-3.4803526
-19.603912,-17.05708,-3.4803526
-19.603912,-17.05708,-3.4803526
-19.603912,-17.05708,-3.4803526
-13.562365,4.772918,-6.697405000000001
-13.562365,4.772918,-6.697405000000001
-13.562365,4.772918,-6.697405000000001
-13.562365,4.772918,-6.697405000000001
-12.317672,18.7805,-8.076141
-12.317672,18.7805,-8.076141
-12.317672,18.7805,-8.076141
-17.736874,8.650616000000001,-6.3527207
-17.736874,8.650616000000001,-6.3527207
-17.736874,8.650616000000001,-6.3527207
-17.736874,8.650616000000001,-6.3527207
-19.603912,-15.008123000000001,-2.3697037999999995
-19.603912,-15.008123000000001,-2.3697037999999995
-19.603912,-15.008123000000001,-2.3697037999999995
-19.603912,-15.008123000000001,-2.3697037999999995
-16.607075,-19.594337,2.7814097
-16.607075,-19.594337,2.7814097
-16.607075,-19.594337,2.7814097
-16.607075,-19.594337,2.7814097
-1.1537346000000002,-17.104951999999997,2.3792782000000003
-1.1537346000000002,-17.104951999999997,2.3792782000000003
-1.1537346000000002,-17.104951999999997,2.3792782000000003
-1.1537346000000002,-17.104951999999997,2.3792782000000003
16.0709,-8.593167999999999,1.6420371999999999
16.0709,-8.593167999999999,1.6420371999999999
16.0709,-8.593167999999999,1.6420371999999999
16.0709,-8.593167999999999,1.6420371999999999
10.699572,-10.71872,2.3026817000000004
10.699572,-10.71872,2.3026817000000004
10.699572,-10.71872,2.3026817000000004
10.699572,-10.71872,2.3026817000000004
1.9196993000000002,-17.104951999999997,2.6186423
1.9196993000000002,-17.104951999999997,2.6186423
1.9196993000000002,-17.104951999999997,2.6186423
-9.100619,-19.594337,1.4505458999999998
-9.100619,-19.594337,1.4505458999999998
-9.100619,-19.594337,1.4505458999999998
-9.100619,-19.594337,1.4505458999999998
-9.100619,-19.594337,1.4505458999999998
-19.603912,-19.383698000000003,0.512239
-19.603912,-19.383698000000003,0.512239
-19.603912,-19.383698000000003,0.512239
-16.19537,-3.5569491,-3.2026904
-16.19537,-3.5569491,-3.2026904
-16.19537,-3.5569491,-3.2026904
-16.19537,-3.5569491,-3.2026904
-12.164479,17.1624,-5.4048395
-12.164479,17.1624,-5.4048395
-12.164479,17.1624,-5.4048395
-12.164479,17.1624,-5.4048395
-13.313426000000002,12.25065,-6.5346375
-13.313426000000002,12.25065,-6.5346375
-13.313426000000002,12.25065,-6.5346375
-13.313426000000002,12.25065,-6.5346375
-19.364548000000003,-8.976150500000001,-5.1846247000000005
-19.364548000000003,-8.976150500000001,-5.1846247000000005
-19.364548000000003,-8.976150500000001,-5.1846247000000005
-19.364548000000003,-8.976150500000001,-5.1846247000000005
-17.899641,-19.594337,1.2016073
-17.899641,-19.594337,1.2016073
-17.899641,-19.594337,1.2016073
-17.899641,-19.594337,1.2016073
-5.146326,-19.010289999999998,1.6133133999999998
-5.146326,-19.010289999999998,1.6133133999999998
-5.146326,-19.010289999999998,1.6133133999999998
-5.146326,-19.010289999999998,1.6133133999999998
5.299519,-10.871913000000001,0.26330042
5.299519,-10.871913000000001,0.26330042
5.299519,-10.871913000000001,0.26330042
14.079391500000002,-5.6633525,0.23457673
14.079391500000002,-5.6633525,0.23457673
14.079391500000002,-5.6633525,0.23457673
14.079391500000002,-5.6633525,0.23457673
14.079391500000002,-5.6633525,0.23457673
14.232584,-9.330409,1.6133133999999998
14.232584,-9.330409,1.6133133999999998
14.232584,-9.330409,1.6133133999999998
0.46436617,-19.173057999999997,2.4367256
0.46436617,-19.173057999999997,2.4367256
0.46436617,-19.173057999999997,2.4367256
0.46436617,-19.173057999999997,2.4367256
-19.584763,-19.594337,1.9292740000000002
-19.584763,-19.594337,1.9292740000000002
-19.584763,-19.594337,1.9292740000000002
-19.584763,-19.594337,1.9292740000000002
-17.353891,-11.72405,-2.9250283
-17.353891,-11.72405,-2.9250283
-17.353891,-11.72405,-2.9250283
-17.353891,-11.72405,-2.9250283
-10.891063,7.635712,-5.2707953000000005
-10.891063,7.635712,-5.2707953000000005
-10.891063,7.635712,-5.2707953000000005
-10.891063,7.635712,-5.2707953000000005
-10.431483,11.475111,-6.8888964999999995
-10.431483,11.475111,-6.8888964999999995
-10.431483,11.475111,-6.8888964999999995
-10.689997,6.323997,-5.5771812999999995
-10.689997,6.323997,-5.5771812999999995
-10.689997,6.323997,-5.5771812999999995
-10.689997,6.323997,-5.5771812999999995
-18.732628,-13.7730055,0.19627848
-18.732628,-13.7730055,0.19627848
-18.732628,-13.7730055,0.19627848
-18.732628,-13.7730055,0.19627848
-16.95176,-19.594337,10.287866000000001
-16.95176,-19.594337,10.287866000000001
-16.95176,-19.594337,10.287866000000001
-16.95176,-19.594337,10.287866000000001
-0.062234644000000006,-14.960251000000001,5.17505
-0.062234644000000006,-14.960251000000001,5.17505
-0.062234644000000006,-14.960251000000001,5.17505
-0.062234644000000006,-14.960251000000001,5.17505
13.964497,-6.2091026,4.08355
13.964497,-6.2091026,4.08355
13.964497,-6.2091026,4.08355
13.964497,-6.2091026,4.08355
13.715557999999998,-5.194199,4.7441945
13.715557999999998,-5.194199,4.7441945
13.715557999999998,-5.194199,4.7441945
13.715557999999998,-5.194199,4.7441945
3.3080106,-16.980482000000002,3.671844
3.3080106,-16.980482000000002,3.671844
3.3080106,-16.980482000000002,3.671844
3.3080106,-16.980482000000002,3.671844
-15.132593,-19.594337,3.451629
-15.132593,-19.594337,3.451629
-15.132593,-19.594337,3.451629
-17.689001,-16.080475,-1.2494801000000002
-17.689001,-16.080475,-1.2494801000000002
-17.689001,-16.080475,-1.2494801000000002
-17.689001,-16.080475,-1.2494801000000002
-8.957002000000001,3.039923,-4.2080193
-8.957002000000001,3.039923,-4.2080193
-8.957002000000001,3.039923,-4.2080193
-8.957002000000001,3.039923,-4.2080193
-8.842107,13.552791000000001,-5.653778
-8.842107,13.552791000000001,-5.653778
-8.842107,13.552791000000001,-5.653778
-8.842107,13.552791000000001,-5.653778
-15.324084,11.455961,-7.4537954
-15.324084,11.455961,-7.4537954
-15.324084,11.455961,-7.4537954
-15.324084,11.455961,-7.4537954
-19.603912,-10.584677000000001,-5.519734
-19.603912,-10.584677000000001,-5.519734
-19.603912,-10.584677000000001,-5.519734
-19.603912,-10.584677000000001,-5.519734
-15.812386499999999,-19.594337,0.25372586
-15.812386499999999,-19.594337,0.25372586
-15.812386499999999,-19.594337,0.25372586
-15.812386499999999,-19.594337,0.25372586
1.0484143,-17.238997,0.5505372
1.0484143,-17.238997,0.5505372
1.0484143,-17.238997,0.5505372
13.744282,-7.176133,0.8856468000000001
13.744282,-7.176133,0.8856468000000001
13.744282,-7.176133,0.8856468000000001
13.744282,-7.176133,0.8856468000000001
13.744282,-7.176133,0.8856468000000001
13.811303,-5.845269,2.149489
13.811303,-5.845269,2.149489
13.811303,-5.845269,2.149489
4.7250457,-16.86559,0.91437054
4.7250457,-16.86559,0.91437054
4.7250457,-16.86559,0.91437054
4.7250457,-16.86559,0.91437054
4.7250457,-16.86559,0.91437054
4.7250457,-16.86559,0.91437054
4.7250457,-16.86559,0.91437054
4.7250457,-16.86559,0.91437054
-19.268803,-17.564531,-0.2441513
-19.268803,-17.564531,-0.2441513
-19.268803,-17.564531,-0.2441513
-9.924032,3.1452432,-3.4133307999999998
-9.924032,3.1452432,-3.4133307999999998
-9.924032,3.1452432,-3.4133307999999998
-9.924032,3.1452432,-3.4133307999999998
-7.310177,15.649619,-3.7388659
-7.310177,15.649619,-3.7388659
-7.310177,15.649619,-3.7388659
-7.310177,15.649619,-3.7388659
-12.308098,7.482519,-5.567607
-12.308098,7.482519,-5.567607
-12.308098,7.482519,-5.567607
-12.308098,7.482519,-5.567607
-18.713478,-5.6250544,-5.452712
-18.713478,-5.6250544,-5.452712
-18.713478,-5.6250544,-5.452712
-18.713478,-5.6250544,-5.452712
-19.230504999999997,-19.594337,-0.63670826
-19.230504999999997,-19.594337,-0.63670826
-19.230504999999997,-19.594337,-0.63670826
-19.230504999999997,-19.594337,-0.63670826
-7.3389006,-19.460295000000002,0.15798025
-7.3389006,-19.460295000000002,0.15798025
-7.3389006,-19.460295000000002,0.15798025
-7.3389006,-19.460295000000002,0.15798025
9.665519,-12.719804,-0.03351096
9.665519,-12.719804,-0.03351096
9.665519,-12.719804,-0.03351096
15.180466000000001,-6.764427,2.494173
15.180466000000001,-6.764427,2.494173
15.180466000000001,-6.764427,2.494173
15.180466000000001,-6.764427,2.494173
15.180466000000001,-6.764427,2.494173
7.156984,-12.020861,4.5239797
7.156984,-12.020861,4.5239797
7.156984,-12.020861,4.5239797
-1.8239537000000001,-19.039013,1.7856555
-1.8239537000000001,-19.039013,1.7856555
-1.8239537000000001,-19.039013,1.7856555
-1.8239537000000001,-19.039013,1.7856555
-18.569860000000002,-19.594337,-0.78032666
-18.569860000000002,-19.594337,-0.78032666
-18.569860000000002,-19.594337,-0.78032666
-18.569860000000002,-19.594337,-0.78032666
-15.391106,-13.045339,-3.1165195
-15.391106,-13.045339,-3.1165195
-15.391106,-13.045339,-3.1165195
-15.391106,-13.045339,-3.1165195
-7.7506065,5.347392,-4.5335545999999995
-7.7506065,5.347392,-4.5335545999999995
-7.7506065,5.347392,-4.5335545999999995
-7.7506065,5.347392,-4.5335545999999995
-9.148492999999998,10.239991999999999,-5.605905
-9.148492999999998,10.239991999999999,-5.605905
-9.148492999999998,10.239991999999999,-5.605905
-15.151742,6.706979799999999,-4.3995104000000005
-15.151742,6.706979799999999,-4.3995104000000005
-15.151742,6.706979799999999,-4.3995104000000005
-15.151742,6.706979799999999,-4.3995104000000005
-15.151742,6.706979799999999,-4.3995104000000005
-18.924118,-8.822957,-2.494173
-18.924118,-8.822957,-2.494173
-18.924118,-8.822957,-2.494173
-18.713478,-19.594337,-1.5462915000000002
-18.713478,-19.594337,-1.5462915000000002
-18.713478,-19.594337,-1.5462915000000002
-18.713478,-19.594337,-1.5462915000000002
-4.5335545999999995,-18.608158,-3.690993
-4.5335545999999995,-18.608158,-3.690993
-4.5335545999999995,-18.608158,-3.690993
-4.5335545999999995,-18.608158,-3.690993
8.784659,-8.727212,-1.7377827000000001
8.784659,-8.727212,-1.7377827000000001
8.784659,-8.727212,-1.7377827000000001
8.784659,-8.727212,-1.7377827000000001
19.498592000000002,-4.782493,1.862252
19.498592000000002,-4.782493,1.862252
19.498592000000002,-4.782493,1.862252
19.498592000000002,-4.782493,1.862252
12.183628,-13.648535999999998,1.3165021000000001
12.183628,-13.648535999999998,1.3165021000000001
12.183628,-13.648535999999998,1.3165021000000001
12.183628,-13.648535999999998,1.3165021000000001
-6.4197426,-19.594337,-1.0484143
-6.4197426,-19.594337,-1.0484143
-6.4197426,-19.594337,-1.0484143
-6.4197426,-19.594337,-1.0484143
-19.603912,-19.55604,-1.7569318999999999
-19.603912,-19.55604,-1.7569318999999999
-19.603912,-19.55604,-1.7569318999999999
-11.858092999999998,-9.301685,-2.7909843999999997
-11.858092999999998,-9.301685,-2.7909843999999997
-11.858092999999998,-9.301685,-2.7909843999999997
-11.858092999999998,-9.301685,-2.7909843999999997
-5.031431700000001,9.636795,-3.1260939999999997
-5.031431700000001,9.636795,-3.1260939999999997
-5.031431700000001,9.636795,-3.1260939999999997
-5.031431700000001,9.636795,-3.1260939999999997
-9.818711,13.571939000000002,-6.3622955999999995
-9.818711,13.571939000000002,-6.3622955999999995
-9.818711,13.571939000000002,-6.3622955999999995
-9.818711,13.571939000000002,-6.3622955999999995
-17.37304,3.384607,-5.567607
-17.37304,3.384607,-5.567607
-17.37304,3.384607,-5.567607
-17.37304,3.384607,-5.567607
-19.603912,-19.498592000000002,-1.8526775000000002
-19.603912,-19.498592000000002,-1.8526775000000002
-19.603912,-19.498592000000002,-1.8526775000000002
-19.603912,-19.498592000000002,-1.8526775000000002
-9.5219,-19.594337,1.4313968000000001
-9.5219,-19.594337,1.4313968000000001
-9.5219,-19.594337,1.4313968000000001
4.8878129999999995,-11.618729,-0.2154276
4.8878129999999995,-11.618729,-0.2154276
4.8878129999999995,-11.618729,-0.2154276
4.8878129999999995,-11.618729,-0.2154276
4.8878129999999995,-11.618729,-0.2154276
12.748528,-2.3792782000000003,1.5845897
12.748528,-2.3792782000000003,1.5845897
12.748528,-2.3792782000000003,1.5845897
14.74961,-8.928278,2.2452345
14.74961,-8.928278,2.2452345
14.74961,-8.928278,2.2452345
14.74961,-8.928278,2.2452345
3.3654580000000003,-19.393272,1.6899098999999997
3.3654580000000003,-19.393272,1.6899098999999997
3.3654580000000003,-19.393272,1.6899098999999997
3.3654580000000003,-19.393272,1.6899098999999997
-17.210272,-19.594337,1.4984187
-17.210272,-19.594337,1.4984187
-17.210272,-19.594337,1.4984187
-17.210272,-19.594337,1.4984187
-18.608158,-16.463457000000002,-1.2877783999999999
-18.608158,-16.463457000000002,-1.2877783999999999
-18.608158,-16.463457000000002,-1.2877783999999999
-18.608158,-16.463457000000002,-1.2877783999999999
-10.479357,5.0505805,-5.5963306
-10.479357,5.0505805,-5.5963306
-10.479357,5.0505805,-5.5963306
-10.479357,5.0505805,-5.5963306
-10.278291000000001,16.731544,-7.846352
-10.278291000000001,16.731544,-7.846352
-10.278291000000001,16.731544,-7.846352
-10.278291000000001,16.731544,-7.846352
-16.827289999999998,8.124015,-7.4729443
-16.827289999999998,8.124015,-7.4729443
-16.827289999999998,8.124015,-7.4729443
-19.603912,-16.348562,-2.6952388
-19.603912,-16.348562,-2.6952388
-19.603912,-16.348562,-2.6952388
-19.603912,-16.348562,-2.6952388
-19.603912,-16.348562,-2.6952388
-16.042175,-19.594337,1.0005416
-16.042175,-19.594337,1.0005416
-16.042175,-19.594337,1.0005416
-0.43564250000000004,-17.650702,1.3165021000000001
-0.43564250000000004,-17.650702,1.3165021000000001
-0.43564250000000004,-17.650702,1.3165021000000001
-0.43564250000000004,-17.650702,1.3165021000000001
15.620895,-8.650616000000001,2.5803439999999997
15.620895,-8.650616000000001,2.5803439999999997
15.620895,-8.650616000000001,2.5803439999999997
15.620895,-8.650616000000001,2.5803439999999997
14.452798999999999,-9.41658,3.3463089999999998
14.452798999999999,-9.41658,3.3463089999999998
14.452798999999999,-9.41658,3.3463089999999998
14.452798999999999,-9.41658,3.3463089999999998
1.5175678999999997,-19.594337,2.1877869999999997
1.5175678999999997,-19.594337,2.1877869999999997
1.5175678999999997,-19.594337,2.1877869999999997
1.5175678999999997,-19.594337,2.1877869999999997
-16.291114999999998,-19.594337,1.5558661
-16.291114999999998,-19.594337,1.5558661
-16.291114999999998,-19.594337,1.5558661
-18.991139999999998,-17.401764,-1.1728836
-18.991139999999998,-17.401764,-1.1728836
-18.991139999999998,-17.401764,-1.1728836
-18.991139999999998,-17.401764,-1.1728836
-18.991139999999998,-17.401764,-1.1728836
-10.71872,1.8335283,-4.715471
-10.71872,1.8335283,-4.715471
-10.71872,1.8335283,-4.715471
-11.38894,16.530479999999997,-7.7027339999999995
-11.38894,16.530479999999997,-7.7027339999999995
-11.38894,16.530479999999997,-7.7027339999999995
-11.38894,16.530479999999997,-7.7027339999999995
-15.783663,9.0814705,-6.525062999999999
-15.783663,9.0814705,-6.525062999999999
-15.783663,9.0814705,-6.525062999999999
-15.783663,9.0814705,-6.525062999999999
-19.603912,-12.834699,-2.2835326
-19.603912,-12.834699,-2.2835326
-19.603912,-12.834699,-2.2835326
-19.603912,-12.834699,-2.2835326
-17.191124,-19.594337,1.3452256999999999
-17.191124,-19.594337,1.3452256999999999
-17.191124,-19.594337,1.3452256999999999
-17.191124,-19.594337,1.3452256999999999
-4.456958,-17.545382,2.4367256
-4.456958,-17.545382,2.4367256
-4.456958,-17.545382,2.4367256
-4.456958,-17.545382,2.4367256
6.400593799999999,-7.855927,2.0920415
6.400593799999999,-7.855927,2.0920415
6.400593799999999,-7.855927,2.0920415
13.868751000000001,-8.296356,2.972901
13.868751000000001,-8.296356,2.972901
13.868751000000001,-8.296356,2.972901
13.868751000000001,-8.296356,2.972901
9.933606,-16.032602,3.5090763999999997
9.933606,-16.032602,3.5090763999999997
9.933606,-16.032602,3.5090763999999997
9.933606,-16.032602,3.5090763999999997
-8.593167999999999,-19.594337,0.83777404
-8.593167999999999,-19.594337,0.83777404
-8.593167999999999,-19.594337,0.83777404
-8.593167999999999,-19.594337,0.83777404
-19.603912,-19.46987,-2.1207652
-19.603912,-19.46987,-2.1207652
-19.603912,-19.46987,-2.1207652
-19.603912,-19.46987,-2.1207652
-17.440062,-6.47719,-4.2175937
-17.440062,-6.47719,-4.2175937
-17.440062,-6.47719,-4.2175937
-17.440062,-6.47719,-4.2175937
-12.930444,14.43365,-2.34098
-12.930444,14.43365,-2.34098
-12.930444,14.43365,-2.34098
-12.930444,14.43365,-2.34098
-14.481523000000001,14.20386,-1.6228879999999999
-14.481523000000001,14.20386,-1.6228879999999999
-14.481523000000001,14.20386,-1.6228879999999999
-18.837948,-1.8335283,-3.9207826
-18.837948,-1.8335283,-3.9207826
-18.837948,-1.8335283,-3.9207826
-18.837948,-1.8335283,-3.9207826
-18.837948,-1.8335283,-3.9207826
-19.603912,-19.594337,1.3930986
-19.603912,-19.594337,1.3930986
-19.603912,-19.594337,1.3930986
-10.689997,-19.517742000000002,2.149489
-10.689997,-19.517742000000002,2.149489
-10.689997,-19.517742000000002,2.149489
-10.689997,-19.517742000000002,2.149489
1.9962958,-12.183628,1.2877783999999999
1.9962958,-12.183628,1.2877783999999999
1.9962958,-12.183628,1.2877783999999999
1.9962958,-12.183628,1.2877783999999999
15.783663,-6.5729356,1.3356511999999998
15.783663,-6.5729356,1.3356511999999998
15.783663,-6.5729356,1.3356511999999998
15.783663,-6.5729356,1.3356511999999998
14.740035999999998,-13.533641000000001,1.5175678999999997
14.740035999999998,-13.533641000000001,1.5175678999999997
14.740035999999998,-13.533641000000001,1.5175678999999997
14.740035999999998,-13.533641000000001,1.5175678999999997
1.8814011999999998,-19.594337,-1.6707608
1.8814011999999998,-19.594337,-1.6707608
1.8814011999999998,-19.594337,-1.6707608
1.8814011999999998,-19.594337,-1.6707608
-18.675179999999997,-19.479443,-5.739949
-18.675179999999997,-19.479443,-5.739949
-18.675179999999997,-19.479443,-5.739949
-18.675179999999997,-19.479443,-5.739949
-17.602829,-15.199615,-4.1888704
-17.602829,-15.199615,-4.1888704
-17.602829,-15.199615,-4.1888704
-9.655944,6.0176110000000005,-5.4335629999999995
-9.655944,6.0176110000000005,-5.4335629999999995
-9.655944,6.0176110000000005,-5.4335629999999995
-9.655944,6.0176110000000005,-5.4335629999999995
-9.655944,6.0176110000000005,-5.4335629999999995
-11.082554,13.524067,-6.869747
-11.082554,13.524067,-6.869747
-11.082554,13.524067,-6.869747
-15.620895,7.032514599999999,-6.0463347
-15.620895,7.032514599999999,-6.0463347
-15.620895,7.032514599999999,-6.0463347
-15.620895,7.032514599999999,-6.0463347
-19.230504999999997,-14.366628,-2.5420458
-19.230504999999997,-14.366628,-2.5420458
-19.230504999999997,-14.366628,-2.5420458
-19.230504999999997,-14.366628,-2.5420458
-15.295360999999998,-19.594337,-1.7186337
-15.295360999999998,-19.594337,-1.7186337
-15.295360999999998,-19.594337,-1.7186337
-15.295360999999998,-19.594337,-1.7186337
-2.9920502,-19.000715,0.2920241
-2.9920502,-19.000715,0.2920241
-2.9920502,-19.000715,0.2920241
-2.9920502,-19.000715,0.2920241
12.375119,-9.024023,1.6324625
12.375119,-9.024023,1.6324625
12.375119,-9.024023,1.6324625
15.477276999999999,-9.885734,1.9962958
15.477276999999999,-9.885734,1.9962958
15.477276999999999,-9.885734,1.9962958
15.477276999999999,-9.885734,1.9962958
3.5665237999999997,-17.37304,2.9154537
3.5665237999999997,-17.37304,2.9154537
3.5665237999999997,-17.37304,2.9154537
3.5665237999999997,-17.37304,2.9154537
-9.818711,-19.594337,0.9430941999999999
-9.818711,-19.594337,0.9430941999999999
-9.818711,-19.594337,0.9430941999999999
-9.818711,-19.594337,0.9430941999999999
-18.23475,-19.173057999999997,0.23457673
-18.23475,-19.173057999999997,0.23457673
-18.23475,-19.173057999999997,0.23457673
-18.23475,-19.173057999999997,0.23457673
-8.708063000000001,-5.155901,-2.3314054
-8.708063000000001,-5.155901,-2.3314054
-8.708063000000001,-5.155901,-2.3314054
-8.708063000000001,-5.155901,-2.3314054
-9.64637,10.785743,-6.094208
-9.64637,10.785743,-6.094208
-9.64637,10.785743,-6.094208
-9.64637,10.785743,-6.094208
-14.366628,10.709146,-7.329325999999999
-14.366628,10.709146,-7.329325999999999
-14.366628,10.709146,-7.329325999999999
-14.366628,10.709146,-7.329325999999999
-17.066654,-2.1207652,-2.88673
-17.066654,-2.1207652,-2.88673
-17.066654,-2.1207652,-2.88673
-19.22093,-19.594337,0.69415563
-19.22093,-19.594337,0.69415563
-19.22093,-19.594337,0.69415563
-19.22093,-19.594337,0.69415563
-6.984642,-19.546464999999998,1.3260766000000002
-6.984642,-19.546464999999998,1.3260766000000002
-6.984642,-19.546464999999998,1.3260766000000002
-6.984642,-19.546464999999998,1.3260766000000002
2.168638,-12.729378,1.5462915000000002
2.168638,-12.729378,1.5462915000000002
2.168638,-12.729378,1.5462915000000002
2.168638,-12.729378,1.5462915000000002
10.29744,-6.3622955999999995,1.5941644
10.29744,-6.3622955999999995,1.5941644
10.29744,-6.3622955999999995,1.5941644
10.29744,-6.3622955999999995,1.5941644
16.769842,-11.092129,2.5228968
16.769842,-11.092129,2.5228968
16.769842,-11.092129,2.5228968
16.769842,-11.092129,2.5228968
5.6633525,-19.354975,1.7665064
5.6633525,-19.354975,1.7665064
5.6633525,-19.354975,1.7665064
5.6633525,-19.354975,1.7665064
-16.798567000000002,-19.594337,-0.19627848
-16.798567000000002,-19.594337,-0.19627848
-16.798567000000002,-19.594337,-0.19627848
-18.809223,-15.563448000000001,-3.3271596
-18.809223,-15.563448000000001,-3.3271596
-18.809223,-15.563448000000001,-3.3271596
-18.809223,-15.563448000000001,-3.3271596
-18.809223,-15.563448000000001,-3.3271596
-12.174053,6.5346375,-5.8548436
-12.174053,6.5346375,-5.8548436
-12.174053,6.5346375,-5.8548436
-12.968742,14.519820999999999,-7.1186857
-12.968742,14.519820999999999,-7.1186857
-12.968742,14.519820999999999,-7.1186857
-12.968742,14.519820999999999,-7.1186857
-14.826207,6.5537868,-5.941015
-14.826207,6.5537868,-5.941015
-14.826207,6.5537868,-5.941015
-14.826207,6.5537868,-5.941015
-19.441145000000002,-16.061325,-0.56011176
-19.441145000000002,-16.061325,-0.56011176
-19.441145000000002,-16.061325,-0.56011176
-19.441145000000002,-16.061325,-0.56011176
-14.74961,-19.594337,1.14416
-14.74961,-19.594337,1.14416
-14.74961,-19.594337,1.14416
-14.74961,-19.594337,1.14416
0.5218136,-16.520905,0.40691882
0.5218136,-16.520905,0.40691882
0.5218136,-16.520905,0.40691882
0.5218136,-16.520905,0.40691882
12.068733,-7.214431299999999,1.8335283
12.068733,-7.214431299999999,1.8335283
12.068733,-7.214431299999999,1.8335283
12.068733,-7.214431299999999,1.8335283
16.683672,-9.2825365,3.6526947
16.683672,-9.2825365,3.6526947
16.683672,-9.2825365,3.6526947
3.2888615,-19.067738000000002,3.3750327000000007
3.2888615,-19.067738000000002,3.3750327000000007
3.2888615,-19.067738000000002,3.3750327000000007
3.2888615,-19.067738000000002,3.3750327000000007
-15.266637,-19.594337,-0.70373017
-15.266637,-19.594337,-0.70373017
-15.266637,-19.594337,-0.70373017
-15.266637,-19.594337,-0.70373017
-19.57519,-16.731544,-4.169721
-19.57519,-16.731544,-4.169721
-19.57519,-16.731544,-4.169721
-19.57519,-16.731544,-4.169721
-13.945347,6.3431463,-4.7058964
-13.945347,6.3431463,-4.7058964
-13.945347,6.3431463,-4.7058964
-13.945347,6.3431463,-4.7058964
-9.943181,16.817715,-3.4324798999999997
-9.943181,16.817715,-3.4324798999999997
-9.943181,16.817715,-3.4324798999999997
-9.943181,16.817715,-3.4324798999999997
-11.676176,7.319751299999999,-3.6814184
-11.676176,7.319751299999999,-3.6814184
-11.676176,7.319751299999999,-3.6814184
-11.676176,7.319751299999999,-3.6814184
-17.095377,-6.438892,-2.6856642
-17.095377,-6.438892,-2.6856642
-17.095377,-6.438892,-2.6856642
-17.095377,-6.438892,-2.6856642
-19.603912,-19.594337,-0.5218136
-19.603912,-19.594337,-0.5218136
-19.603912,-19.594337,-0.5218136
-9.713391,-19.479443,0.8760723
-9.713391,-19.479443,0.8760723
-9.713391,-19.479443,0.8760723
-9.713391,-19.479443,0.8760723
3.7005677,-12.231501,1.2111819
3.7005677,-12.231501,1.2111819
3.7005677,-12.231501,1.2111819
3.7005677,-12.231501,1.2111819
14.002794,-8.545295,1.4792696
14.002794,-8.545295,1.4792696
14.002794,-8.545295,1.4792696
14.002794,-8.545295,1.4792696
8.420826,-12.432567,3.0494976
8.420826,-12.432567,3.0494976
8.420826,-12.432567,3.0494976
8.420826,-12.432567,3.0494976
-5.146326,-19.32625,1.9101248
-5.146326,-19.32625,1.9101248
-5.146326,-19.32625,1.9101248
-19.603912,-19.594337,-1.6324625
-19.603912,-19.594337,-1.6324625
-19.603912,-19.594337,-1.6324625
-19.603912,-19.594337,-1.6324625
-19.603912,-19.594337,-1.6324625
-14.395351000000002,-11.475111,-3.5090763999999997
-14.395351000000002,-11.475111,-3.5090763999999997
-14.395351000000002,-11.475111,-3.5090763999999997
-11.446387,8.918703,-6.0463347
-11.446387,8.918703,-6.0463347
-11.446387,8.918703,-6.0463347
-11.446387,8.918703,-6.0463347
-12.643207,13.629387,-7.281453
-12.643207,13.629387,-7.281453
-12.643207,13.629387,-7.281453
-12.643207,13.629387,-7.281453
-11.963413000000001,4.954835,-4.456958
-11.963413000000001,4.954835,-4.456958
-11.963413000000001,4.954835,-4.456958
-11.963413000000001,4.954835,-4.456958
-19.603912,-16.856014000000002,-0.8473485999999999
-19.603912,-16.856014000000002,-0.8473485999999999
-19.603912,-16.856014000000002,-0.8473485999999999
-19.603912,-16.856014000000002,-0.8473485999999999
-14.615566000000001,-19.594337,-1.0196906
-14.615566000000001,-19.594337,-1.0196906
-14.615566000000001,-19.594337,-1.0196906
-14.615566000000001,-19.594337,-1.0196906
-1.6803354,-15.84111,-0.83777404
-1.6803354,-15.84111,-0.83777404
-1.6803354,-15.84111,-0.83777404
-1.6803354,-15.84111,-0.83777404
7.9325233,-8.976150500000001,1.5079931999999998
7.9325233,-8.976150500000001,1.5079931999999998
7.9325233,-8.976150500000001,1.5079931999999998
14.893229000000002,-7.501668,4.0356774
14.893229000000002,-7.501668,4.0356774
14.893229000000002,-7.501668,4.0356774
14.893229000000002,-7.501668,4.0356774
14.893229000000002,-7.501668,4.0356774
14.893229000000002,-7.501668,4.0356774
14.893229000000002,-7.501668,4.0356774
14.893229000000002,-7.501668,4.0356774
-6.3814445,-19.460295000000002,1.5845897
-6.3814445,-19.460295000000002,1.5845897
-6.3814445,-19.460295000000002,1.5845897
-18.79965,-19.316675,0.71330476
-18.79965,-19.316675,0.71330476
-18.79965,-19.316675,0.71330476
-18.79965,-19.316675,0.71330476
-18.79965,-19.316675,0.71330476
-10.230417999999998,-4.255892299999999,-3.4707782
-10.230417999999998,-4.255892299999999,-3.4707782
-10.230417999999998,-4.255892299999999,-3.4707782
-10.335738000000001,11.810221,-6.9271946
-10.335738000000001,11.810221,-6.9271946
-10.335738000000001,11.810221,-6.9271946
-10.335738000000001,11.810221,-6.9271946
-13.217680999999999,9.244238000000001,-6.5825105
-13.217680999999999,9.244238000000001,-6.5825105
-13.217680999999999,9.244238000000001,-6.5825105
-13.217680999999999,9.244238000000001,-6.5825105
-18.474113,-7.319751299999999,-4.2080193
-18.474113,-7.319751299999999,-4.2080193
-18.474113,-7.319751299999999,-4.2080193
-18.474113,-7.319751299999999,-4.2080193
-18.263474,-19.594337,0.062234644000000006
-18.263474,-19.594337,0.062234644000000006
-18.263474,-19.594337,0.062234644000000006
-18.263474,-19.594337,0.062234644000000006
-7.1186857,-19.13476,3.4995019999999997
-7.1186857,-19.13476,3.4995019999999997
-7.1186857,-19.13476,3.4995019999999997
-7.1186857,-19.13476,3.4995019999999997
5.634629,-9.904882,1.4601203999999999
5.634629,-9.904882,1.4601203999999999
5.634629,-9.904882,1.4601203999999999
5.634629,-9.904882,1.4601203999999999
13.064487,-5.002708,1.383524
13.064487,-5.002708,1.383524
13.064487,-5.002708,1.383524
9.474028,-7.080387599999999,3.844186
9.474028,-7.080387599999999,3.844186
9.474028,-7.080387599999999,3.844186
9.474028,-7.080387599999999,3.844186
9.474028,-7.080387599999999,3.844186
-0.64628285,-18.292198000000003,3.4612036
-0.64628285,-18.292198000000003,3.4612036
-0.64628285,-18.292198000000003,3.4612036
-16.17622,-19.594337,1.3452256999999999
-16.17622,-19.594337,1.3452256999999999
-16.17622,-19.594337,1.3452256999999999
-16.17622,-19.594337,1.3452256999999999
-15.802812,-15.008123000000001,-1.9196993000000002
-15.802812,-15.008123000000001,-1.9196993000000002
-15.802812,-15.008123000000001,-1.9196993000000002
-15.802812,-15.008123000000001,-1.9196993000000002
-11.475111,7.243155000000001,-5.4239883
-11.475111,7.243155000000001,-5.4239883
-11.475111,7.243155000000001,-5.4239883
-11.475111,7.243155000000001,-5.4239883
-12.202777000000001,14.577269,-6.8122997000000005
-12.202777000000001,14.577269,-6.8122997000000005
-12.202777000000001,14.577269,-6.8122997000000005
-12.202777000000001,14.577269,-6.8122997000000005
-15.429404000000002,6.333572,-5.6154795
-15.429404000000002,6.333572,-5.6154795
-15.429404000000002,6.333572,-5.6154795
-15.429404000000002,6.333572,-5.6154795
-19.603912,-16.252817,-2.8771553
-19.603912,-16.252817,-2.8771553
-19.603912,-16.252817,-2.8771553
-16.166645000000003,-19.594337,2.0920415
-16.166645000000003,-19.594337,2.0920415
-16.166645000000003,-19.594337,2.0920415
-16.166645000000003,-19.594337,2.0920415
-2.1782124,-16.683672,0.17712937
-2.1782124,-16.683672,0.17712937
-2.1782124,-16.683672,0.17712937
-2.1782124,-16.683672,0.17712937
11.7336235,-7.9133744,-0.92394507
11.7336235,-7.9133744,-0.92394507
11.7336235,-7.9133744,-0.92394507
11.7336235,-7.9133744,-0.92394507
15.783663,-9.071896,1.0005416
15.783663,-9.071896,1.0005416
15.783663,-9.071896,1.0005416
15.783663,-9.071896,1.0005416
6.8888964999999995,-17.03793,1.6707608
6.8888964999999995,-17.03793,1.6707608
6.8888964999999995,-17.03793,1.6707608
6.8888964999999995,-17.03793,1.6707608
-12.480439,-19.594337,1.7377827000000001
-12.480439,-19.594337,1.7377827000000001
-12.480439,-19.594337,1.7377827000000001
-12.480439,-19.594337,1.7377827000000001
-19.603912,-18.991139999999998,0.665432
-19.603912,-18.991139999999998,0.665432
-19.603912,-18.991139999999998,0.665432
-15.065570999999998,-1.5367169,-3.9686553
-15.065570999999998,-1.5367169,-3.9686553
-15.065570999999998,-1.5367169,-3.9686553
-15.065570999999998,-1.5367169,-3.9686553
-8.4686985,14.605992,-4.9835587
-8.4686985,14.605992,-4.9835587
-8.4686985,14.605992,-4.9835587
-8.4686985,14.605992,-4.9835587
-11.025106,10.105948,-6.1229315
-11.025106,10.105948,-6.1229315
-11.025106,10.105948,-6.1229315
-11.025106,10.105948,-6.1229315
-18.44539,-2.8101335,-5.3569665
-18.44539,-2.8101335,-5.3569665
-18.44539,-2.8101335,-5.3569665
-18.44539,-2.8101335,-5.3569665
-19.603912,-19.594337,-0.27287498
-19.603912,-19.594337,-0.27287498
-19.603912,-19.594337,-0.27287498
-19.603912,-19.594337,-0.27287498
-9.18679,-19.489017,1.6899098999999997
-9.18679,-19.489017,1.6899098999999997
-9.18679,-19.489017,1.6899098999999997
-9.18679,-19.489017,1.6899098999999997
4.2271686,-12.987891000000001,1.4026731000000001
4.2271686,-12.987891000000001,1.4026731000000001
4.2271686,-12.987891000000001,1.4026731000000001
18.014536,-7.463369999999999,2.1207652
18.014536,-7.463369999999999,2.1207652
18.014536,-7.463369999999999,2.1207652
18.014536,-7.463369999999999,2.1207652
18.014536,-7.463369999999999,2.1207652
10.393186,-13.13151,3.6814184
10.393186,-13.13151,3.6814184
10.393186,-13.13151,3.6814184
-6.256975,-19.594337,3.0494976
-6.256975,-19.594337,3.0494976
-6.256975,-19.594337,3.0494976
-6.256975,-19.594337,3.0494976
-19.603912,-19.594337,2.0824668
-19.603912,-19.594337,2.0824668
-19.603912,-19.594337,2.0824668
-19.603912,-19.594337,2.0824668
-16.702820000000003,-11.034680999999999,-2.1111906000000005
-16.702820000000003,-11.034680999999999,-2.1111906000000005
-16.702820000000003,-11.034680999999999,-2.1111906000000005
-16.702820000000003,-11.034680999999999,-2.1111906000000005
-10.354887,12.030436,-5.6633525
-10.354887,12.030436,-5.6633525
-10.354887,12.030436,-5.6633525
-10.354887,12.030436,-5.6633525
-10.259142,13.409172,-6.4197426
-10.259142,13.409172,-6.4197426
-10.259142,13.409172,-6.4197426
-10.259142,13.409172,-6.4197426
-17.258144,4.476107,-5.9314404000000005
-17.258144,4.476107,-5.9314404000000005
-17.258144,4.476107,-5.9314404000000005
-17.258144,4.476107,-5.9314404000000005
-19.603912,-18.981565,-1.3069274
-19.603912,-18.981565,-1.3069274
-19.603912,-18.981565,-1.3069274
-15.678343,-19.594337,2.867581
-15.678343,-19.594337,2.867581
-15.678343,-19.594337,2.867581
-15.678343,-19.594337,2.867581
1.0388398,-14.471948000000001,2.2835326
1.0388398,-14.471948000000001,2.2835326
1.0388398,-14.471948000000001,2.2835326
1.0388398,-14.471948000000001,2.2835326
11.925115,-7.0995364,2.4558747000000003
11.925115,-7.0995364,2.4558747000000003
11.925115,-7.0995364,2.4558747000000003
11.925115,-7.0995364,2.4558747000000003
12.633633,-8.037844,2.5803439999999997
12.633633,-8.037844,2.5803439999999997
12.633633,-8.037844,2.5803439999999997
12.633633,-8.037844,2.5803439999999997
1.5845897,-16.463457000000002,1.1345854
1.5845897,-16.463457000000002,1.1345854
1.5845897,-16.463457000000002,1.1345854
1.5845897,-16.463457000000002,1.1345854
-18.809223,-19.594337,-0.9622433000000001
-18.809223,-19.594337,-0.9622433000000001
-18.809223,-19.594337,-0.9622433000000001
-18.809223,-19.594337,-0.9622433000000001
-19.603912,-17.813469,-4.8973875
-19.603912,-17.813469,-4.8973875
-19.603912,-17.813469,-4.8973875
-19.603912,-17.813469,-4.8973875
-14.941101999999999,1.2782038,-6.314422599999999
-14.941101999999999,1.2782038,-6.314422599999999
-14.941101999999999,1.2782038,-6.314422599999999
-12.068733,18.857098,-8.899554
-12.068733,18.857098,-8.899554
-12.068733,18.857098,-8.899554
-12.068733,18.857098,-8.899554
-14.424075,10.40276,-6.936769
-14.424075,10.40276,-6.936769
-14.424075,10.40276,-6.936769
-14.424075,10.40276,-6.936769
-19.603912,-14.155988,-2.4175766
-19.603912,-14.155988,-2.4175766
-19.603912,-14.155988,-2.4175766
-19.603912,-14.155988,-2.4175766
-16.894312,-19.594337,3.2888615
-16.894312,-19.594337,3.2888615
-16.894312,-19.594337,3.2888615
-16.894312,-19.594337,3.2888615
-2.561195,-19.268803,0.42606795
-2.561195,-19.268803,0.42606795
-2.561195,-19.268803,0.42606795
-2.561195,-19.268803,0.42606795
15.927280999999999,-11.714475,1.2207563999999997
15.927280999999999,-11.714475,1.2207563999999997
15.927280999999999,-11.714475,1.2207563999999997
15.927280999999999,-11.714475,1.2207563999999997
17.727299,-7.4250717,2.149489
17.727299,-7.4250717,2.149489
17.727299,-7.4250717,2.149489
5.108028,-17.296444,0.27287498
5.108028,-17.296444,0.27287498
5.108028,-17.296444,0.27287498
5.108028,-17.296444,0.27287498
-9.253813000000001,-19.594337,-0.6750065
-9.253813000000001,-19.594337,-0.6750065
-9.253813000000001,-19.594337,-0.6750065
-9.253813000000001,-19.594337,-0.6750065
-18.46454,-19.278378,-1.9292740000000002
-18.46454,-19.278378,-1.9292740000000002
-18.46454,-19.278378,-1.9292740000000002
-18.46454,-19.278378,-1.9292740000000002
-11.455961,-6.458041000000001,-4.1409974
-11.455961,-6.458041000000001,-4.1409974
-11.455961,-6.458041000000001,-4.1409974
-11.455961,-6.458041000000001,-4.1409974
-9.435728999999998,11.59958,-5.519734
-9.435728999999998,11.59958,-5.519734
-9.435728999999998,11.59958,-5.519734
-9.435728999999998,11.59958,-5.519734
-11.49426,9.608071,-5.088879
-11.49426,9.608071,-5.088879
-11.49426,9.608071,-5.088879
-11.49426,9.608071,-5.088879
-17.143251,-5.529309,-1.383524
-17.143251,-5.529309,-1.383524
-17.143251,-5.529309,-1.383524
-18.617732999999998,-19.594337,0.7994758000000001
-18.617732999999998,-19.594337,0.7994758000000001
-18.617732999999998,-19.594337,0.7994758000000001
-18.617732999999998,-19.594337,0.7994758000000001
-18.617732999999998,-19.594337,0.7994758000000001
-9.512326,-19.546464999999998,-0.23457673
-9.512326,-19.546464999999998,-0.23457673
-9.512326,-19.546464999999998,-0.23457673
-0.40691882,-11.905966000000001,-0.7994758000000001
-0.40691882,-11.905966000000001,-0.7994758000000001
-0.40691882,-11.905966000000001,-0.7994758000000001
-0.40691882,-11.905966000000001,-0.7994758000000001
4.926111,-6.9176197,-0.46436617
4.926111,-6.9176197,-0.46436617
4.926111,-6.9176197,-0.46436617
4.926111,-6.9176197,-0.46436617
8.679339,-7.980396300000001,1.4122477
8.679339,-7.980396300000001,1.4122477
8.679339,-7.980396300000001,1.4122477
8.679339,-7.980396300000001,1.4122477
5.376116000000001,-12.58576,2.752686
5.376116000000001,-12.58576,2.752686
5.376116000000001,-12.58576,2.752686
5.376116000000001,-12.58576,2.752686
-9.272962,-19.278378,1.8048046999999998
-9.272962,-19.278378,1.8048046999999998
-9.272962,-19.278378,1.8048046999999998
-9.272962,-19.278378,1.8048046999999998
-19.603912,-12.576185,-1.2877783999999999
-19.603912,-12.576185,-1.2877783999999999
-19.603912,-12.576185,-1.2877783999999999
-19.603912,-12.576185,-1.2877783999999999
-8.382527,-2.1399142999999996,-1.2016073
-8.382527,-2.1399142999999996,-1.2016073
-8.382527,-2.1399142999999996,-1.2016073
-5.06973,-3.8824842000000004,-4.6293
-5.06973,-3.8824842000000004,-4.6293
-5.06973,-3.8824842000000004,-4.6293
-5.06973,-3.8824842000000004,-4.6293
-11.446387,3.6143966,-3.212265
-11.446387,3.6143966,-3.212265
-11.446387,3.6143966,-3.212265
-11.446387,3.6143966,-3.212265
-6.3431463,4.5622783,-1.5941644
-6.3431463,4.5622783,-1.5941644
-6.3431463,4.5622783,-1.5941644
-6.3431463,4.5622783,-1.5941644
-12.815549,3.059072,-0.83777404
-12.815549,3.059072,-0.83777404
-12.815549,3.059072,-0.83777404
-12.815549,3.059072,-0.83777404
-19.603912,-6.2282515,1.0675635
-19.603912,-6.2282515,1.0675635
-19.603912,-6.2282515,1.0675635
-19.603912,-6.2282515,1.0675635
-18.76135,-5.261221,1.383524
-18.76135,-5.261221,1.383524
-18.76135,-5.261221,1.383524
-12.231501,-6.2665496,0.22500217
-12.231501,-6.2665496,0.22500217
-12.231501,-6.2665496,0.22500217
-12.231501,-6.2665496,0.22500217
-12.231501,-6.2665496,0.22500217
-7.405922400000001,-5.242071599999999,0.30159867
-7.405922400000001,-5.242071599999999,0.30159867
-7.405922400000001,-5.242071599999999,0.30159867
-6.831449,-3.8154623999999995,0.00478728
-6.831449,-3.8154623999999995,0.00478728
-6.831449,-3.8154623999999995,0.00478728
-6.831449,-3.8154623999999995,0.00478728
-6.620808599999999,-2.972901,-0.03351096
-6.620808599999999,-2.972901,-0.03351096
-6.620808599999999,-2.972901,-0.03351096
-6.620808599999999,-2.972901,-0.03351096
-10.680422,-3.1643922000000004,-0.78990126
-10.680422,-3.1643922000000004,-0.78990126
-10.680422,-3.1643922000000004,-0.78990126
-10.680422,-3.1643922000000004,-0.78990126
-10.268716,0.2920241,-1.8143792
-10.268716,0.2920241,-1.8143792
-10.268716,0.2920241,-1.8143792
-10.268716,0.2920241,-1.8143792
-10.211267999999999,0.6558574,-1.4026731000000001
-10.211267999999999,0.6558574,-1.4026731000000001
-10.211267999999999,0.6558574,-1.4026731000000001
-10.211267999999999,0.6558574,-1.4026731000000001
-7.6452865999999995,0.12925656,-0.91437054
-7.6452865999999995,0.12925656,-0.91437054
-7.6452865999999995,0.12925656,-0.91437054
-7.6452865999999995,0.12925656,-0.91437054
-9.148492999999998,0.00478728,-0.8952214
-9.148492999999998,0.00478728,-0.8952214
-9.148492999999998,0.00478728,-0.8952214
-8.736787,0.062234644000000006,-0.7420284
-8.736787,0.062234644000000006,-0.7420284
-8.736787,0.062234644000000006,-0.7420284
-8.736787,0.062234644000000006,-0.7420284
-11.034680999999999,-0.15798025,-1.469695
-11.034680999999999,-0.15798025,-1.469695
-11.034680999999999,-0.15798025,-1.469695
-11.034680999999999,-0.15798025,-1.469695
-9.761265,-0.26330042,-0.49308985
-9.761265,-0.26330042,-0.49308985
-9.761265,-0.26330042,-0.49308985
-9.761265,-0.26330042,-0.49308985
-7.3676243,-0.77075213,0.17712937
-7.3676243,-0.77075213,0.17712937
-7.3676243,-0.77075213,0.17712937
-7.3676243,-0.77075213,0.17712937
-11.245321,-1.3165021000000001,-1.2686293
-11.245321,-1.3165021000000001,-1.2686293
-11.245321,-1.3165021000000001,-1.2686293
-11.245321,-1.3165021000000001,-1.2686293
-9.292110000000001,-0.26330042,-0.17712937
-9.292110000000001,-0.26330042,-0.17712937
-9.292110000000001,-0.26330042,-0.17712937
-9.292110000000001,-0.26330042,-0.17712937
-8.698488000000001,-0.2154276,0.00478728
-8.698488000000001,-0.2154276,0.00478728
-8.698488000000001,-0.2154276,0.00478728
-9.579348,-0.8186249,0.081383765
-9.579348,-0.8186249,0.081383765
-9.579348,-0.8186249,0.081383765
-9.579348,-0.8186249,0.081383765
-9.474028,-1.3069274,0.3111732
-9.474028,-1.3069274,0.3111732
-9.474028,-1.3069274,0.3111732
-9.474028,-1.3069274,0.3111732
-9.924032,-1.4026731000000001,0.4164934
-9.924032,-1.4026731000000001,0.4164934
-9.924032,-1.4026731000000001,0.4164934
-9.924032,-1.4026731000000001,0.4164934
-9.272962,-1.4888442,0.39734426
-9.272962,-1.4888442,0.39734426
-9.272962,-1.4888442,0.39734426
-9.272962,-1.4888442,0.39734426
-9.397431,-1.3356511999999998,0.40691882
-9.397431,-1.3356511999999998,0.40691882
-9.397431,-1.3356511999999998,0.40691882
-9.397431,-1.3356511999999998,0.40691882
-9.665519,-1.3452256999999999,0.42606795
-9.665519,-1.3452256999999999,0.42606795
-9.665519,-1.3452256999999999,0.42606795
-9.665519,-1.3452256999999999,0.42606795
-9.665519,-1.3452256999999999,0.42606795
-9.665519,-1.3452256999999999,0.42606795
-9.665519,-1.3452256999999999,0.42606795
-9.3878565,-0.8856468000000001,0.33032233
-9.3878565,-0.8856468000000001,0.33032233
-9.3878565,-0.8856468000000001,0.33032233
-9.3878565,-0.8856468000000001,0.33032233
-9.512326,-0.8281995000000001,0.32074776
-9.512326,-0.8281995000000001,0.32074776
-9.512326,-0.8281995000000001,0.32074776
-9.512326,-0.8281995000000001,0.32074776
-9.531475,-0.77075213,0.18670394
-9.531475,-0.77075213,0.18670394
-9.531475,-0.77075213,0.18670394
-9.531475,-0.77075213,0.18670394
-9.31126,-0.8186249,0.081383765
-9.31126,-0.8186249,0.081383765
-9.31126,-0.8186249,0.081383765
-9.31126,-0.8186249,0.081383765
-9.349558,-0.8664976999999999,0.00478728
-9.349558,-0.8664976999999999,0.00478728
-9.349558,-0.8664976999999999,0.00478728
-9.64637,-0.8760723,-0.014361841
-9.64637,-0.8760723,-0.014361841
-9.64637,-0.8760723,-0.014361841
-9.64637,-0.8760723,-0.014361841
-9.675094,-1.0675635,-0.00478728
-9.675094,-1.0675635,-0.00478728
-9.675094,-1.0675635,-0.00478728
-9.675094,-1.0675635,-0.00478728
-9.407005,-1.0579889,0.0
-9.407005,-1.0579889,0.0
-9.407005,-1.0579889,0.0
-9.407005,-1.0579889,0.0
-9.474028,-1.0579889,-0.062234644000000006
-9.474028,-1.0579889,-0.062234644000000006
-9.474028,-1.0579889,-0.062234644000000006
-9.474028,-1.0579889,-0.062234644000000006
-9.636795,-1.1250108,0.023936402000000002
-9.636795,-1.1250108,0.023936402000000002
-9.636795,-1.1250108,0.023936402000000002
-9.636795,-1.1250108,0.023936402000000002
-9.502751,-0.99096704,0.03351096
-9.502751,-0.99096704,0.03351096
-9.502751,-0.99096704,0.03351096
-9.502751,-0.99096704,0.03351096
-9.64637,-0.8186249,0.014361841
-9.64637,-0.8186249,0.014361841
-9.64637,-0.8186249,0.014361841
-9.64637,-0.8186249,0.014361841
-9.579348,-0.70373017,0.05266008
-9.579348,-0.70373017,0.05266008
-9.579348,-0.70373017,0.05266008
-9.368708,-0.5505372,0.05266008
-9.368708,-0.5505372,0.05266008
-9.368708,-0.5505372,0.05266008
-9.368708,-0.5505372,0.05266008
-9.474028,-0.8090504,-0.081383765
-9.474028,-0.8090504,-0.081383765
-9.474028,-0.8090504,-0.081383765
-9.474028,-0.8090504,-0.081383765
-9.512326,-0.78032666,-0.05266008
-9.512326,-0.78032666,-0.05266008
-9.512326,-0.78032666,-0.05266008
-9.512326,-0.78032666,-0.05266008
-9.320834,-0.8664976999999999,-0.081383765
-9.320834,-0.8664976999999999,-0.081383765
-9.320834,-0.8664976999999999,-0.081383765
-9.320834,-0.8664976999999999,-0.081383765
-9.426155,-0.99096704,-0.10053288
-9.426155,-0.99096704,-0.10053288
-9.426155,-0.99096704,-0.10053288
-9.426155,-0.99096704,-0.10053288
-9.493176,-1.0962871,-0.00478728
-9.493176,-1.0962871,-0.00478728
-9.493176,-1.0962871,-0.00478728
-9.493176,-1.0962871,-0.00478728
-9.474028,-1.1058618,0.03351096
-9.474028,-1.1058618,0.03351096
-9.474028,-1.1058618,0.03351096
-9.54105,-1.0962871,0.05266008
-9.54105,-1.0962871,0.05266008
-9.54105,-1.0962871,0.05266008
-9.54105,-1.0962871,0.05266008
-9.407005,-0.98139244,0.10053288
-9.407005,-0.98139244,0.10053288
-9.407005,-0.98139244,0.10053288
-9.407005,-0.98139244,0.10053288
-9.598496,-1.0292653,0.0
-9.598496,-1.0292653,0.0
-9.598496,-1.0292653,0.0
-9.598496,-1.0292653,0.0
-9.464453,-1.0196906,0.043085523
-9.464453,-1.0196906,0.043085523
-9.464453,-1.0196906,0.043085523
-9.464453,-1.0196906,0.043085523
-9.435728999999998,-1.0675635,0.0718092
-9.435728999999998,-1.0675635,0.0718092
-9.435728999999998,-1.0675635,0.0718092
-9.435728999999998,-1.0675635,0.0718092
-9.493176,-1.1058618,0.00478728
-9.493176,-1.1058618,0.00478728
-9.493176,-1.1058618,0.00478728
-9.493176,-1.1058618,0.00478728
-9.464453,-1.1824582000000001,0.023936402000000002
-9.464453,-1.1824582000000001,0.023936402000000002
-9.464453,-1.1824582000000001,0.023936402000000002
-9.474028,-1.1058618,0.014361841
-9.474028,-1.1058618,0.014361841
-9.474028,-1.1058618,0.014361841
-9.474028,-1.1058618,0.014361841
-9.474028,-1.1058618,0.014361841
-9.493176,-1.1058618,-0.014361841
-9.493176,-1.1058618,-0.014361841
-9.493176,-1.1058618,-0.014361841
-9.41658,-1.0484143,0.043085523
-9.41658,-1.0484143,0.043085523
-9.41658,-1.0484143,0.043085523
-9.41658,-1.0484143,0.043085523
-9.464453,-1.0101161,0.043085523
-9.464453,-1.0101161,0.043085523
-9.464453,-1.0101161,0.043085523
-9.464453,-1.0101161,0.043085523
-9.54105,-1.2207563999999997,-0.00478728
-9.54105,-1.2207563999999997,-0.00478728
-9.54105,-1.2207563999999997,-0.00478728
-9.54105,-1.2207563999999997,-0.00478728
-9.569773,-1.2686293,0.062234644000000006
-9.569773,-1.2686293,0.062234644000000006
-9.569773,-1.2686293,0.062234644000000006
-9.569773,-1.2686293,0.062234644000000006
-9.41658,-1.3643749,0.110107444
-9.41658,-1.3643749,0.110107444
-9.41658,-1.3643749,0.110107444
-9.41658,-1.3643749,0.110107444
-9.3878565,-1.3356511999999998,0.12925656
-9.3878565,-1.3356511999999998,0.12925656
-9.3878565,-1.3356511999999998,0.12925656
-9.3878565,-1.3356511999999998,0.12925656
-9.435728999999998,-1.2686293,0.062234644000000006
-9.435728999999998,-1.2686293,0.062234644000000006
-9.435728999999998,-1.2686293,0.062234644000000006
-9.6942425,-1.3930986,-0.062234644000000006
-9.6942425,-1.3930986,-0.062234644000000006
-9.6942425,-1.3930986,-0.062234644000000006
-9.6942425,-1.3930986,-0.062234644000000006
-9.454879,-1.1537346000000002,0.14840569
-9.454879,-1.1537346000000002,0.14840569
-9.454879,-1.1537346000000002,0.14840569
-9.454879,-1.1537346000000002,0.14840569
-9.263388,-1.0484143,0.11968201
-9.263388,-1.0484143,0.11968201
-9.263388,-1.0484143,0.11968201
-9.263388,-1.0484143,0.11968201
-9.407005,-1.1824582000000001,-0.11968201
-9.407005,-1.1824582000000001,-0.11968201
-9.407005,-1.1824582000000001,-0.11968201
-9.407005,-1.1824582000000001,-0.11968201
-9.608071,-1.1537346000000002,-0.043085523
-9.608071,-1.1537346000000002,-0.043085523
-9.608071,-1.1537346000000002,-0.043085523
-9.608071,-1.1537346000000002,-0.043085523
-9.598496,-1.3548003,-0.014361841
-9.598496,-1.3548003,-0.014361841
-9.598496,-1.3548003,-0.014361841
-9.426155,-1.4984187,0.110107444
-9.426155,-1.4984187,0.110107444
-9.426155,-1.4984187,0.110107444
-9.426155,-1.4984187,0.110107444
-9.426155,-1.4984187,0.110107444
-9.397431,-1.4313968000000001,0.2920241
-9.397431,-1.4313968000000001,0.2920241
-9.397431,-1.4313968000000001,0.2920241
-9.435728999999998,-1.469695,0.23457673
-9.435728999999998,-1.469695,0.23457673
-9.435728999999998,-1.469695,0.23457673
-9.435728999999998,-1.469695,0.23457673
-9.62722,-1.5750152,0.13883112
-9.62722,-1.5750152,0.13883112
-9.62722,-1.5750152,0.13883112
-9.62722,-1.5750152,0.13883112
-9.502751,-1.5079931999999998,0.2154276
-9.502751,-1.5079931999999998,0.2154276
-9.502751,-1.5079931999999998,0.2154276
-9.502751,-1.5079931999999998,0.2154276
-9.301685,-1.3165021000000001,0.19627848
-9.301685,-1.3165021000000001,0.19627848
-9.301685,-1.3165021000000001,0.19627848
-9.301685,-1.3165021000000001,0.19627848
-9.703816999999999,-1.2494801000000002,-0.09095833
-9.703816999999999,-1.2494801000000002,-0.09095833
-9.703816999999999,-1.2494801000000002,-0.09095833
-9.703816999999999,-1.2494801000000002,-0.09095833
-9.818711,-1.1154363,-0.11968201
-9.818711,-1.1154363,-0.11968201
-9.818711,-1.1154363,-0.11968201
-9.818711,-1.1154363,-0.11968201
-9.732541000000001,-0.8473485999999999,-0.043085523
-9.732541000000001,-0.8473485999999999,-0.043085523
-9.732541000000001,-0.8473485999999999,-0.043085523
-9.320834,-0.6845810999999999,0.10053288
-9.320834,-0.6845810999999999,0.10053288
-9.320834,-0.6845810999999999,0.10053288
-9.320834,-0.6845810999999999,0.10053288
-9.320834,-0.6845810999999999,0.10053288
-8.363379,-0.7420284,0.17712937
-8.363379,-0.7420284,0.17712937
-8.363379,-0.7420284,0.17712937
-9.426155,-0.85692316,-0.26330042
-9.426155,-0.85692316,-0.26330042
-9.426155,-0.85692316,-0.26330042
-9.426155,-0.85692316,-0.26330042
-9.828286,-0.5505372,-0.17712937
-9.828286,-0.5505372,-0.17712937
-9.828286,-0.5505372,-0.17712937
-9.828286,-0.5505372,-0.17712937
-9.234664,-0.5313880999999999,0.081383765
-9.234664,-0.5313880999999999,0.081383765
-9.234664,-0.5313880999999999,0.081383765
-9.234664,-0.5313880999999999,0.081383765
-10.019777000000001,-0.77075213,-0.05266008
-10.019777000000001,-0.77075213,-0.05266008
-10.019777000000001,-0.77075213,-0.05266008
-10.019777000000001,-0.77075213,-0.05266008
-9.885734,-0.665432,0.062234644000000006
-9.885734,-0.665432,0.062234644000000006
-9.885734,-0.665432,0.062234644000000006
-8.947427000000001,-0.5888355,0.03351096
-8.947427000000001,-0.5888355,0.03351096
-8.947427000000001,-0.5888355,0.03351096
-8.947427000000001,-0.5888355,0.03351096
-8.947427000000001,-0.5888355,0.03351096
-9.397431,-0.78032666,-0.16755481
-9.397431,-0.78032666,-0.16755481
-9.397431,-0.78032666,-0.16755481
-9.799562,-0.98139244,-0.10053288
-9.799562,-0.98139244,-0.10053288
-9.799562,-0.98139244,-0.10053288
-9.799562,-0.98139244,-0.10053288
-9.560199,-0.91437054,0.043085523
-9.560199,-0.91437054,0.043085523
-9.560199,-0.91437054,0.043085523
-9.560199,-0.91437054,0.043085523
-9.177217,-0.8664976999999999,0.081383765
-9.177217,-0.8664976999999999,0.081383765
-9.177217,-0.8664976999999999,0.081383765
-9.177217,-0.8664976999999999,0.081383765
-9.598496,-0.9526688,-0.00478728
-9.598496,-0.9526688,-0.00478728
-9.598496,-0.9526688,-0.00478728
-9.598496,-0.9526688,-0.00478728
-9.732541000000001,-1.1537346000000002,0.00478728
-9.732541000000001,-1.1537346000000002,0.00478728
-9.732541000000001,-1.1537346000000002,0.00478728
-9.732541000000001,-1.1537346000000002,0.00478728
-9.531475,-1.0867126,0.11968201
-9.531475,-1.0867126,0.11968201
-9.531475,-1.0867126,0.11968201
-9.426155,-1.2207563999999997,0.043085523
-9.426155,-1.2207563999999997,0.043085523
-9.426155,-1.2207563999999997,0.043085523
-9.426155,-1.2207563999999997,0.043085523
-9.512326,-1.2494801000000002,0.00478728
-9.512326,-1.2494801000000002,0.00478728
-9.512326,-1.2494801000000002,0.00478728
-9.512326,-1.2494801000000002,0.00478728
-9.550624000000001,-1.1633091,0.03351096
-9.550624000000001,-1.1633091,0.03351096
-9.550624000000001,-1.1633091,0.03351096
-9.550624000000001,-1.1633091,0.03351096
-9.454879,-1.1345854,0.062234644000000006
-9.454879,-1.1345854,0.062234644000000006
-9.454879,-1.1345854,0.062234644000000006
-9.454879,-1.1345854,0.062234644000000006
-9.454879,-1.1154363,0.0
-9.454879,-1.1154363,0.0
-9.454879,-1.1154363,0.0
-9.454879,-1.1154363,0.0
-9.5219,-1.1154363,0.014361841
-9.5219,-1.1154363,0.014361841
-9.5219,-1.1154363,0.014361841
-9.5219,-1.1154363,0.014361841
-9.435728999999998,-1.1058618,-0.0718092
-9.435728999999998,-1.1058618,-0.0718092
-9.435728999999998,-1.1058618,-0.0718092
-9.474028,-1.1058618,-0.00478728
-9.474028,-1.1058618,-0.00478728
-9.474028,-1.1058618,-0.00478728
-9.474028,-1.1058618,-0.00478728
-9.474028,-1.1058618,-0.00478728
-9.493176,-1.0962871,0.05266008
-9.493176,-1.0962871,0.05266008
-9.493176,-1.0962871,0.05266008
-9.608071,-1.0196906,0.17712937
-9.608071,-1.0196906,0.17712937
-9.608071,-1.0196906,0.17712937
-9.608071,-1.0196906,0.17712937
-9.263388,-1.1058618,0.15798025
-9.263388,-1.1058618,0.15798025
-9.263388,-1.1058618,0.15798025
-9.263388,-1.1058618,0.15798025
-9.569773,-1.1728836,0.11968201
-9.569773,-1.1728836,0.11968201
-9.569773,-1.1728836,0.11968201
-9.569773,-1.1728836,0.11968201
-9.550624000000001,-1.3452256999999999,0.16755481
-9.550624000000001,-1.3452256999999999,0.16755481
-9.550624000000001,-1.3452256999999999,0.16755481
-9.550624000000001,-1.3452256999999999,0.16755481
-9.349558,-1.3356511999999998,0.17712937
-9.349558,-1.3356511999999998,0.17712937
-9.349558,-1.3356511999999998,0.17712937
-9.349558,-1.3356511999999998,0.17712937
-9.3878565,-1.3930986,0.110107444
-9.3878565,-1.3930986,0.110107444
-9.3878565,-1.3930986,0.110107444
-9.3878565,-1.3930986,0.110107444
-9.445304,-1.3452256999999999,0.12925656
-9.445304,-1.3452256999999999,0.12925656
-9.445304,-1.3452256999999999,0.12925656
-9.407005,-1.3452256999999999,0.18670394
-9.407005,-1.3452256999999999,0.18670394
-9.407005,-1.3452256999999999,0.18670394
-9.407005,-1.3452256999999999,0.18670394
-9.41658,-1.2399056,0.13883112
-9.41658,-1.2399056,0.13883112
-9.41658,-1.2399056,0.13883112
-9.41658,-1.2399056,0.13883112
-9.397431,-1.1920328000000002,0.110107444
-9.397431,-1.1920328000000002,0.110107444
-9.397431,-1.1920328000000002,0.110107444
-9.397431,-1.1920328000000002,0.110107444
-9.512326,-1.2782038,0.13883112
-9.512326,-1.2782038,0.13883112
-9.512326,-1.2782038,0.13883112
-9.512326,-1.2782038,0.13883112
-9.454879,-1.2686293,0.18670394
-9.454879,-1.2686293,0.18670394
-9.454879,-1.2686293,0.18670394
-9.454879,-1.2686293,0.18670394
-9.569773,-1.3069274,0.14840569
-9.569773,-1.3069274,0.14840569
-9.569773,-1.3069274,0.14840569
-9.569773,-1.3069274,0.14840569
-9.684667999999999,-1.4122477,0.17712937
-9.684667999999999,-1.4122477,0.17712937
-9.684667999999999,-1.4122477,0.17712937
-9.435728999999998,-1.3548003,0.2920241
-9.435728999999998,-1.3548003,0.2920241
-9.435728999999998,-1.3548003,0.2920241
-9.435728999999998,-1.3548003,0.2920241
-9.454879,-1.3165021000000001,0.28244954
-9.454879,-1.3165021000000001,0.28244954
-9.454879,-1.3165021000000001,0.28244954
-9.454879,-1.3165021000000001,0.28244954
-9.454879,-1.2686293,0.18670394
-9.454879,-1.2686293,0.18670394
-9.454879,-1.2686293,0.18670394
-9.454879,-1.2686293,0.18670394
-9.474028,-1.1633091,0.17712937
-9.474028,-1.1633091,0.17712937
-9.474028,-1.1633091,0.17712937
-9.474028,-1.1633091,0.17712937
-9.407005,-1.1345854,0.2154276
-9.407005,-1.1345854,0.2154276
-9.407005,-1.1345854,0.2154276
-9.407005,-1.1345854,0.2154276
-9.339984,-1.1345854,0.16755481
-9.339984,-1.1345854,0.16755481
-9.339984,-1.1345854,0.16755481
-9.426155,-1.14416,0.12925656
-9.426155,-1.14416,0.12925656
-9.426155,-1.14416,0.12925656
-9.426155,-1.14416,0.12925656
-9.426155,-1.14416,0.12925656
-9.339984,-1.0962871,0.16755481
-9.339984,-1.0962871,0.16755481
-9.339984,-1.0962871,0.16755481
-9.292110000000001,-1.1154363,0.09095833
-9.292110000000001,-1.1154363,0.09095833
-9.292110000000001,-1.1154363,0.09095833
-9.292110000000001,-1.1154363,0.09095833
-9.445304,-1.1537346000000002,0.062234644000000006
-9.445304,-1.1537346000000002,0.062234644000000006
-9.445304,-1.1537346000000002,0.062234644000000006
-9.445304,-1.1537346000000002,0.062234644000000006
-9.445304,-1.1824582000000001,0.11968201
-9.445304,-1.1824582000000001,0.11968201
-9.445304,-1.1824582000000001,0.11968201
-9.445304,-1.1824582000000001,0.11968201
-9.5219,-1.2303311000000001,0.18670394
-9.5219,-1.2303311000000001,0.18670394
-9.5219,-1.2303311000000001,0.18670394
-9.5219,-1.2303311000000001,0.18670394
-9.5219,-1.2303311000000001,0.22500217
-9.5219,-1.2303311000000001,0.22500217
-9.5219,-1.2303311000000001,0.22500217
-9.5219,-1.2303311000000001,0.22500217
-9.445304,-1.1537346000000002,0.19627848
-9.445304,-1.1537346000000002,0.19627848
-9.445304,-1.1537346000000002,0.19627848
-9.445304,-1.1537346000000002,0.19627848
-9.454879,-1.2207563999999997,0.11968201
-9.454879,-1.2207563999999997,0.11968201
-9.454879,-1.2207563999999997,0.11968201
-9.483603,-1.2590546999999999,0.05266008
-9.483603,-1.2590546999999999,0.05266008
-9.483603,-1.2590546999999999,0.05266008
-9.483603,-1.2590546999999999,0.05266008
-9.483603,-1.2590546999999999,0.05266008
-9.474028,-1.2686293,0.110107444
-9.474028,-1.2686293,0.110107444
-9.474028,-1.2686293,0.110107444
-9.493176,-1.2399056,0.110107444
-9.493176,-1.2399056,0.110107444
-9.493176,-1.2399056,0.110107444
-9.493176,-1.2399056,0.110107444
-9.531475,-1.3069274,0.10053288
-9.531475,-1.3069274,0.10053288
-9.531475,-1.3069274,0.10053288
-9.531475,-1.3069274,0.10053288
-9.464453,-1.3165021000000001,0.15798025
-9.464453,-1.3165021000000001,0.15798025
-9.464453,-1.3165021000000001,0.15798025
-9.464453,-1.3165021000000001,0.15798025
-9.531475,-1.3643749,0.13883112
-9.531475,-1.3643749,0.13883112
-9.531475,-1.3643749,0.13883112
-9.531475,-1.3643749,0.13883112
-9.454879,-1.383524,0.14840569
-9.454879,-1.383524,0.14840569
-9.454879,-1.383524,0.14840569
-9.454879,-1.383524,0.14840569
-9.531475,-1.4122477,0.11968201
-9.531475,-1.4122477,0.11968201
-9.531475,-1.4122477,0.11968201
-9.531475,-1.4122477,0.11968201
-9.445304,-1.3643749,0.14840569
-9.445304,-1.3643749,0.14840569
-9.445304,-1.3643749,0.14840569
-9.368708,-1.3069274,0.09095833
-9.368708,-1.3069274,0.09095833
-9.368708,-1.3069274,0.09095833
-9.368708,-1.3069274,0.09095833
-9.531475,-1.2782038,0.10053288
-9.531475,-1.2782038,0.10053288
-9.531475,-1.2782038,0.10053288
-9.531475,-1.2782038,0.10053288
-9.464453,-1.1920328000000002,0.17712937
-9.464453,-1.1920328000000002,0.17712937
-9.464453,-1.1920328000000002,0.17712937
-9.464453,-1.1920328000000002,0.17712937
-9.378282,-1.1633091,0.15798025
-9.378282,-1.1633091,0.15798025
-9.378282,-1.1633091,0.15798025
-9.378282,-1.1633091,0.15798025
-9.483603,-1.1824582000000001,0.13883112
-9.483603,-1.1824582000000001,0.13883112
-9.483603,-1.1824582000000001,0.13883112
-9.483603,-1.1824582000000001,0.13883112
-9.531475,-1.1728836,0.16755481
-9.531475,-1.1728836,0.16755481
-9.531475,-1.1728836,0.16755481
-9.493176,-1.2494801000000002,0.16755481
-9.493176,-1.2494801000000002,0.16755481
-9.493176,-1.2494801000000002,0.16755481
-9.493176,-1.2494801000000002,0.16755481
-9.493176,-1.2494801000000002,0.16755481
-9.435728999999998,-1.2207563999999997,0.19627848
-9.435728999999998,-1.2207563999999997,0.19627848
-9.435728999999998,-1.2207563999999997,0.19627848
-9.263388,-1.2590546999999999,0.19627848
-9.263388,-1.2590546999999999,0.19627848
-9.263388,-1.2590546999999999,0.19627848
-9.263388,-1.2590546999999999,0.19627848
-9.359133,-1.2494801000000002,0.15798025
-9.359133,-1.2494801000000002,0.15798025
-9.359133,-1.2494801000000002,0.15798025
-9.359133,-1.2494801000000002,0.15798025
-9.483603,-1.2494801000000002,0.023936402000000002
-9.483603,-1.2494801000000002,0.023936402000000002
-9.483603,-1.2494801000000002,0.023936402000000002
-9.483603,-1.2494801000000002,0.023936402000000002
-9.483603,-1.2494801000000002,0.023936402000000002
-9.483603,-1.2494801000000002,0.023936402000000002
-9.483603,-1.2494801000000002,0.023936402000000002
-9.397431,-1.1824582000000001,0.0718092
-9.397431,-1.1824582000000001,0.0718092
-9.397431,-1.1824582000000001,0.0718092
-9.397431,-1.1824582000000001,0.0718092
-9.483603,-1.1920328000000002,0.10053288
-9.483603,-1.1920328000000002,0.10053288
-9.483603,-1.1920328000000002,0.10053288
-9.483603,-1.1920328000000002,0.10053288
-9.454879,-1.2016073,0.15798025
-9.454879,-1.2016073,0.15798025
-9.454879,-1.2016073,0.15798025
-9.454879,-1.2016073,0.15798025
-9.426155,-1.2303311000000001,0.2154276
-9.426155,-1.2303311000000001,0.2154276
-9.426155,-1.2303311000000001,0.2154276
-9.426155,-1.2303311000000001,0.2154276
-9.454879,-1.2877783999999999,0.11968201
-9.454879,-1.2877783999999999,0.11968201
-9.454879,-1.2877783999999999,0.11968201
-9.454879,-1.2877783999999999,0.11968201
-9.502751,-1.2590546999999999,0.09095833
-9.502751,-1.2590546999999999,0.09095833
-9.502751,-1.2590546999999999,0.09095833
-9.483603,-1.2973529,0.081383765
-9.483603,-1.2973529,0.081383765
-9.483603,-1.2973529,0.081383765
-9.483603,-1.2973529,0.081383765
-9.550624000000001,-1.3069274,0.110107444
-9.550624000000001,-1.3069274,0.110107444
-9.550624000000001,-1.3069274,0.110107444
-9.550624000000001,-1.3069274,0.110107444
-9.569773,-1.3165021000000001,0.15798025
-9.569773,-1.3165021000000001,0.15798025
-9.569773,-1.3165021000000001,0.15798025
-9.569773,-1.3165021000000001,0.15798025
-9.339984,-1.3069274,0.19627848
-9.339984,-1.3069274,0.19627848
-9.339984,-1.3069274,0.19627848
-9.339984,-1.3069274,0.19627848
-9.407005,-1.3548003,0.081383765
-9.407005,-1.3548003,0.081383765
-9.407005,-1.3548003,0.081383765
-9.407005,-1.3548003,0.081383765
-9.550624000000001,-1.3643749,0.0
-9.550624000000001,-1.3643749,0.0
-9.550624000000001,-1.3643749,0.0
