accx,accy,accz
2.9154537,1.4313968000000001,8.650616000000001
2.4654493,1.1345854,8.076141
2.4654493,1.1345854,8.076141
2.4654493,1.1345854,8.076141
2.4654493,1.1345854,8.076141
2.5420458,-0.8473485999999999,6.7357035000000005
2.5420458,-0.8473485999999999,6.7357035000000005
2.5420458,-0.8473485999999999,6.7357035000000005
2.5420458,-0.8473485999999999,6.7357035000000005
3.384607,-5.605905,5.2037735000000005
3.384607,-5.605905,5.2037735000000005
3.384607,-5.605905,5.2037735000000005
3.384607,-5.605905,5.2037735000000005
2.8101335,-7.070812700000001,5.194199
2.8101335,-7.070812700000001,5.194199
2.8101335,-7.070812700000001,5.194199
2.8101335,-7.070812700000001,5.194199
3.671844,-10.287866000000001,3.2888615
3.671844,-10.287866000000001,3.2888615
3.671844,-10.287866000000001,3.2888615
3.671844,-10.287866000000001,3.2888615
3.7197167999999996,-10.40276,0.7994758000000001
3.7197167999999996,-10.40276,0.7994758000000001
3.7197167999999996,-10.40276,0.7994758000000001
3.7197167999999996,-10.40276,0.7994758000000001
2.9346027,-9.5889225,0.11968201
2.9346027,-9.5889225,0.11968201
2.9346027,-9.5889225,0.11968201
2.9346027,-9.5889225,0.11968201
2.1877869999999997,-10.517653999999999,-1.2686293
2.1877869999999997,-10.517653999999999,-1.2686293
2.1877869999999997,-10.517653999999999,-1.2686293
2.1877869999999997,-10.517653999999999,-1.2686293
2.2069361,-9.943181,-1.9196993000000002
2.2069361,-9.943181,-1.9196993000000002
2.2069361,-9.943181,-1.9196993000000002
2.2069361,-9.943181,-1.9196993000000002
1.6803354,-10.249566999999999,-2.0824668
1.6803354,-10.249566999999999,-2.0824668
1.6803354,-10.249566999999999,-2.0824668
1.6803354,-10.249566999999999,-2.0824668
1.1728836,-9.445304,-1.7952299999999999
1.1728836,-9.445304,-1.7952299999999999
1.1728836,-9.445304,-1.7952299999999999
1.1728836,-9.445304,-1.7952299999999999
0.78032666,-7.970821400000001,-1.5175678999999997
0.78032666,-7.970821400000001,-1.5175678999999997
0.78032666,-7.970821400000001,-1.5175678999999997
-0.15798025,-6.3527207,-0.90479594
-0.15798025,-6.3527207,-0.90479594
-0.15798025,-6.3527207,-0.90479594
-0.15798025,-6.3527207,-0.90479594
-1.8239537000000001,-5.653778,-0.32074776
-1.8239537000000001,-5.653778,-0.32074776
-1.8239537000000001,-5.653778,-0.32074776
-1.8239537000000001,-5.653778,-0.32074776
-5.261221,-6.0463347,0.14840569
-5.261221,-6.0463347,0.14840569
-5.261221,-6.0463347,0.14840569
-5.261221,-6.0463347,0.14840569
-9.713391,-7.9899707,-1.9771467
-9.713391,-7.9899707,-1.9771467
-9.713391,-7.9899707,-1.9771467
-9.713391,-7.9899707,-1.9771467
-11.896391,-5.8644185,-1.2590546999999999
-11.896391,-5.8644185,-1.2590546999999999
-11.896391,-5.8644185,-1.2590546999999999
-11.896391,-5.8644185,-1.2590546999999999
-12.35597,-6.0176110000000005,-0.99096704
-12.35597,-6.0176110000000005,-0.99096704
-12.35597,-6.0176110000000005,-0.99096704
-12.35597,-6.0176110000000005,-0.99096704
-10.747444,-5.309094,-1.469695
-10.747444,-5.309094,-1.469695
-10.747444,-5.309094,-1.469695
-9.713391,-4.246317400000001,-0.92394507
-9.713391,-4.246317400000001,-0.92394507
-9.713391,-4.246317400000001,-0.92394507
-9.713391,-4.246317400000001,-0.92394507
-9.713391,-4.246317400000001,-0.92394507
-8.784659,-4.3516379999999995,-0.61755913
-8.784659,-4.3516379999999995,-0.61755913
-8.784659,-4.3516379999999995,-0.61755913
-8.478273,-4.303765,-0.6845810999999999
-8.478273,-4.303765,-0.6845810999999999
-8.478273,-4.303765,-0.6845810999999999
-8.478273,-4.303765,-0.6845810999999999
-8.794233,-4.0356774,-0.5888355
-8.794233,-4.0356774,-0.5888355
-8.794233,-4.0356774,-0.5888355
-8.794233,-4.0356774,-0.5888355
-9.215514,-3.7197167999999996,-0.40691882
-9.215514,-3.7197167999999996,-0.40691882
-9.215514,-3.7197167999999996,-0.40691882
-9.215514,-3.7197167999999996,-0.40691882
-9.110194,-3.6431203,-0.23457673
-9.110194,-3.6431203,-0.23457673
-9.110194,-3.6431203,-0.23457673
-9.110194,-3.6431203,-0.23457673
-9.100619,-3.4420545,-0.25372586
-9.100619,-3.4420545,-0.25372586
-9.100619,-3.4420545,-0.25372586
-9.158066999999999,-3.3367343000000003,-0.20585304
-9.158066999999999,-3.3367343000000003,-0.20585304
-9.158066999999999,-3.3367343000000003,-0.20585304
-9.158066999999999,-3.3367343000000003,-0.20585304
-9.158066999999999,-3.3367343000000003,-0.20585304
-8.880403999999999,-3.1548176,-0.18670394
-8.880403999999999,-3.1548176,-0.18670394
-8.880403999999999,-3.1548176,-0.18670394
-8.755936,-3.1260939999999997,-0.33032233
-8.755936,-3.1260939999999997,-0.33032233
-8.755936,-3.1260939999999997,-0.33032233
-8.755936,-3.1260939999999997,-0.33032233
-8.478273,-3.1260939999999997,-0.3111732
-8.478273,-3.1260939999999997,-0.3111732
-8.478273,-3.1260939999999997,-0.3111732
-8.478273,-3.1260939999999997,-0.3111732
-8.55487,-3.2505634,-0.40691882
-8.55487,-3.2505634,-0.40691882
-8.55487,-3.2505634,-0.40691882
-8.55487,-3.2505634,-0.40691882
-8.372953,-3.2792869,-0.2441513
-8.372953,-3.2792869,-0.2441513
-8.372953,-3.2792869,-0.2441513
-8.372953,-3.2792869,-0.2441513
-8.44955,-3.384607,-0.19627848
-8.44955,-3.384607,-0.19627848
-8.44955,-3.384607,-0.19627848
-8.44955,-3.384607,-0.19627848
-8.631466,-3.4899273,-0.14840569
-8.631466,-3.4899273,-0.14840569
-8.631466,-3.4899273,-0.14840569
-8.765511,-3.5378,-0.110107444
-8.765511,-3.5378,-0.110107444
-8.765511,-3.5378,-0.110107444
-8.765511,-3.5378,-0.110107444
-8.727212,-3.6335455999999997,-0.15798025
-8.727212,-3.6335455999999997,-0.15798025
-8.727212,-3.6335455999999997,-0.15798025
-8.727212,-3.6335455999999997,-0.15798025
-8.957002000000001,-3.7388659,-0.2441513
-8.957002000000001,-3.7388659,-0.2441513
-8.957002000000001,-3.7388659,-0.2441513
-8.957002000000001,-3.7388659,-0.2441513
-8.746361,-3.671844,-0.15798025
-8.746361,-3.671844,-0.15798025
-8.746361,-3.671844,-0.15798025
-8.746361,-3.671844,-0.15798025
-8.7750845,-3.7005677,-0.12925656
-8.7750845,-3.7005677,-0.12925656
-8.7750845,-3.7005677,-0.12925656
-8.7750845,-3.7005677,-0.12925656
-8.909127999999999,-3.7197167999999996,-0.2154276
-8.909127999999999,-3.7197167999999996,-0.2154276
-8.909127999999999,-3.7197167999999996,-0.2154276
-8.909127999999999,-3.7197167999999996,-0.2154276
-8.803808,-3.6431203,-0.2441513
-8.803808,-3.6431203,-0.2441513
-8.803808,-3.6431203,-0.2441513
-8.822957,-3.5760984,-0.2920241
-8.822957,-3.5760984,-0.2920241
-8.822957,-3.5760984,-0.2920241
-8.822957,-3.5760984,-0.2920241
-8.822957,-3.5760984,-0.2920241
-8.861256,-3.518651,-0.3398969
-8.861256,-3.518651,-0.3398969
-8.861256,-3.518651,-0.3398969
-8.813383,-3.518651,-0.4164934
-8.813383,-3.518651,-0.4164934
-8.813383,-3.518651,-0.4164934
-8.813383,-3.518651,-0.4164934
-8.755936,-3.4420545,-0.3877697
-8.755936,-3.4420545,-0.3877697
-8.755936,-3.4420545,-0.3877697
-8.755936,-3.4420545,-0.3877697
-8.669764500000001,-3.384607,-0.34947145
-8.669764500000001,-3.384607,-0.34947145
-8.669764500000001,-3.384607,-0.34947145
-8.669764500000001,-3.384607,-0.34947145
-8.794233,-3.4133307999999998,-0.40691882
-8.794233,-3.4133307999999998,-0.40691882
-8.794233,-3.4133307999999998,-0.40691882
-8.794233,-3.4133307999999998,-0.40691882
-8.746361,-3.4324798999999997,-0.37819514
-8.746361,-3.4324798999999997,-0.37819514
-8.746361,-3.4324798999999997,-0.37819514
-8.746361,-3.4324798999999997,-0.37819514
-8.708063000000001,-3.4899273,-0.33032233
-8.708063000000001,-3.4899273,-0.33032233
-8.708063000000001,-3.4899273,-0.33032233
-8.708063000000001,-3.4899273,-0.33032233
-8.698488000000001,-3.5665237999999997,-0.2920241
-8.698488000000001,-3.5665237999999997,-0.2920241
-8.698488000000001,-3.5665237999999997,-0.2920241
-8.765511,-3.6239712,-0.3111732
-8.765511,-3.6239712,-0.3111732
-8.765511,-3.6239712,-0.3111732
-8.765511,-3.6239712,-0.3111732
-8.736787,-3.5952474999999997,-0.30159867
-8.736787,-3.5952474999999997,-0.30159867
-8.736787,-3.5952474999999997,-0.30159867
-8.736787,-3.5952474999999997,-0.30159867
-8.746361,-3.5378,-0.34947145
-8.746361,-3.5378,-0.34947145
-8.746361,-3.5378,-0.34947145
-8.746361,-3.5378,-0.34947145
-8.784659,-3.5282254,-0.39734426
-8.784659,-3.5282254,-0.39734426
-8.784659,-3.5282254,-0.39734426
-8.784659,-3.5282254,-0.39734426
-8.736787,-3.4995019999999997,-0.37819514
-8.736787,-3.4995019999999997,-0.37819514
-8.736787,-3.4995019999999997,-0.37819514
-8.736787,-3.4995019999999997,-0.37819514
-8.708063000000001,-3.4420545,-0.33032233
-8.708063000000001,-3.4420545,-0.33032233
-8.708063000000001,-3.4420545,-0.33032233
-8.708063000000001,-3.4324798999999997,-0.32074776
-8.708063000000001,-3.4324798999999997,-0.32074776
-8.708063000000001,-3.4324798999999997,-0.32074776
-8.708063000000001,-3.4324798999999997,-0.32074776
-8.698488000000001,-3.4037561000000003,-0.32074776
-8.698488000000001,-3.4037561000000003,-0.32074776
-8.698488000000001,-3.4037561000000003,-0.32074776
-8.698488000000001,-3.4037561000000003,-0.32074776
-8.746361,-3.4133307999999998,-0.3398969
-8.746361,-3.4133307999999998,-0.3398969
-8.746361,-3.4133307999999998,-0.3398969
-8.746361,-3.4133307999999998,-0.3398969
-8.765511,-3.4420545,-0.37819514
-8.765511,-3.4420545,-0.37819514
-8.765511,-3.4420545,-0.37819514
-8.765511,-3.4420545,-0.37819514
-8.822957,-3.4899273,-0.4164934
-8.822957,-3.4899273,-0.4164934
-8.822957,-3.4899273,-0.4164934
-8.822957,-3.4899273,-0.4164934
-8.717637,-3.5378,-0.3877697
-8.717637,-3.5378,-0.3877697
-8.717637,-3.5378,-0.3877697
-8.717637,-3.5378,-0.3877697
-8.746361,-3.5856729,-0.3877697
-8.746361,-3.5856729,-0.3877697
-8.746361,-3.5856729,-0.3877697
-8.736787,-3.6239712,-0.3877697
-8.736787,-3.6239712,-0.3877697
-8.736787,-3.6239712,-0.3877697
-8.736787,-3.6239712,-0.3877697
-8.736787,-3.6239712,-0.3877697
-8.832532,-3.6526947,-0.37819514
-8.832532,-3.6526947,-0.37819514
-8.832532,-3.6526947,-0.37819514
-8.765511,-3.604822,-0.33032233
-8.765511,-3.604822,-0.33032233
-8.765511,-3.604822,-0.33032233
-8.765511,-3.604822,-0.33032233
-8.7750845,-3.518651,-0.3398969
-8.7750845,-3.518651,-0.3398969
-8.7750845,-3.518651,-0.3398969
-8.7750845,-3.518651,-0.3398969
-8.765511,-3.4707782,-0.36862057
-8.765511,-3.4707782,-0.36862057
-8.765511,-3.4707782,-0.36862057
-8.765511,-3.4707782,-0.36862057
-8.708063000000001,-3.4324798999999997,-0.359046
-8.708063000000001,-3.4324798999999997,-0.359046
-8.708063000000001,-3.4324798999999997,-0.359046
-8.708063000000001,-3.4324798999999997,-0.359046
-8.736787,-3.4612036,-0.3877697
-8.736787,-3.4612036,-0.3877697
-8.736787,-3.4612036,-0.3877697
-8.736787,-3.4612036,-0.3877697
-8.679339,-3.4707782,-0.359046
-8.679339,-3.4707782,-0.359046
-8.679339,-3.4707782,-0.359046
-8.679339,-3.4707782,-0.359046
-8.736787,-3.5473747,-0.34947145
-8.736787,-3.5473747,-0.34947145
-8.736787,-3.5473747,-0.34947145
-8.612317,-3.6143966,-0.3398969
-8.612317,-3.6143966,-0.3398969
-8.612317,-3.6143966,-0.3398969
-8.612317,-3.6143966,-0.3398969
-8.650616000000001,-3.6431203,-0.40691882
-8.650616000000001,-3.6431203,-0.40691882
-8.650616000000001,-3.6431203,-0.40691882
-8.650616000000001,-3.6431203,-0.40691882
-8.650616000000001,-3.7197167999999996,-0.49308985
-8.650616000000001,-3.7197167999999996,-0.49308985
-8.650616000000001,-3.7197167999999996,-0.49308985
-8.650616000000001,-3.7197167999999996,-0.49308985
-8.688913000000001,-3.7101421,-0.49308985
-8.688913000000001,-3.7101421,-0.49308985
-8.688913000000001,-3.7101421,-0.49308985
-8.688913000000001,-3.7101421,-0.49308985
-8.746361,-3.690993,-0.48351530000000004
-8.746361,-3.690993,-0.48351530000000004
-8.746361,-3.690993,-0.48351530000000004
-8.746361,-3.690993,-0.48351530000000004
-8.717637,-3.6526947,-0.48351530000000004
-8.717637,-3.6526947,-0.48351530000000004
-8.717637,-3.6526947,-0.48351530000000004
-8.727212,-3.5665237999999997,-0.4164934
-8.727212,-3.5665237999999997,-0.4164934
-8.727212,-3.5665237999999997,-0.4164934
-8.727212,-3.5665237999999997,-0.4164934
-8.727212,-3.5665237999999997,-0.4164934
-8.708063000000001,-3.5282254,-0.36862057
-8.708063000000001,-3.5282254,-0.36862057
-8.708063000000001,-3.5282254,-0.36862057
-8.736787,-3.5090763999999997,-0.37819514
-8.736787,-3.5090763999999997,-0.37819514
-8.736787,-3.5090763999999997,-0.37819514
-8.736787,-3.5090763999999997,-0.37819514
-8.688913000000001,-3.5090763999999997,-0.40691882
-8.688913000000001,-3.5090763999999997,-0.40691882
-8.688913000000001,-3.5090763999999997,-0.40691882
-8.688913000000001,-3.5090763999999997,-0.40691882
-8.727212,-3.4612036,-0.4164934
-8.727212,-3.4612036,-0.4164934
-8.727212,-3.4612036,-0.4164934
-8.727212,-3.4612036,-0.4164934
-8.679339,-3.4612036,-0.46436617
-8.679339,-3.4612036,-0.46436617
-8.679339,-3.4612036,-0.46436617
-8.679339,-3.4612036,-0.46436617
-8.794233,-3.4707782,-0.50266445
-8.794233,-3.4707782,-0.50266445
-8.794233,-3.4707782,-0.50266445
-8.794233,-3.4707782,-0.50266445
-8.650616000000001,-3.5473747,-0.512239
-8.650616000000001,-3.5473747,-0.512239
-8.650616000000001,-3.5473747,-0.512239
-8.650616000000001,-3.5473747,-0.512239
-8.66019,-3.4899273,-0.56968635
-8.66019,-3.4899273,-0.56968635
-8.66019,-3.4899273,-0.56968635
-8.564445,-3.4324798999999997,-0.63670826
-8.564445,-3.4324798999999997,-0.63670826
-8.564445,-3.4324798999999997,-0.63670826
-8.564445,-3.4324798999999997,-0.63670826
-8.688913000000001,-3.3750327000000007,-0.7420284
-8.688913000000001,-3.3750327000000007,-0.7420284
-8.688913000000001,-3.3750327000000007,-0.7420284
-8.688913000000001,-3.3750327000000007,-0.7420284
-8.736787,-3.3558834,-0.8090504
-8.736787,-3.3558834,-0.8090504
-8.736787,-3.3558834,-0.8090504
-8.736787,-3.3558834,-0.8090504
-8.621891999999999,-3.3941817000000003,-0.7994758000000001
-8.621891999999999,-3.3941817000000003,-0.7994758000000001
-8.621891999999999,-3.3941817000000003,-0.7994758000000001
-8.621891999999999,-3.3941817000000003,-0.7994758000000001
-8.717637,-3.7963133,-0.8186249
-8.717637,-3.7963133,-0.8186249
-8.717637,-3.7963133,-0.8186249
-8.717637,-3.7963133,-0.8186249
-8.803808,-4.9835587,-0.69415563
-8.803808,-4.9835587,-0.69415563
-8.803808,-4.9835587,-0.69415563
-8.803808,-4.9835587,-0.69415563
-8.621891999999999,-7.070812700000001,-0.6750065
-8.621891999999999,-7.070812700000001,-0.6750065
-8.621891999999999,-7.070812700000001,-0.6750065
-6.8793216,-10.642124,-1.2686293
-6.8793216,-10.642124,-1.2686293
-6.8793216,-10.642124,-1.2686293
-6.8793216,-10.642124,-1.2686293
-4.83994,-13.370873000000001,-0.9718179
-4.83994,-13.370873000000001,-0.9718179
-4.83994,-13.370873000000001,-0.9718179
-4.83994,-13.370873000000001,-0.9718179
-3.2792869,-12.681505,-0.7324539000000001
-3.2792869,-12.681505,-0.7324539000000001
-3.2792869,-12.681505,-0.7324539000000001
-3.2792869,-12.681505,-0.7324539000000001
-2.1973617,-10.182545,0.043085523
-2.1973617,-10.182545,0.043085523
-2.1973617,-10.182545,0.043085523
-2.1973617,-10.182545,0.043085523
-2.2356597999999996,-8.937852000000001,0.40691882
-2.2356597999999996,-8.937852000000001,0.40691882
-2.2356597999999996,-8.937852000000001,0.40691882
-2.2356597999999996,-8.937852000000001,0.40691882
0.014361841,-7.7123084,0.9430941999999999
0.014361841,-7.7123084,0.9430941999999999
0.014361841,-7.7123084,0.9430941999999999
0.32074776,-3.5569491,1.1824582000000001
0.32074776,-3.5569491,1.1824582000000001
0.32074776,-3.5569491,1.1824582000000001
0.32074776,-3.5569491,1.1824582000000001
0.32074776,-3.5569491,1.1824582000000001
-7.6069884000000005,3.1165195,-3.0111992
-7.6069884000000005,3.1165195,-3.0111992
-7.6069884000000005,3.1165195,-3.0111992
-18.646456,-3.2409887000000004,-3.1260939999999997
-18.646456,-3.2409887000000004,-3.1260939999999997
-18.646456,-3.2409887000000004,-3.1260939999999997
-18.646456,-3.2409887000000004,-3.1260939999999997
-19.603912,-16.425158,-5.0122824
-19.603912,-16.425158,-5.0122824
-19.603912,-16.425158,-5.0122824
-19.603912,-16.425158,-5.0122824
-18.76135,-19.594337,-8.746361
-18.76135,-19.594337,-8.746361
-18.76135,-19.594337,-8.746361
-18.76135,-19.594337,-8.746361
-9.3878565,-17.018782,-1.9101248
-9.3878565,-17.018782,-1.9101248
-9.3878565,-17.018782,-1.9101248
-9.3878565,-17.018782,-1.9101248
7.482519,-9.560199,0.69415563
7.482519,-9.560199,0.69415563
7.482519,-9.560199,0.69415563
7.482519,-9.560199,0.69415563
9.722966,-8.813383,1.0867126
9.722966,-8.813383,1.0867126
9.722966,-8.813383,1.0867126
9.722966,-8.813383,1.0867126
7.865501400000001,-13.188957,2.5994933
7.865501400000001,-13.188957,2.5994933
7.865501400000001,-13.188957,2.5994933
-2.494173,-19.594337,-0.043085523
-2.494173,-19.594337,-0.043085523
-2.494173,-19.594337,-0.043085523
-2.494173,-19.594337,-0.043085523
-18.004960999999998,-19.594337,-3.671844
-18.004960999999998,-19.594337,-3.671844
-18.004960999999998,-19.594337,-3.671844
-18.004960999999998,-19.594337,-3.671844
-16.769842,-15.697492,-2.4175766
-16.769842,-15.697492,-2.4175766
-16.769842,-15.697492,-2.4175766
-16.769842,-15.697492,-2.4175766
-8.727212,-0.2154276,-3.9686553
-8.727212,-0.2154276,-3.9686553
-8.727212,-0.2154276,-3.9686553
-8.727212,-0.2154276,-3.9686553
-8.133589,11.072979,-5.4431376
-8.133589,11.072979,-5.4431376
-8.133589,11.072979,-5.4431376
-8.133589,11.072979,-5.4431376
-6.314422599999999,2.2452345,-2.6952388
-6.314422599999999,2.2452345,-2.6952388
-6.314422599999999,2.2452345,-2.6952388
-6.314422599999999,2.2452345,-2.6952388
-11.886817,-3.6143966,1.1824582000000001
-11.886817,-3.6143966,1.1824582000000001
-11.886817,-3.6143966,1.1824582000000001
-11.886817,-3.6143966,1.1824582000000001
-19.603912,-19.594337,2.0824668
-19.603912,-19.594337,2.0824668
-19.603912,-19.594337,2.0824668
-7.568689999999999,-18.512413000000002,-1.9675721999999998
-7.568689999999999,-18.512413000000002,-1.9675721999999998
-7.568689999999999,-18.512413000000002,-1.9675721999999998
-7.568689999999999,-18.512413000000002,-1.9675721999999998
6.8601727,-7.922949000000001,-0.93351966
6.8601727,-7.922949000000001,-0.93351966
6.8601727,-7.922949000000001,-0.93351966
6.8601727,-7.922949000000001,-0.93351966
10.29744,-3.212265,-1.6324625
10.29744,-3.212265,-1.6324625
10.29744,-3.212265,-1.6324625
10.29744,-3.212265,-1.6324625
10.29744,-3.212265,-1.6324625
10.29744,-3.212265,-1.6324625
10.29744,-3.212265,-1.6324625
1.6994845,-19.594337,-3.997379
1.6994845,-19.594337,-3.997379
1.6994845,-19.594337,-3.997379
1.6994845,-19.594337,-3.997379
-8.095291,-19.594337,0.85692316
-8.095291,-19.594337,0.85692316
-8.095291,-19.594337,0.85692316
-8.095291,-19.594337,0.85692316
-12.135756,-10.852764,0.062234644000000006
-12.135756,-10.852764,0.062234644000000006
-12.135756,-10.852764,0.062234644000000006
-12.135756,-10.852764,0.062234644000000006
-9.722966,5.8644185,-3.5952474999999997
-9.722966,5.8644185,-3.5952474999999997
-9.722966,5.8644185,-3.5952474999999997
-9.722966,5.8644185,-3.5952474999999997
-7.7984796,11.934689500000001,-5.3569665
-7.7984796,11.934689500000001,-5.3569665
-7.7984796,11.934689500000001,-5.3569665
-7.7984796,11.934689500000001,-5.3569665
-13.715557999999998,-4.3995104000000005,-2.9920502
-13.715557999999998,-4.3995104000000005,-2.9920502
-13.715557999999998,-4.3995104000000005,-2.9920502
-18.416667999999998,-19.594337,-6.0846334
-18.416667999999998,-19.594337,-6.0846334
-18.416667999999998,-19.594337,-6.0846334
-18.416667999999998,-19.594337,-6.0846334
-1.3930986,-16.683672,-2.5228968
-1.3930986,-16.683672,-2.5228968
-1.3930986,-16.683672,-2.5228968
-1.3930986,-16.683672,-2.5228968
5.797396,-13.457045,0.081383765
5.797396,-13.457045,0.081383765
5.797396,-13.457045,0.081383765
5.797396,-13.457045,0.081383765
15.860259,-10.412334,1.9867213
15.860259,-10.412334,1.9867213
15.860259,-10.412334,1.9867213
15.860259,-10.412334,1.9867213
13.514492,-19.594337,-0.78990126
13.514492,-19.594337,-0.78990126
13.514492,-19.594337,-0.78990126
13.514492,-19.594337,-0.78990126
-5.2037735000000005,-19.594337,-2.494173
-5.2037735000000005,-19.594337,-2.494173
-5.2037735000000005,-19.594337,-2.494173
-5.2037735000000005,-19.594337,-2.494173
-15.879408999999999,-18.186878,0.3877697
-15.879408999999999,-18.186878,0.3877697
-15.879408999999999,-18.186878,0.3877697
-6.5346375,-2.1782124,-0.77075213
-6.5346375,-2.1782124,-0.77075213
-6.5346375,-2.1782124,-0.77075213
-6.5346375,-2.1782124,-0.77075213
-6.5346375,-2.1782124,-0.77075213
-11.838944,9.215514,-6.1612295999999995
-11.838944,9.215514,-6.1612295999999995
-11.838944,9.215514,-6.1612295999999995
-9.971905,2.427151,-6.3431463
-9.971905,2.427151,-6.3431463
-9.971905,2.427151,-6.3431463
-9.971905,2.427151,-6.3431463
-14.290030999999999,-10.565528,0.3111732
-14.290030999999999,-10.565528,0.3111732
-14.290030999999999,-10.565528,0.3111732
-14.290030999999999,-10.565528,0.3111732
-10.651698,-19.594337,-1.4888442
-10.651698,-19.594337,-1.4888442
-10.651698,-19.594337,-1.4888442
-10.651698,-19.594337,-1.4888442
3.6526947,-15.132593,1.7473572
3.6526947,-15.132593,1.7473572
3.6526947,-15.132593,1.7473572
3.6526947,-15.132593,1.7473572
4.7920675,-9.378282,2.5899186000000003
4.7920675,-9.378282,2.5899186000000003
4.7920675,-9.378282,2.5899186000000003
4.7920675,-9.378282,2.5899186000000003
14.921952,-12.56661,2.8101335
14.921952,-12.56661,2.8101335
14.921952,-12.56661,2.8101335
14.921952,-12.56661,2.8101335
13.705982999999998,-19.594337,-1.776081
13.705982999999998,-19.594337,-1.776081
13.705982999999998,-19.594337,-1.776081
-1.7473572,-19.594337,-1.6324625
-1.7473572,-19.594337,-1.6324625
-1.7473572,-19.594337,-1.6324625
-1.7473572,-19.594337,-1.6324625
-11.005958,-16.233667,3.0303482999999996
-11.005958,-16.233667,3.0303482999999996
-11.005958,-16.233667,3.0303482999999996
-11.005958,-16.233667,3.0303482999999996
-14.127264000000002,1.6803354,-4.5622783
-14.127264000000002,1.6803354,-4.5622783
-14.127264000000002,1.6803354,-4.5622783
-14.127264000000002,1.6803354,-4.5622783
-11.59958,7.587839,-5.289944599999999
-11.59958,7.587839,-5.289944599999999
-11.59958,7.587839,-5.289944599999999
-11.59958,7.587839,-5.289944599999999
-8.842107,-2.7718353,-3.2601378
-8.842107,-2.7718353,-3.2601378
-8.842107,-2.7718353,-3.2601378
-8.842107,-2.7718353,-3.2601378
-11.350641,-19.594337,2.254809
-11.350641,-19.594337,2.254809
-11.350641,-19.594337,2.254809
0.014361841,-19.546464999999998,-0.9430941999999999
0.014361841,-19.546464999999998,-0.9430941999999999
0.014361841,-19.546464999999998,-0.9430941999999999
0.014361841,-19.546464999999998,-0.9430941999999999
0.014361841,-19.546464999999998,-0.9430941999999999
1.0101161,-15.3049345,-2.0633178
1.0101161,-15.3049345,-2.0633178
1.0101161,-15.3049345,-2.0633178
12.7964,-6.5825105,0.76117754
12.7964,-6.5825105,0.76117754
12.7964,-6.5825105,0.76117754
12.7964,-6.5825105,0.76117754
16.310265,-18.177303,1.1920328000000002
16.310265,-18.177303,1.1920328000000002
16.310265,-18.177303,1.1920328000000002
16.310265,-18.177303,1.1920328000000002
4.5335545999999995,-19.594337,-2.8388572
4.5335545999999995,-19.594337,-2.8388572
4.5335545999999995,-19.594337,-2.8388572
4.5335545999999995,-19.594337,-2.8388572
-8.037844,-19.182632,0.45479164
-8.037844,-19.182632,0.45479164
-8.037844,-19.182632,0.45479164
-8.037844,-19.182632,0.45479164
-6.113357,-6.170804,0.17712937
-6.113357,-6.170804,0.17712937
-6.113357,-6.170804,0.17712937
-6.113357,-6.170804,0.17712937
-12.700654,2.9537517999999996,-3.7963133
-12.700654,2.9537517999999996,-3.7963133
-12.700654,2.9537517999999996,-3.7963133
-12.700654,2.9537517999999996,-3.7963133
-6.2665496,3.8250370000000005,-6.0846334
-6.2665496,3.8250370000000005,-6.0846334
-6.2665496,3.8250370000000005,-6.0846334
-10.5080805,-0.3877697,-2.2069361
-10.5080805,-0.3877697,-2.2069361
-10.5080805,-0.3877697,-2.2069361
-10.5080805,-0.3877697,-2.2069361
-14.041093,-19.594337,-0.043085523
-14.041093,-19.594337,-0.043085523
-14.041093,-19.594337,-0.043085523
-14.041093,-19.594337,-0.043085523
-1.4026731000000001,-16.5975,3.2601378
-1.4026731000000001,-16.5975,3.2601378
-1.4026731000000001,-16.5975,3.2601378
-1.4026731000000001,-16.5975,3.2601378
1.7377827000000001,-12.9591675,-0.6079846
1.7377827000000001,-12.9591675,-0.6079846
1.7377827000000001,-12.9591675,-0.6079846
1.7377827000000001,-12.9591675,-0.6079846
11.781497,-12.059159,-0.20585304
11.781497,-12.059159,-0.20585304
11.781497,-12.059159,-0.20585304
11.781497,-12.059159,-0.20585304
16.549626999999997,-19.594337,-0.34947145
16.549626999999997,-19.594337,-0.34947145
16.549626999999997,-19.594337,-0.34947145
16.549626999999997,-19.594337,-0.34947145
4.715471,-19.594337,-1.1250108
4.715471,-19.594337,-1.1250108
4.715471,-19.594337,-1.1250108
-11.791071,-15.908133,2.8292825
-11.791071,-15.908133,2.8292825
-11.791071,-15.908133,2.8292825
-11.791071,-15.908133,2.8292825
-8.794233,0.359046,-2.6952388
-8.794233,0.359046,-2.6952388
-8.794233,0.359046,-2.6952388
-8.794233,0.359046,-2.6952388
-11.168725,7.8176284,-6.285699
-11.168725,7.8176284,-6.285699
-11.168725,7.8176284,-6.285699
-11.168725,7.8176284,-6.285699
-12.212352000000001,0.25372586,-6.7548523000000005
-12.212352000000001,0.25372586,-6.7548523000000005
-12.212352000000001,0.25372586,-6.7548523000000005
-12.212352000000001,0.25372586,-6.7548523000000005
-17.133677,-17.229422,-1.469695
-17.133677,-17.229422,-1.469695
-17.133677,-17.229422,-1.469695
-17.133677,-17.229422,-1.469695
-8.363379,-19.594337,-1.0867126
-8.363379,-19.594337,-1.0867126
-8.363379,-19.594337,-1.0867126
2.2452345,-16.97091,0.751603
2.2452345,-16.97091,0.751603
2.2452345,-16.97091,0.751603
2.2452345,-16.97091,0.751603
2.2452345,-16.97091,0.751603
10.584677000000001,-6.304848000000001,2.3792782000000003
10.584677000000001,-6.304848000000001,2.3792782000000003
10.584677000000001,-6.304848000000001,2.3792782000000003
17.794321,-16.204943,1.9962958
17.794321,-16.204943,1.9962958
17.794321,-16.204943,1.9962958
17.794321,-16.204943,1.9962958
10.450633,-19.594337,0.03351096
10.450633,-19.594337,0.03351096
10.450633,-19.594337,0.03351096
10.450633,-19.594337,0.03351096
-8.34423,-19.594337,1.5941644
-8.34423,-19.594337,1.5941644
-8.34423,-19.594337,1.5941644
-8.34423,-19.594337,1.5941644
-13.849601999999999,-10.249566999999999,1.0771381000000002
-13.849601999999999,-10.249566999999999,1.0771381000000002
-13.849601999999999,-10.249566999999999,1.0771381000000002
-13.849601999999999,-10.249566999999999,1.0771381000000002
-10.077225,7.7601814,-2.88673
-10.077225,7.7601814,-2.88673
-10.077225,7.7601814,-2.88673
-10.077225,7.7601814,-2.88673
-10.469782,7.846352,-5.481436
-10.469782,7.846352,-5.481436
-10.469782,7.846352,-5.481436
-10.469782,7.846352,-5.481436
-16.05175,-2.2260852000000004,-1.4792696
-16.05175,-2.2260852000000004,-1.4792696
-16.05175,-2.2260852000000004,-1.4792696
-16.05175,-2.2260852000000004,-1.4792696
-13.495343,-19.594337,3.9016335
-13.495343,-19.594337,3.9016335
-13.495343,-19.594337,3.9016335
-13.495343,-19.594337,3.9016335
-7.0995364,-19.594337,3.0494976
-7.0995364,-19.594337,3.0494976
-7.0995364,-19.594337,3.0494976
-7.0995364,-19.594337,3.0494976
-4.0739756,-18.732628,0.48351530000000004
-4.0739756,-18.732628,0.48351530000000004
-4.0739756,-18.732628,0.48351530000000004
-4.0739756,-18.732628,0.48351530000000004
12.288948,-6.5729356,-0.56011176
12.288948,-6.5729356,-0.56011176
12.288948,-6.5729356,-0.56011176
12.288948,-6.5729356,-0.56011176
12.288948,-6.5729356,-0.56011176
19.374123,-16.540052,2.4750240000000003
19.374123,-16.540052,2.4750240000000003
19.374123,-16.540052,2.4750240000000003
7.635712,-19.594337,-1.2686293
7.635712,-19.594337,-1.2686293
7.635712,-19.594337,-1.2686293
7.635712,-19.594337,-1.2686293
-11.072979,-19.53689,-1.8909756999999998
-11.072979,-19.53689,-1.8909756999999998
-11.072979,-19.53689,-1.8909756999999998
-11.072979,-19.53689,-1.8909756999999998
-12.193203,-7.377198700000001,-2.0250196
-12.193203,-7.377198700000001,-2.0250196
-12.193203,-7.377198700000001,-2.0250196
-12.193203,-7.377198700000001,-2.0250196
-9.378282,7.616563,-3.9016335
-9.378282,7.616563,-3.9016335
-9.378282,7.616563,-3.9016335
-9.378282,7.616563,-3.9016335
-9.952755999999999,7.3389006,-6.936769
-9.952755999999999,7.3389006,-6.936769
-9.952755999999999,7.3389006,-6.936769
-9.952755999999999,7.3389006,-6.936769
-10.94851,-0.6271336999999999,-4.342063
-10.94851,-0.6271336999999999,-4.342063
-10.94851,-0.6271336999999999,-4.342063
-10.94851,-0.6271336999999999,-4.342063
-10.94851,-0.6271336999999999,-4.342063
-10.94851,-0.6271336999999999,-4.342063
-10.94851,-0.6271336999999999,-4.342063
-3.4037561000000003,-19.594337,3.3941817000000003
-3.4037561000000003,-19.594337,3.3941817000000003
-3.4037561000000003,-19.594337,3.3941817000000003
-1.4888442,-17.449635999999998,1.5654407
-1.4888442,-17.449635999999998,1.5654407
-1.4888442,-17.449635999999998,1.5654407
-1.4888442,-17.449635999999998,1.5654407
-1.4888442,-17.449635999999998,1.5654407
14.127264000000002,-6.151655,3.059072
14.127264000000002,-6.151655,3.059072
14.127264000000002,-6.151655,3.059072
19.3454,-15.63047,0.15798025
19.3454,-15.63047,0.15798025
19.3454,-15.63047,0.15798025
19.3454,-15.63047,0.15798025
19.3454,-15.63047,0.15798025
19.3454,-15.63047,0.15798025
19.3454,-15.63047,0.15798025
19.3454,-15.63047,0.15798025
-8.229335,-18.703903,-0.6079846
-8.229335,-18.703903,-0.6079846
-8.229335,-18.703903,-0.6079846
-7.1857076,-2.0441686999999997,-1.6037389
-7.1857076,-2.0441686999999997,-1.6037389
-7.1857076,-2.0441686999999997,-1.6037389
-7.1857076,-2.0441686999999997,-1.6037389
-13.457045,6.170804,-4.5144053
-13.457045,6.170804,-4.5144053
-13.457045,6.170804,-4.5144053
-13.457045,6.170804,-4.5144053
-7.8176284,0.0718092,-6.438892
-7.8176284,0.0718092,-6.438892
-7.8176284,0.0718092,-6.438892
-7.8176284,0.0718092,-6.438892
-13.744282,-11.38894,2.2069361
-13.744282,-11.38894,2.2069361
-13.744282,-11.38894,2.2069361
-13.744282,-11.38894,2.2069361
-5.289944599999999,-19.594337,1.4601203999999999
-5.289944599999999,-19.594337,1.4601203999999999
-5.289944599999999,-19.594337,1.4601203999999999
-5.289944599999999,-19.594337,1.4601203999999999
-0.32074776,-19.489017,0.37819514
-0.32074776,-19.489017,0.37819514
-0.32074776,-19.489017,0.37819514
-0.32074776,-19.489017,0.37819514
5.6825019999999995,-9.292110000000001,0.40691882
5.6825019999999995,-9.292110000000001,0.40691882
5.6825019999999995,-9.292110000000001,0.40691882
19.441145000000002,-10.431483,1.0196906
19.441145000000002,-10.431483,1.0196906
19.441145000000002,-10.431483,1.0196906
19.441145000000002,-10.431483,1.0196906
19.441145000000002,-10.431483,1.0196906
13.935773000000001,-19.594337,-2.9920502
13.935773000000001,-19.594337,-2.9920502
13.935773000000001,-19.594337,-2.9920502
0.99096704,-19.546464999999998,-3.2505634
0.99096704,-19.546464999999998,-3.2505634
0.99096704,-19.546464999999998,-3.2505634
0.99096704,-19.546464999999998,-3.2505634
-15.027272,-17.018782,2.8771553
-15.027272,-17.018782,2.8771553
-15.027272,-17.018782,2.8771553
-15.027272,-17.018782,2.8771553
-10.498505999999999,-1.6133133999999998,-0.7324539000000001
-10.498505999999999,-1.6133133999999998,-0.7324539000000001
-10.498505999999999,-1.6133133999999998,-0.7324539000000001
-10.498505999999999,-1.6133133999999998,-0.7324539000000001
-12.001712,6.094208,-0.98139244
-12.001712,6.094208,-0.98139244
-12.001712,6.094208,-0.98139244
-12.001712,6.094208,-0.98139244
-10.287866000000001,3.0973704,-1.8143792
-10.287866000000001,3.0973704,-1.8143792
-10.287866000000001,3.0973704,-1.8143792
-10.287866000000001,3.0973704,-1.8143792
-13.380448000000001,-10.594251,6.0750585
-13.380448000000001,-10.594251,6.0750585
-13.380448000000001,-10.594251,6.0750585
-13.380448000000001,-10.594251,6.0750585
-8.181462,-19.594337,8.401677000000001
-8.181462,-19.594337,8.401677000000001
-8.181462,-19.594337,8.401677000000001
-2.7622607000000006,-15.429404000000002,4.5239797
-2.7622607000000006,-15.429404000000002,4.5239797
-2.7622607000000006,-15.429404000000002,4.5239797
-2.7622607000000006,-15.429404000000002,4.5239797
6.132505999999999,-15.438979000000002,-4.658024
6.132505999999999,-15.438979000000002,-4.658024
6.132505999999999,-15.438979000000002,-4.658024
6.132505999999999,-15.438979000000002,-4.658024
19.594337,-11.992137,0.76117754
19.594337,-11.992137,0.76117754
19.594337,-11.992137,0.76117754
19.594337,-11.992137,0.76117754
13.198531,-19.594337,-2.3697037999999995
13.198531,-19.594337,-2.3697037999999995
13.198531,-19.594337,-2.3697037999999995
13.198531,-19.594337,-2.3697037999999995
-4.7920675,-19.584763,-0.56011176
-4.7920675,-19.584763,-0.56011176
-4.7920675,-19.584763,-0.56011176
-4.7920675,-19.584763,-0.56011176
-15.783663,-11.522984,1.5175678999999997
-15.783663,-11.522984,1.5175678999999997
-15.783663,-11.522984,1.5175678999999997
-8.909127999999999,5.146326,-1.0388398
-8.909127999999999,5.146326,-1.0388398
-8.909127999999999,5.146326,-1.0388398
-8.909127999999999,5.146326,-1.0388398
-8.909127999999999,5.146326,-1.0388398
-11.417664,7.080387599999999,-4.7441945
-11.417664,7.080387599999999,-4.7441945
-11.417664,7.080387599999999,-4.7441945
-11.331491999999999,-1.7952299999999999,-1.948423
-11.331491999999999,-1.7952299999999999,-1.948423
-11.331491999999999,-1.7952299999999999,-1.948423
-11.331491999999999,-1.7952299999999999,-1.948423
-8.430401,-19.594337,1.4409714
-8.430401,-19.594337,1.4409714
-8.430401,-19.594337,1.4409714
-8.430401,-19.594337,1.4409714
-0.83777404,-18.837948,2.5516202
-0.83777404,-18.837948,2.5516202
-0.83777404,-18.837948,2.5516202
-0.83777404,-18.837948,2.5516202
-3.4707782,-17.574106,0.5218136
-3.4707782,-17.574106,0.5218136
-3.4707782,-17.574106,0.5218136
-3.4707782,-17.574106,0.5218136
11.982562,-6.7165539999999995,3.4995019999999997
11.982562,-6.7165539999999995,3.4995019999999997
11.982562,-6.7165539999999995,3.4995019999999997
19.11561,-17.717724,3.7005677
19.11561,-17.717724,3.7005677
19.11561,-17.717724,3.7005677
19.11561,-17.717724,3.7005677
19.11561,-17.717724,3.7005677
7.281453,-19.594337,-4.5622783
7.281453,-19.594337,-4.5622783
7.281453,-19.594337,-4.5622783
-11.848517999999999,-17.621979,-5.0505805
-11.848517999999999,-17.621979,-5.0505805
-11.848517999999999,-17.621979,-5.0505805
-11.848517999999999,-17.621979,-5.0505805
-12.279374,0.56011176,-4.849515
-12.279374,0.56011176,-4.849515
-12.279374,0.56011176,-4.849515
-12.279374,0.56011176,-4.849515
-9.31126,5.5771812999999995,-2.9250283
-9.31126,5.5771812999999995,-2.9250283
-9.31126,5.5771812999999995,-2.9250283
-9.31126,5.5771812999999995,-2.9250283
-8.104865,2.0058703,-5.672927
-8.104865,2.0058703,-5.672927
-8.104865,2.0058703,-5.672927
-8.104865,2.0058703,-5.672927
-11.618729,-6.946343400000001,2.1399142999999996
-11.618729,-6.946343400000001,2.1399142999999996
-11.618729,-6.946343400000001,2.1399142999999996
-11.618729,-6.946343400000001,2.1399142999999996
-11.743198,-19.594337,1.8431028999999999
-11.743198,-19.594337,1.8431028999999999
-11.743198,-19.594337,1.8431028999999999
-4.1888704,-17.516659,3.9495062999999995
-4.1888704,-17.516659,3.9495062999999995
-4.1888704,-17.516659,3.9495062999999995
-4.1888704,-17.516659,3.9495062999999995
4.016528,-12.011286,2.8771553
4.016528,-12.011286,2.8771553
4.016528,-12.011286,2.8771553
4.016528,-12.011286,2.8771553
18.857098,-14.567694,-0.14840569
18.857098,-14.567694,-0.14840569
18.857098,-14.567694,-0.14840569
18.857098,-14.567694,-0.14840569
13.294277,-19.594337,-3.1165195
13.294277,-19.594337,-3.1165195
13.294277,-19.594337,-3.1165195
13.294277,-19.594337,-3.1165195
-6.3527207,-19.57519,-4.8590894
-6.3527207,-19.57519,-4.8590894
-6.3527207,-19.57519,-4.8590894
-6.3527207,-19.57519,-4.8590894
-19.3454,-13.782579,-2.0058703
-19.3454,-13.782579,-2.0058703
-19.3454,-13.782579,-2.0058703
-19.3454,-13.782579,-2.0058703
-10.881488000000001,10.833615,-2.6282167000000003
-10.881488000000001,10.833615,-2.6282167000000003
-10.881488000000001,10.833615,-2.6282167000000003
-14.32833,14.53897,-5.8548436
-14.32833,14.53897,-5.8548436
-14.32833,14.53897,-5.8548436
-14.32833,14.53897,-5.8548436
-14.32833,14.53897,-5.8548436
-15.190041,1.2207563999999997,-5.605905
-15.190041,1.2207563999999997,-5.605905
-15.190041,1.2207563999999997,-5.605905
-18.895395,-16.702820000000003,-5.1367517
-18.895395,-16.702820000000003,-5.1367517
-18.895395,-16.702820000000003,-5.1367517
-18.895395,-16.702820000000003,-5.1367517
-14.826207,-19.594337,-5.7686725
-14.826207,-19.594337,-5.7686725
-14.826207,-19.594337,-5.7686725
-14.826207,-19.594337,-5.7686725
-9.368708,-16.760267000000002,0.30159867
-9.368708,-16.760267000000002,0.30159867
-9.368708,-16.760267000000002,0.30159867
-9.368708,-16.760267000000002,0.30159867
8.755936,-12.174053,5.787822
8.755936,-12.174053,5.787822
8.755936,-12.174053,5.787822
8.755936,-12.174053,5.787822
12.834699,-18.675179999999997,2.4845984
12.834699,-18.675179999999997,2.4845984
12.834699,-18.675179999999997,2.4845984
12.834699,-18.675179999999997,2.4845984
7.9133744,-19.594337,-2.1782124
7.9133744,-19.594337,-2.1782124
7.9133744,-19.594337,-2.1782124
7.9133744,-19.594337,-2.1782124
-13.074062,-19.55604,-7.5112429999999994
-13.074062,-19.55604,-7.5112429999999994
-13.074062,-19.55604,-7.5112429999999994
-15.228338,-8.5740185,-3.2601378
-15.228338,-8.5740185,-3.2601378
-15.228338,-8.5740185,-3.2601378
-15.228338,-8.5740185,-3.2601378
-9.531475,8.478273,-2.6282167000000003
-9.531475,8.478273,-2.6282167000000003
-9.531475,8.478273,-2.6282167000000003
-9.531475,8.478273,-2.6282167000000003
-8.784659,10.747444,-7.377198700000001
-8.784659,10.747444,-7.377198700000001
-8.784659,10.747444,-7.377198700000001
-8.784659,10.747444,-7.377198700000001
-12.863422,-1.8718264999999998,-3.3080106
-12.863422,-1.8718264999999998,-3.3080106
-12.863422,-1.8718264999999998,-3.3080106
-12.863422,-1.8718264999999998,-3.3080106
-12.863422,-1.8718264999999998,-3.3080106
-16.875162,-18.770926,-1.3548003
-16.875162,-18.770926,-1.3548003
-16.875162,-18.770926,-1.3548003
-15.850685,-19.594337,-4.150572
-15.850685,-19.594337,-4.150572
-15.850685,-19.594337,-4.150572
-15.850685,-19.594337,-4.150572
-7.329325999999999,-19.297527,1.0771381000000002
-7.329325999999999,-19.297527,1.0771381000000002
-7.329325999999999,-19.297527,1.0771381000000002
-7.329325999999999,-19.297527,1.0771381000000002
8.909127999999999,-9.770839,0.4164934
8.909127999999999,-9.770839,0.4164934
8.909127999999999,-9.770839,0.4164934
8.909127999999999,-9.770839,0.4164934
19.53689,-17.985810999999998,0.34947145
19.53689,-17.985810999999998,0.34947145
19.53689,-17.985810999999998,0.34947145
19.53689,-17.985810999999998,0.34947145
11.254896,-19.086885000000002,-4.6867475999999995
11.254896,-19.086885000000002,-4.6867475999999995
11.254896,-19.086885000000002,-4.6867475999999995
11.254896,-19.086885000000002,-4.6867475999999995
-5.835694999999999,-19.594337,-2.3697037999999995
-5.835694999999999,-19.594337,-2.3697037999999995
-5.835694999999999,-19.594337,-2.3697037999999995
-5.835694999999999,-19.594337,-2.3697037999999995
-15.850685,-11.522984,0.56968635
-15.850685,-11.522984,0.56968635
-15.850685,-11.522984,0.56968635
-15.850685,-11.522984,0.56968635
-11.15915,2.8771553,-1.5654407
-11.15915,2.8771553,-1.5654407
-11.15915,2.8771553,-1.5654407
-5.998462,9.119769,-5.797396
-5.998462,9.119769,-5.797396
-5.998462,9.119769,-5.797396
-5.998462,9.119769,-5.797396
-5.998462,9.119769,-5.797396
-11.972988,1.0005416,-3.671844
-11.972988,1.0005416,-3.671844
-11.972988,1.0005416,-3.671844
-13.428320999999999,-14.395351000000002,-1.6037389
-13.428320999999999,-14.395351000000002,-1.6037389
-13.428320999999999,-14.395351000000002,-1.6037389
-13.428320999999999,-14.395351000000002,-1.6037389
-13.428320999999999,-14.395351000000002,-1.6037389
-13.428320999999999,-14.395351000000002,-1.6037389
-13.428320999999999,-14.395351000000002,-1.6037389
-13.428320999999999,-14.395351000000002,-1.6037389
-6.9176197,-19.335825,3.5378
-6.9176197,-19.335825,3.5378
-6.9176197,-19.335825,3.5378
8.727212,-6.8793216,2.5516202
8.727212,-6.8793216,2.5516202
8.727212,-6.8793216,2.5516202
8.727212,-6.8793216,2.5516202
19.57519,-12.212352000000001,0.7324539000000001
19.57519,-12.212352000000001,0.7324539000000001
19.57519,-12.212352000000001,0.7324539000000001
19.57519,-12.212352000000001,0.7324539000000001
12.920869,-18.636882999999997,-1.2782038
12.920869,-18.636882999999997,-1.2782038
12.920869,-18.636882999999997,-1.2782038
12.920869,-18.636882999999997,-1.2782038
-1.1154363,-19.594337,-1.0005416
-1.1154363,-19.594337,-1.0005416
-1.1154363,-19.594337,-1.0005416
-1.1154363,-19.594337,-1.0005416
-16.760267000000002,-13.725132,-0.3877697
-16.760267000000002,-13.725132,-0.3877697
-16.760267000000002,-13.725132,-0.3877697
-16.760267000000002,-13.725132,-0.3877697
-9.272962,7.7123084,-1.5271424
-9.272962,7.7123084,-1.5271424
-9.272962,7.7123084,-1.5271424
-9.272962,7.7123084,-1.5271424
-8.602742,10.144247,-4.7920675
-8.602742,10.144247,-4.7920675
-8.602742,10.144247,-4.7920675
-14.941101999999999,-0.5505372,-3.4420545
-14.941101999999999,-0.5505372,-3.4420545
-14.941101999999999,-0.5505372,-3.4420545
-14.941101999999999,-0.5505372,-3.4420545
-14.941101999999999,-0.5505372,-3.4420545
-17.679426,-19.527314999999998,0.32074776
-17.679426,-19.527314999999998,0.32074776
-17.679426,-19.527314999999998,0.32074776
-13.217680999999999,-19.594337,0.27287498
-13.217680999999999,-19.594337,0.27287498
-13.217680999999999,-19.594337,0.27287498
-13.217680999999999,-19.594337,0.27287498
-1.9771467,-17.851768,1.8239537000000001
-1.9771467,-17.851768,1.8239537000000001
-1.9771467,-17.851768,1.8239537000000001
-1.9771467,-17.851768,1.8239537000000001
11.235746,-8.535721,4.6867475999999995
11.235746,-8.535721,4.6867475999999995
11.235746,-8.535721,4.6867475999999995
11.235746,-8.535721,4.6867475999999995
14.864505,-15.515575,2.0824668
14.864505,-15.515575,2.0824668
14.864505,-15.515575,2.0824668
14.864505,-15.515575,2.0824668
7.8846507,-19.287952,-1.0962871
7.8846507,-19.287952,-1.0962871
7.8846507,-19.287952,-1.0962871
7.8846507,-19.287952,-1.0962871
-9.445304,-19.594337,-2.4463003
-9.445304,-19.594337,-2.4463003
-9.445304,-19.594337,-2.4463003
-9.445304,-19.594337,-2.4463003
-14.883655,-16.406010000000002,2.2739582
-14.883655,-16.406010000000002,2.2739582
-14.883655,-16.406010000000002,2.2739582
-10.431483,3.7101421,-2.1399142999999996
-10.431483,3.7101421,-2.1399142999999996
-10.431483,3.7101421,-2.1399142999999996
-10.431483,3.7101421,-2.1399142999999996
-9.215514,15.046422,-4.466532
-9.215514,15.046422,-4.466532
-9.215514,15.046422,-4.466532
-9.215514,15.046422,-4.466532
-13.7730055,5.299519,-6.0559096
-13.7730055,5.299519,-6.0559096
-13.7730055,5.299519,-6.0559096
-13.7730055,5.299519,-6.0559096
-15.170891000000001,-10.326163000000001,-2.3888528
-15.170891000000001,-10.326163000000001,-2.3888528
-15.170891000000001,-10.326163000000001,-2.3888528
-15.170891000000001,-10.326163000000001,-2.3888528
-16.348562,-19.594337,1.0388398
-16.348562,-19.594337,1.0388398
-16.348562,-19.594337,1.0388398
-16.348562,-19.594337,1.0388398
-16.559202,-19.594337,1.6228879999999999
-16.559202,-19.594337,1.6228879999999999
-16.559202,-19.594337,1.6228879999999999
0.0,-12.834699,4.1601467
0.0,-12.834699,4.1601467
0.0,-12.834699,4.1601467
0.0,-12.834699,4.1601467
16.061325,-13.121935,2.3026817000000004
16.061325,-13.121935,2.3026817000000004
16.061325,-13.121935,2.3026817000000004
16.061325,-13.121935,2.3026817000000004
16.05175,-19.594337,2.8292825
16.05175,-19.594337,2.8292825
16.05175,-19.594337,2.8292825
16.05175,-19.594337,2.8292825
-3.0303482999999996,-19.546464999999998,-4.0739756
-3.0303482999999996,-19.546464999999998,-4.0739756
-3.0303482999999996,-19.546464999999998,-4.0739756
-3.0303482999999996,-19.546464999999998,-4.0739756
-19.287952,-16.511329999999997,-4.5527034
-19.287952,-16.511329999999997,-4.5527034
-19.287952,-16.511329999999997,-4.5527034
-19.287952,-16.511329999999997,-4.5527034
-10.747444,4.6388745,-3.518651
-10.747444,4.6388745,-3.518651
-10.747444,4.6388745,-3.518651
-10.747444,4.6388745,-3.518651
-8.401677000000001,13.246405,-2.8484317999999997
-8.401677000000001,13.246405,-2.8484317999999997
-8.401677000000001,13.246405,-2.8484317999999997
-12.777251,3.4037561000000003,-4.0739756
-12.777251,3.4037561000000003,-4.0739756
-12.777251,3.4037561000000003,-4.0739756
-12.777251,3.4037561000000003,-4.0739756
-12.777251,3.4037561000000003,-4.0739756
-13.246405,-6.47719,-0.751603
-13.246405,-6.47719,-0.751603
-13.246405,-6.47719,-0.751603
-19.125185000000002,-19.364548000000003,0.10053288
-19.125185000000002,-19.364548000000003,0.10053288
-19.125185000000002,-19.364548000000003,0.10053288
-19.125185000000002,-19.364548000000003,0.10053288
-17.631554,-19.594337,-2.360129
-17.631554,-19.594337,-2.360129
-17.631554,-19.594337,-2.360129
-17.631554,-19.594337,-2.360129
0.8281995000000001,-15.774088,1.0292653
0.8281995000000001,-15.774088,1.0292653
0.8281995000000001,-15.774088,1.0292653
0.8281995000000001,-15.774088,1.0292653
19.594337,-11.293194,-0.7324539000000001
19.594337,-11.293194,-0.7324539000000001
19.594337,-11.293194,-0.7324539000000001
19.594337,-11.293194,-0.7324539000000001
13.734707,-19.594337,3.193116
13.734707,-19.594337,3.193116
13.734707,-19.594337,3.193116
13.734707,-19.594337,3.193116
2.9441773999999996,-19.594337,-6.391019
2.9441773999999996,-19.594337,-6.391019
2.9441773999999996,-19.594337,-6.391019
-17.26772,-19.067738000000002,-6.8793216
-17.26772,-19.067738000000002,-6.8793216
-17.26772,-19.067738000000002,-6.8793216
-17.26772,-19.067738000000002,-6.8793216
-13.437895999999999,-0.25372586,-4.409085299999999
-13.437895999999999,-0.25372586,-4.409085299999999
-13.437895999999999,-0.25372586,-4.409085299999999
-13.437895999999999,-0.25372586,-4.409085299999999
-10.211267999999999,15.515575,-3.1643922000000004
-10.211267999999999,15.515575,-3.1643922000000004
-10.211267999999999,15.515575,-3.1643922000000004
-10.211267999999999,15.515575,-3.1643922000000004
-12.748528,5.3378177,-4.4856815
-12.748528,5.3378177,-4.4856815
-12.748528,5.3378177,-4.4856815
-12.748528,5.3378177,-4.4856815
-15.9177065,-2.2165107999999996,-2.1782124
-15.9177065,-2.2165107999999996,-2.1782124
-15.9177065,-2.2165107999999996,-2.1782124
-15.9177065,-2.2165107999999996,-2.1782124
-16.779417000000002,-18.684755,0.85692316
-16.779417000000002,-18.684755,0.85692316
-16.779417000000002,-18.684755,0.85692316
-16.779417000000002,-18.684755,0.85692316
-18.713478,-19.594337,1.0101161
-18.713478,-19.594337,1.0101161
-18.713478,-19.594337,1.0101161
-4.4952559999999995,-18.301773,2.6186423
-4.4952559999999995,-18.301773,2.6186423
-4.4952559999999995,-18.301773,2.6186423
-4.4952559999999995,-18.301773,2.6186423
-4.4952559999999995,-18.301773,2.6186423
17.401764,-10.555953,6.7740016
17.401764,-10.555953,6.7740016
17.401764,-10.555953,6.7740016
16.224092000000002,-19.019865,4.1122737
16.224092000000002,-19.019865,4.1122737
16.224092000000002,-19.019865,4.1122737
16.224092000000002,-19.019865,4.1122737
3.3175852,-19.594337,-5.0122824
3.3175852,-19.594337,-5.0122824
3.3175852,-19.594337,-5.0122824
3.3175852,-19.594337,-5.0122824
-17.937939,-19.22093,-5.0793040000000005
-17.937939,-19.22093,-5.0793040000000005
-17.937939,-19.22093,-5.0793040000000005
-17.937939,-19.22093,-5.0793040000000005
-10.891063,-2.1303396,-1.1920328000000002
-10.891063,-2.1303396,-1.1920328000000002
-10.891063,-2.1303396,-1.1920328000000002
-10.891063,-2.1303396,-1.1920328000000002
-9.914457,14.960251000000001,-2.9441773999999996
-9.914457,14.960251000000001,-2.9441773999999996
-9.914457,14.960251000000001,-2.9441773999999996
-9.914457,14.960251000000001,-2.9441773999999996
-13.591088000000001,8.985725,-7.731457700000001
-13.591088000000001,8.985725,-7.731457700000001
-13.591088000000001,8.985725,-7.731457700000001
-13.591088000000001,8.985725,-7.731457700000001
-15.170891000000001,-1.4026731000000001,-5.146326
-15.170891000000001,-1.4026731000000001,-5.146326
-15.170891000000001,-1.4026731000000001,-5.146326
-15.170891000000001,-1.4026731000000001,-5.146326
-18.560285999999998,-15.553873000000001,-1.3643749
-18.560285999999998,-15.553873000000001,-1.3643749
-18.560285999999998,-15.553873000000001,-1.3643749
-18.560285999999998,-15.553873000000001,-1.3643749
-19.603912,-19.594337,-2.2260852000000004
-19.603912,-19.594337,-2.2260852000000004
-19.603912,-19.594337,-2.2260852000000004
-19.603912,-19.594337,-2.2260852000000004
-8.392102000000001,-19.010289999999998,0.71330476
-8.392102000000001,-19.010289999999998,0.71330476
-8.392102000000001,-19.010289999999998,0.71330476
-8.392102000000001,-19.010289999999998,0.71330476
15.218764000000002,-10.019777000000001,1.2973529
15.218764000000002,-10.019777000000001,1.2973529
15.218764000000002,-10.019777000000001,1.2973529
15.218764000000002,-10.019777000000001,1.2973529
14.634716000000001,-16.0709,1.3548003
14.634716000000001,-16.0709,1.3548003
14.634716000000001,-16.0709,1.3548003
14.634716000000001,-16.0709,1.3548003
7.5782647,-19.374123,-3.8250370000000005
7.5782647,-19.374123,-3.8250370000000005
7.5782647,-19.374123,-3.8250370000000005
7.5782647,-19.374123,-3.8250370000000005
-13.447470000000001,-19.594337,-6.6878304
-13.447470000000001,-19.594337,-6.6878304
-13.447470000000001,-19.594337,-6.6878304
-13.447470000000001,-19.594337,-6.6878304
-16.559202,-8.870830999999999,-3.059072
-16.559202,-8.870830999999999,-3.059072
-16.559202,-8.870830999999999,-3.059072
-16.559202,-8.870830999999999,-3.059072
-6.400593799999999,11.475111,-1.8048046999999998
-6.400593799999999,11.475111,-1.8048046999999998
-6.400593799999999,11.475111,-1.8048046999999998
-6.400593799999999,11.475111,-1.8048046999999998
-10.680422,11.781497,-7.0133657000000005
-10.680422,11.781497,-7.0133657000000005
-10.680422,11.781497,-7.0133657000000005
-11.379365,1.2782038,-7.741032000000001
-11.379365,1.2782038,-7.741032000000001
-11.379365,1.2782038,-7.741032000000001
-11.379365,1.2782038,-7.741032000000001
-11.379365,1.2782038,-7.741032000000001
-13.303852,-3.3080106,-4.868664
-13.303852,-3.3080106,-4.868664
-13.303852,-3.3080106,-4.868664
-19.603912,-19.594337,-6.4197426
-19.603912,-19.594337,-6.4197426
-19.603912,-19.594337,-6.4197426
-19.603912,-19.594337,-6.4197426
-17.612404,-19.594337,-3.0686467
-17.612404,-19.594337,-3.0686467
-17.612404,-19.594337,-3.0686467
-17.612404,-19.594337,-3.0686467
7.1091112999999995,-12.288948,2.034594
7.1091112999999995,-12.288948,2.034594
7.1091112999999995,-12.288948,2.034594
7.1091112999999995,-12.288948,2.034594
17.18155,-16.61665,0.062234644000000006
17.18155,-16.61665,0.062234644000000006
17.18155,-16.61665,0.062234644000000006
17.18155,-16.61665,0.062234644000000006
17.18155,-16.61665,0.062234644000000006
17.18155,-16.61665,0.062234644000000006
17.18155,-16.61665,0.062234644000000006
-5.7686725,-19.594337,-7.635712
-5.7686725,-19.594337,-7.635712
-5.7686725,-19.594337,-7.635712
-5.7686725,-19.594337,-7.635712
-18.675179999999997,-17.363466,-5.787822
-18.675179999999997,-17.363466,-5.787822
-18.675179999999997,-17.363466,-5.787822
-18.675179999999997,-17.363466,-5.787822
-7.156984,3.9016335,-4.954835
-7.156984,3.9016335,-4.954835
-7.156984,3.9016335,-4.954835
-7.156984,3.9016335,-4.954835
-11.082554,12.020861,-7.291027499999999
-11.082554,12.020861,-7.291027499999999
-11.082554,12.020861,-7.291027499999999
-11.082554,12.020861,-7.291027499999999
-12.920869,4.8782387,-7.875075999999999
-12.920869,4.8782387,-7.875075999999999
-12.920869,4.8782387,-7.875075999999999
-14.031518,-0.9622433000000001,-3.4707782
-14.031518,-0.9622433000000001,-3.4707782
-14.031518,-0.9622433000000001,-3.4707782
-14.031518,-0.9622433000000001,-3.4707782
-19.603912,-17.411339,-3.8346114
-19.603912,-17.411339,-3.8346114
-19.603912,-17.411339,-3.8346114
-19.603912,-17.411339,-3.8346114
-18.981565,-19.594337,-2.4367256
-18.981565,-19.594337,-2.4367256
-18.981565,-19.594337,-2.4367256
-18.981565,-19.594337,-2.4367256
-1.4984187,-11.7049,5.1846247000000005
-1.4984187,-11.7049,5.1846247000000005
-1.4984187,-11.7049,5.1846247000000005
-1.4984187,-11.7049,5.1846247000000005
11.695326,-7.176133,4.8303657
11.695326,-7.176133,4.8303657
11.695326,-7.176133,4.8303657
11.695326,-7.176133,4.8303657
14.87408,-11.905966000000001,2.3026817000000004
14.87408,-11.905966000000001,2.3026817000000004
14.87408,-11.905966000000001,2.3026817000000004
11.101703,-19.412422,-4.456958
11.101703,-19.412422,-4.456958
11.101703,-19.412422,-4.456958
11.101703,-19.412422,-4.456958
11.101703,-19.412422,-4.456958
-6.3814445,-19.594337,-1.0005416
-6.3814445,-19.594337,-1.0005416
-6.3814445,-19.594337,-1.0005416
-12.528313,-9.2825365,0.6558574
-12.528313,-9.2825365,0.6558574
-12.528313,-9.2825365,0.6558574
-12.528313,-9.2825365,0.6558574
-15.975154000000002,8.516571,-4.5144053
-15.975154000000002,8.516571,-4.5144053
-15.975154000000002,8.516571,-4.5144053
-15.975154000000002,8.516571,-4.5144053
-8.708063000000001,7.137835000000001,-6.525062999999999
-8.708063000000001,7.137835000000001,-6.525062999999999
-8.708063000000001,7.137835000000001,-6.525062999999999
-8.708063000000001,7.137835000000001,-6.525062999999999
-15.888982999999998,-0.99096704,-4.102699299999999
-15.888982999999998,-0.99096704,-4.102699299999999
-15.888982999999998,-0.99096704,-4.102699299999999
-15.888982999999998,-0.99096704,-4.102699299999999
-18.32092,-15.257062,-3.2792869
-18.32092,-15.257062,-3.2792869
-18.32092,-15.257062,-3.2792869
-18.32092,-15.257062,-3.2792869
-19.57519,-19.594337,-1.14416
-19.57519,-19.594337,-1.14416
-19.57519,-19.594337,-1.14416
-19.57519,-19.594337,-1.14416
-9.31126,-17.689001,2.2356597999999996
-9.31126,-17.689001,2.2356597999999996
-9.31126,-17.689001,2.2356597999999996
8.909127999999999,-8.143164,3.6239712
8.909127999999999,-8.143164,3.6239712
8.909127999999999,-8.143164,3.6239712
8.909127999999999,-8.143164,3.6239712
16.788992,-12.3463955,4.0069537
16.788992,-12.3463955,4.0069537
16.788992,-12.3463955,4.0069537
16.788992,-12.3463955,4.0069537
12.997466000000001,-16.798567000000002,-1.6803354
12.997466000000001,-16.798567000000002,-1.6803354
12.997466000000001,-16.798567000000002,-1.6803354
12.997466000000001,-16.798567000000002,-1.6803354
-4.954835,-19.594337,-3.5378
-4.954835,-19.594337,-3.5378
-4.954835,-19.594337,-3.5378
-4.954835,-19.594337,-3.5378
-11.666602000000001,-15.467703,1.3548003
-11.666602000000001,-15.467703,1.3548003
-11.666602000000001,-15.467703,1.3548003
-11.666602000000001,-15.467703,1.3548003
-11.417664,5.759098000000001,-2.149489
-11.417664,5.759098000000001,-2.149489
-11.417664,5.759098000000001,-2.149489
-11.417664,5.759098000000001,-2.149489
-10.862339,12.35597,-5.529309
-10.862339,12.35597,-5.529309
-10.862339,12.35597,-5.529309
-15.649619,2.5420458,-6.745278
-15.649619,2.5420458,-6.745278
-15.649619,2.5420458,-6.745278
-15.649619,2.5420458,-6.745278
-17.957088,-3.9112080000000002,-4.6293
-17.957088,-3.9112080000000002,-4.6293
-17.957088,-3.9112080000000002,-4.6293
-17.957088,-3.9112080000000002,-4.6293
-19.603912,-19.594337,-2.752686
-19.603912,-19.594337,-2.752686
-19.603912,-19.594337,-2.752686
-19.603912,-19.594337,-2.752686
-17.248571,-19.594337,-3.5856729
-17.248571,-19.594337,-3.5856729
-17.248571,-19.594337,-3.5856729
-17.248571,-19.594337,-3.5856729
2.9441773999999996,-11.140001,5.0601554
2.9441773999999996,-11.140001,5.0601554
2.9441773999999996,-11.140001,5.0601554
2.9441773999999996,-11.140001,5.0601554
13.964497,-11.570856,4.0739756
13.964497,-11.570856,4.0739756
13.964497,-11.570856,4.0739756
15.008123000000001,-17.794321,3.2026904
15.008123000000001,-17.794321,3.2026904
15.008123000000001,-17.794321,3.2026904
15.008123000000001,-17.794321,3.2026904
15.008123000000001,-17.794321,3.2026904
2.752686,-19.594337,-1.9579976000000003
2.752686,-19.594337,-1.9579976000000003
2.752686,-19.594337,-1.9579976000000003
-17.535807000000002,-18.952842999999998,-2.4175766
-17.535807000000002,-18.952842999999998,-2.4175766
-17.535807000000002,-18.952842999999998,-2.4175766
-17.535807000000002,-18.952842999999998,-2.4175766
-17.851768,3.193116,-6.8888964999999995
-17.851768,3.193116,-6.8888964999999995
-17.851768,3.193116,-6.8888964999999995
-17.851768,3.193116,-6.8888964999999995
-14.337904,16.358137,-10.06765
-14.337904,16.358137,-10.06765
-14.337904,16.358137,-10.06765
-14.337904,16.358137,-10.06765
-19.508167,4.0931244,-12.221927
-19.508167,4.0931244,-12.221927
-19.508167,4.0931244,-12.221927
-19.508167,4.0931244,-12.221927
-19.603912,-1.9675721999999998,-10.316589
-19.603912,-1.9675721999999998,-10.316589
-19.603912,-1.9675721999999998,-10.316589
-19.603912,-1.9675721999999998,-10.316589
-19.584763,-16.415585,-13.083637
-19.584763,-16.415585,-13.083637
-19.584763,-16.415585,-13.083637
-19.584763,-16.415585,-13.083637
-19.077312,-19.594337,-3.6431203
-19.077312,-19.594337,-3.6431203
-19.077312,-19.594337,-3.6431203
1.4792696,-11.858092999999998,7.4442205
1.4792696,-11.858092999999998,7.4442205
1.4792696,-11.858092999999998,7.4442205
1.4792696,-11.858092999999998,7.4442205
1.4792696,-11.858092999999998,7.4442205
10.900637,-10.862339,10.2016945
10.900637,-10.862339,10.2016945
10.900637,-10.862339,10.2016945
12.997466000000001,-18.904970000000002,8.296356
12.997466000000001,-18.904970000000002,8.296356
12.997466000000001,-18.904970000000002,8.296356
12.997466000000001,-18.904970000000002,8.296356
1.6611862000000002,-19.594337,-1.3548003
1.6611862000000002,-19.594337,-1.3548003
1.6611862000000002,-19.594337,-1.3548003
1.6611862000000002,-19.594337,-1.3548003
-19.603912,-19.316675,-6.9559183
-19.603912,-19.316675,-6.9559183
-19.603912,-19.316675,-6.9559183
-19.603912,-19.316675,-6.9559183
-19.603912,7.731457700000001,-10.785743
-19.603912,7.731457700000001,-10.785743
-19.603912,7.731457700000001,-10.785743
-19.603912,7.731457700000001,-10.785743
-19.55604,19.603912,-18.646456
-19.55604,19.603912,-18.646456
-19.55604,19.603912,-18.646456
-19.55604,19.603912,-18.646456
-19.603912,0.03351096,-11.657027000000001
-19.603912,0.03351096,-11.657027000000001
-19.603912,0.03351096,-11.657027000000001
-19.603912,-10.632549000000001,-10.900637
-19.603912,-10.632549000000001,-10.900637
-19.603912,-10.632549000000001,-10.900637
-19.603912,-10.632549000000001,-10.900637
-19.603912,-19.594337,-6.2091026
-19.603912,-19.594337,-6.2091026
-19.603912,-19.594337,-6.2091026
-19.603912,-19.594337,-6.2091026
-9.493176,-19.3071,4.9835587
-9.493176,-19.3071,4.9835587
-9.493176,-19.3071,4.9835587
-9.493176,-19.3071,4.9835587
13.255979,-13.035764,5.1176023
13.255979,-13.035764,5.1176023
13.255979,-13.035764,5.1176023
13.255979,-13.035764,5.1176023
9.301685,-19.594337,11.743198
9.301685,-19.594337,11.743198
9.301685,-19.594337,11.743198
-2.714388,-19.594337,5.979312999999999
-2.714388,-19.594337,5.979312999999999
-2.714388,-19.594337,5.979312999999999
-2.714388,-19.594337,5.979312999999999
-2.714388,-19.594337,5.979312999999999
-19.297527,-19.57519,-6.4197426
-19.297527,-19.57519,-6.4197426
-19.297527,-19.57519,-6.4197426
-19.402847,-15.649619,-9.177217
-19.402847,-15.649619,-9.177217
-19.402847,-15.649619,-9.177217
-19.402847,-15.649619,-9.177217
-14.787908999999999,10.757019,-9.62722
-14.787908999999999,10.757019,-9.62722
-14.787908999999999,10.757019,-9.62722
-14.787908999999999,10.757019,-9.62722
-14.711312,16.15707,-11.312344
-14.711312,16.15707,-11.312344
-14.711312,16.15707,-11.312344
-14.711312,16.15707,-11.312344
-17.516659,3.7388659,-9.0814705
-17.516659,3.7388659,-9.0814705
-17.516659,3.7388659,-9.0814705
-17.516659,3.7388659,-9.0814705
-17.200697,-5.9027166,-6.898471000000001
-17.200697,-5.9027166,-6.898471000000001
-17.200697,-5.9027166,-6.898471000000001
-17.200697,-5.9027166,-6.898471000000001
-19.603912,-19.594337,-9.837861
-19.603912,-19.594337,-9.837861
-19.603912,-19.594337,-9.837861
-19.603912,-19.594337,-9.837861
-19.603912,-19.594337,-9.837861
-19.192207,-19.594337,-3.671844
-19.192207,-19.594337,-3.671844
-19.192207,-19.594337,-3.671844
0.023936402000000002,-17.143251,6.7548523000000005
0.023936402000000002,-17.143251,6.7548523000000005
0.023936402000000002,-17.143251,6.7548523000000005
0.023936402000000002,-17.143251,6.7548523000000005
0.023936402000000002,-17.143251,6.7548523000000005
19.211354999999998,-16.386860000000002,8.420826
19.211354999999998,-16.386860000000002,8.420826
19.211354999999998,-16.386860000000002,8.420826
19.211354999999998,-16.386860000000002,8.420826
12.8538475,-19.594337,1.1728836
12.8538475,-19.594337,1.1728836
12.8538475,-19.594337,1.1728836
-13.016615,-19.584763,-9.339984
-13.016615,-19.584763,-9.339984
-13.016615,-19.584763,-9.339984
-13.016615,-19.584763,-9.339984
-13.016615,-19.584763,-9.339984
-19.498592000000002,-16.118773,-5.7208
-19.498592000000002,-16.118773,-5.7208
-19.498592000000002,-16.118773,-5.7208
-15.190041,12.681505,-9.665519
-15.190041,12.681505,-9.665519
-15.190041,12.681505,-9.665519
-15.190041,12.681505,-9.665519
-12.499589,14.366628,-9.8953085
-12.499589,14.366628,-9.8953085
-12.499589,14.366628,-9.8953085
-12.499589,14.366628,-9.8953085
-15.075145999999998,0.45479164,-6.898471000000001
-15.075145999999998,0.45479164,-6.898471000000001
-15.075145999999998,0.45479164,-6.898471000000001
-15.075145999999998,0.45479164,-6.898471000000001
-18.454966,-13.255979,-0.8952214
-18.454966,-13.255979,-0.8952214
-18.454966,-13.255979,-0.8952214
-18.454966,-13.255979,-0.8952214
-19.603912,-19.594337,-2.2739582
-19.603912,-19.594337,-2.2739582
-19.603912,-19.594337,-2.2739582
-19.603912,-19.594337,-2.2739582
-14.069817,-18.656029999999998,1.1345854
-14.069817,-18.656029999999998,1.1345854
-14.069817,-18.656029999999998,1.1345854
-14.069817,-18.656029999999998,1.1345854
-14.069817,-18.656029999999998,1.1345854
6.639958,-17.583681,5.778247400000001
6.639958,-17.583681,5.778247400000001
6.639958,-17.583681,5.778247400000001
10.92936,-18.818798,2.714388
10.92936,-18.818798,2.714388
10.92936,-18.818798,2.714388
10.92936,-18.818798,2.714388
7.980396300000001,-19.594337,-0.49308985
7.980396300000001,-19.594337,-0.49308985
7.980396300000001,-19.594337,-0.49308985
7.980396300000001,-19.594337,-0.49308985
-9.684667999999999,-19.584763,-5.4431376
-9.684667999999999,-19.584763,-5.4431376
-9.684667999999999,-19.584763,-5.4431376
-9.684667999999999,-19.584763,-5.4431376
-18.416667999999998,-13.294277,-4.476107
-18.416667999999998,-13.294277,-4.476107
-18.416667999999998,-13.294277,-4.476107
-18.416667999999998,-13.294277,-4.476107
-10.766592999999999,4.916537,-1.8143792
-10.766592999999999,4.916537,-1.8143792
-10.766592999999999,4.916537,-1.8143792
-10.766592999999999,4.916537,-1.8143792
-13.34215,17.1624,-2.5707695
-13.34215,17.1624,-2.5707695
-13.34215,17.1624,-2.5707695
-16.204943,8.334655,-5.328243
-16.204943,8.334655,-5.328243
-16.204943,8.334655,-5.328243
-16.204943,8.334655,-5.328243
-16.204943,8.334655,-5.328243
-18.7805,-5.155901,-1.5558661
-18.7805,-5.155901,-1.5558661
-18.7805,-5.155901,-1.5558661
-19.603912,-12.844273,2.972901
-19.603912,-12.844273,2.972901
-19.603912,-12.844273,2.972901
-19.603912,-12.844273,2.972901
-19.527314999999998,-19.594337,4.3133397
-19.527314999999998,-19.594337,4.3133397
-19.527314999999998,-19.594337,4.3133397
-19.527314999999998,-19.594337,4.3133397
-5.194199,-19.594337,2.5228968
-5.194199,-19.594337,2.5228968
-5.194199,-19.594337,2.5228968
-5.194199,-19.594337,2.5228968
18.684755,-19.55604,1.2494801000000002
18.684755,-19.55604,1.2494801000000002
18.684755,-19.55604,1.2494801000000002
18.684755,-19.55604,1.2494801000000002
13.121935,-19.594337,4.294190400000001
13.121935,-19.594337,4.294190400000001
13.121935,-19.594337,4.294190400000001
2.4463003,-19.594337,2.8292825
2.4463003,-19.594337,2.8292825
2.4463003,-19.594337,2.8292825
2.4463003,-19.594337,2.8292825
2.4463003,-19.594337,2.8292825
-18.656029999999998,-19.594337,1.3643749
-18.656029999999998,-19.594337,1.3643749
-18.656029999999998,-19.594337,1.3643749
-16.032602,-3.5760984,-1.7473572
-16.032602,-3.5760984,-1.7473572
-16.032602,-3.5760984,-1.7473572
-16.032602,-3.5760984,-1.7473572
-14.136839000000002,15.400681,-1.8335283
-14.136839000000002,15.400681,-1.8335283
-14.136839000000002,15.400681,-1.8335283
-14.136839000000002,15.400681,-1.8335283
-12.614484,11.666602000000001,-7.597413499999999
-12.614484,11.666602000000001,-7.597413499999999
-12.614484,11.666602000000001,-7.597413499999999
-12.614484,11.666602000000001,-7.597413499999999
-11.858092999999998,-0.8856468000000001,-5.222923000000001
-11.858092999999998,-0.8856468000000001,-5.222923000000001
-11.858092999999998,-0.8856468000000001,-5.222923000000001
-11.858092999999998,-0.8856468000000001,-5.222923000000001
-17.765596,-12.413418,-1.0771381000000002
-17.765596,-12.413418,-1.0771381000000002
-17.765596,-12.413418,-1.0771381000000002
-17.765596,-12.413418,-1.0771381000000002
-19.603912,-19.594337,2.9250283
-19.603912,-19.594337,2.9250283
-19.603912,-19.594337,2.9250283
-19.603912,-19.594337,2.9250283
-9.464453,-14.491097,6.9271946
-9.464453,-14.491097,6.9271946
-9.464453,-14.491097,6.9271946
13.705982999999998,-6.8601727,5.8261199999999995
13.705982999999998,-6.8601727,5.8261199999999995
13.705982999999998,-6.8601727,5.8261199999999995
13.705982999999998,-6.8601727,5.8261199999999995
15.553873000000001,-16.760267000000002,6.544212
15.553873000000001,-16.760267000000002,6.544212
15.553873000000001,-16.760267000000002,6.544212
15.553873000000001,-16.760267000000002,6.544212
7.1091112999999995,-19.594337,3.1548176
7.1091112999999995,-19.594337,3.1548176
7.1091112999999995,-19.594337,3.1548176
7.1091112999999995,-19.594337,3.1548176
-14.232584,-19.53689,-3.7292912000000005
-14.232584,-19.53689,-3.7292912000000005
-14.232584,-19.53689,-3.7292912000000005
-14.232584,-19.53689,-3.7292912000000005
-14.921952,-10.977234,-2.2165107999999996
-14.921952,-10.977234,-2.2165107999999996
-14.921952,-10.977234,-2.2165107999999996
-14.921952,-10.977234,-2.2165107999999996
-10.938935,12.078308,-2.8580062
-10.938935,12.078308,-2.8580062
-10.938935,12.078308,-2.8580062
-13.275128,12.231501,-6.1899533
-13.275128,12.231501,-6.1899533
-13.275128,12.231501,-6.1899533
-13.275128,12.231501,-6.1899533
-13.275128,12.231501,-6.1899533
-15.5060005,-0.2920241,-1.8718264999999998
-15.5060005,-0.2920241,-1.8718264999999998
-15.5060005,-0.2920241,-1.8718264999999998
-18.158154,-14.088965,1.8239537000000001
-18.158154,-14.088965,1.8239537000000001
-18.158154,-14.088965,1.8239537000000001
-18.158154,-14.088965,1.8239537000000001
-19.603912,-19.594337,-1.2973529
-19.603912,-19.594337,-1.2973529
-19.603912,-19.594337,-1.2973529
-19.603912,-19.594337,-1.2973529
-11.551707,-18.770926,-3.8250370000000005
-11.551707,-18.770926,-3.8250370000000005
-11.551707,-18.770926,-3.8250370000000005
-11.551707,-18.770926,-3.8250370000000005
3.4037561000000003,-11.886817,6.2761245
3.4037561000000003,-11.886817,6.2761245
3.4037561000000003,-11.886817,6.2761245
3.4037561000000003,-11.886817,6.2761245
13.849601999999999,-17.478360000000002,9.569773
13.849601999999999,-17.478360000000002,9.569773
13.849601999999999,-17.478360000000002,9.569773
13.849601999999999,-17.478360000000002,9.569773
14.021944,-18.895395,6.6878304
14.021944,-18.895395,6.6878304
14.021944,-18.895395,6.6878304
14.021944,-18.895395,6.6878304
-9.761265,-19.594337,-3.8729098
-9.761265,-19.594337,-3.8729098
-9.761265,-19.594337,-3.8729098
-17.05708,-12.815549,-7.2048570000000005
-17.05708,-12.815549,-7.2048570000000005
-17.05708,-12.815549,-7.2048570000000005
-17.05708,-12.815549,-7.2048570000000005
-17.05708,-12.815549,-7.2048570000000005
-16.147495000000003,12.719804,-8.124015
-16.147495000000003,12.719804,-8.124015
-16.147495000000003,12.719804,-8.124015
-15.486851999999999,11.092129,-10.804892
-15.486851999999999,11.092129,-10.804892
-15.486851999999999,11.092129,-10.804892
-15.486851999999999,11.092129,-10.804892
-16.607075,0.37819514,-7.252729400000001
-16.607075,0.37819514,-7.252729400000001
-16.607075,0.37819514,-7.252729400000001
-16.607075,0.37819514,-7.252729400000001
-19.603912,-10.374036,-6.3718699999999995
-19.603912,-10.374036,-6.3718699999999995
-19.603912,-10.374036,-6.3718699999999995
-19.603912,-10.374036,-6.3718699999999995
-19.603912,-19.594337,-8.928278
-19.603912,-19.594337,-8.928278
-19.603912,-19.594337,-8.928278
-19.603912,-19.594337,-8.928278
-12.767676,-18.44539,0.8664976999999999
-12.767676,-18.44539,0.8664976999999999
-12.767676,-18.44539,0.8664976999999999
11.982562,-11.580430999999999,6.2378263
11.982562,-11.580430999999999,6.2378263
11.982562,-11.580430999999999,6.2378263
11.982562,-11.580430999999999,6.2378263
13.102786,-18.512413000000002,8.191036
13.102786,-18.512413000000002,8.191036
13.102786,-18.512413000000002,8.191036
13.102786,-18.512413000000002,8.191036
10.843189,-18.225176,4.5239797
10.843189,-18.225176,4.5239797
10.843189,-18.225176,4.5239797
10.843189,-18.225176,4.5239797
-5.605905,-19.594337,-1.2399056
-5.605905,-19.594337,-1.2399056
-5.605905,-19.594337,-1.2399056
-5.605905,-19.594337,-1.2399056
-19.603912,-18.589008,-4.610151
-19.603912,-18.589008,-4.610151
-19.603912,-18.589008,-4.610151
-19.603912,-18.589008,-4.610151
-18.550710000000002,9.263388,-6.592085000000001
-18.550710000000002,9.263388,-6.592085000000001
-18.550710000000002,9.263388,-6.592085000000001
-12.595334,19.479443,-13.00704
-12.595334,19.479443,-13.00704
-12.595334,19.479443,-13.00704
-12.595334,19.479443,-13.00704
-12.595334,19.479443,-13.00704
-19.43157,-1.5462915000000002,-11.934689500000001
-19.43157,-1.5462915000000002,-11.934689500000001
-19.43157,-1.5462915000000002,-11.934689500000001
-19.508167,-5.49101,-11.446387
-19.508167,-5.49101,-11.446387
-19.508167,-5.49101,-11.446387
-19.508167,-5.49101,-11.446387
-19.603912,-19.594337,-11.934689500000001
-19.603912,-19.594337,-11.934689500000001
-19.603912,-19.594337,-11.934689500000001
-19.603912,-19.594337,-11.934689500000001
-16.147495000000003,-19.3071,-0.03351096
-16.147495000000003,-19.3071,-0.03351096
-16.147495000000003,-19.3071,-0.03351096
-16.147495000000003,-19.3071,-0.03351096
6.438892,-9.828286,9.943181
6.438892,-9.828286,9.943181
6.438892,-9.828286,9.943181
6.438892,-9.828286,9.943181
19.594337,-15.898558,12.231501
19.594337,-15.898558,12.231501
19.594337,-15.898558,12.231501
19.594337,-15.898558,12.231501
12.25065,-19.594337,2.2931072999999995
12.25065,-19.594337,2.2931072999999995
12.25065,-19.594337,2.2931072999999995
12.25065,-19.594337,2.2931072999999995
-7.1091112999999995,-19.594337,-8.842107
-7.1091112999999995,-19.594337,-8.842107
-7.1091112999999995,-19.594337,-8.842107
-17.621979,-17.765596,-7.463369999999999
-17.621979,-17.765596,-7.463369999999999
-17.621979,-17.765596,-7.463369999999999
-17.621979,-17.765596,-7.463369999999999
-17.621979,-17.765596,-7.463369999999999
-15.563448000000001,3.8729098,-4.926111
-15.563448000000001,3.8729098,-4.926111
-15.563448000000001,3.8729098,-4.926111
-9.876159,15.525148999999999,-8.602742
-9.876159,15.525148999999999,-8.602742
-9.876159,15.525148999999999,-8.602742
-9.876159,15.525148999999999,-8.602742
-13.13151,2.867581,-7.2623043
-13.13151,2.867581,-7.2623043
-13.13151,2.867581,-7.2623043
-13.13151,2.867581,-7.2623043
-14.223009,-1.6516117,-4.7058964
-14.223009,-1.6516117,-4.7058964
-14.223009,-1.6516117,-4.7058964
-14.223009,-1.6516117,-4.7058964
-19.603912,-16.214517999999998,-9.292110000000001
-19.603912,-16.214517999999998,-9.292110000000001
-19.603912,-16.214517999999998,-9.292110000000001
-19.603912,-16.214517999999998,-9.292110000000001
-18.962418,-19.594337,-13.380448000000001
-18.962418,-19.594337,-13.380448000000001
-18.962418,-19.594337,-13.380448000000001
-18.962418,-19.594337,-13.380448000000001
-1.5367169,-15.726215,3.4229053999999994
-1.5367169,-15.726215,3.4229053999999994
-1.5367169,-15.726215,3.4229053999999994
18.53156,-13.323001000000001,9.272962
18.53156,-13.323001000000001,9.272962
18.53156,-13.323001000000001,9.272962
18.53156,-13.323001000000001,9.272962
15.831535,-19.594337,7.386773599999999
15.831535,-19.594337,7.386773599999999
15.831535,-19.594337,7.386773599999999
15.831535,-19.594337,7.386773599999999
4.504830999999999,-19.584763,-2.7622607000000006
4.504830999999999,-19.584763,-2.7622607000000006
4.504830999999999,-19.584763,-2.7622607000000006
4.504830999999999,-19.584763,-2.7622607000000006
-18.79965,-19.594337,-8.430401
-18.79965,-19.594337,-8.430401
-18.79965,-19.594337,-8.430401
-18.79965,-19.594337,-8.430401
-18.186878,-12.384694,-3.4133307999999998
-18.186878,-12.384694,-3.4133307999999998
-18.186878,-12.384694,-3.4133307999999998
-18.186878,-12.384694,-3.4133307999999998
-14.213435,13.840027,-4.7441945
-14.213435,13.840027,-4.7441945
-14.213435,13.840027,-4.7441945
-14.213435,13.840027,-4.7441945
-12.269799,11.695326,-6.697405000000001
-12.269799,11.695326,-6.697405000000001
-12.269799,11.695326,-6.697405000000001
-15.314509,1.1824582000000001,-7.7601814
-15.314509,1.1824582000000001,-7.7601814
-15.314509,1.1824582000000001,-7.7601814
-15.314509,1.1824582000000001,-7.7601814
-15.314509,1.1824582000000001,-7.7601814
-18.42624,-9.96233,-7.396348
-18.42624,-9.96233,-7.396348
-18.42624,-9.96233,-7.396348
-19.603912,-19.594337,-10.259142
-19.603912,-19.594337,-10.259142
-19.603912,-19.594337,-10.259142
-19.603912,-19.594337,-10.259142
-15.075145999999998,-19.20178,1.3739493999999999
-15.075145999999998,-19.20178,1.3739493999999999
-15.075145999999998,-19.20178,1.3739493999999999
-15.075145999999998,-19.20178,1.3739493999999999
14.002794,-13.188957,15.055995999999999
14.002794,-13.188957,15.055995999999999
14.002794,-13.188957,15.055995999999999
14.002794,-13.188957,15.055995999999999
14.64429,-18.924118,6.7548523000000005
14.64429,-18.924118,6.7548523000000005
14.64429,-18.924118,6.7548523000000005
14.64429,-18.924118,6.7548523000000005
1.2303311000000001,-19.594337,-0.9430941999999999
1.2303311000000001,-19.594337,-0.9430941999999999
1.2303311000000001,-19.594337,-0.9430941999999999
-18.253899,-19.55604,-8.679339
-18.253899,-19.55604,-8.679339
-18.253899,-19.55604,-8.679339
-18.253899,-19.55604,-8.679339
-16.367712,-8.277207,-4.772918
-16.367712,-8.277207,-4.772918
-16.367712,-8.277207,-4.772918
-16.367712,-8.277207,-4.772918
-8.411251,11.781497,-2.2931072999999995
-8.411251,11.781497,-2.2931072999999995
-8.411251,11.781497,-2.2931072999999995
-8.411251,11.781497,-2.2931072999999995
-12.413418,10.94851,-5.979312999999999
-12.413418,10.94851,-5.979312999999999
-12.413418,10.94851,-5.979312999999999
-12.413418,10.94851,-5.979312999999999
-14.175137,3.4803526,-5.4431376
-14.175137,3.4803526,-5.4431376
-14.175137,3.4803526,-5.4431376
-14.175137,3.4803526,-5.4431376
-17.047504,-5.146326,-4.73462
-17.047504,-5.146326,-4.73462
-17.047504,-5.146326,-4.73462
-17.047504,-5.146326,-4.73462
-19.603912,-18.368793,-6.668680999999999
-19.603912,-18.368793,-6.668680999999999
-19.603912,-18.368793,-6.668680999999999
-19.603912,-18.368793,-6.668680999999999
-17.823044,-19.594337,-3.4995019999999997
-17.823044,-19.594337,-3.4995019999999997
-17.823044,-19.594337,-3.4995019999999997
2.254809,-18.885820000000002,1.8909756999999998
2.254809,-18.885820000000002,1.8909756999999998
2.254809,-18.885820000000002,1.8909756999999998
2.254809,-18.885820000000002,1.8909756999999998
17.171974,-15.467703,3.690993
17.171974,-15.467703,3.690993
17.171974,-15.467703,3.690993
17.171974,-15.467703,3.690993
13.638962,-19.43157,0.6750065
13.638962,-19.43157,0.6750065
13.638962,-19.43157,0.6750065
13.638962,-19.43157,0.6750065
4.619725,-19.527314999999998,-4.7537694
4.619725,-19.527314999999998,-4.7537694
4.619725,-19.527314999999998,-4.7537694
4.619725,-19.527314999999998,-4.7537694
-19.067738000000002,-19.594337,-6.113357
-19.067738000000002,-19.594337,-6.113357
-19.067738000000002,-19.594337,-6.113357
-19.067738000000002,-19.594337,-6.113357
-18.521988,-11.532558,-2.8197080000000003
-18.521988,-11.532558,-2.8197080000000003
-18.521988,-11.532558,-2.8197080000000003
-18.521988,-11.532558,-2.8197080000000003
-19.192207,16.645372000000002,-9.6942425
-19.192207,16.645372000000002,-9.6942425
-19.192207,16.645372000000002,-9.6942425
-18.818798,12.231501,-13.849601999999999
-18.818798,12.231501,-13.849601999999999
-18.818798,12.231501,-13.849601999999999
-18.818798,12.231501,-13.849601999999999
-18.818798,12.231501,-13.849601999999999
-18.742203,-5.739949,-6.3814445
-18.742203,-5.739949,-6.3814445
-18.742203,-5.739949,-6.3814445
-19.603912,-19.594337,-7.4920936000000005
-19.603912,-19.594337,-7.4920936000000005
-19.603912,-19.594337,-7.4920936000000005
-19.603912,-19.594337,-7.4920936000000005
-16.453882,-19.594337,1.0005416
-16.453882,-19.594337,1.0005416
-16.453882,-19.594337,1.0005416
-16.453882,-19.594337,1.0005416
4.715471,-14.213435,6.0750585
4.715471,-14.213435,6.0750585
4.715471,-14.213435,6.0750585
4.715471,-14.213435,6.0750585
15.496426000000001,-10.268716,8.296356
15.496426000000001,-10.268716,8.296356
15.496426000000001,-10.268716,8.296356
15.496426000000001,-10.268716,8.296356
12.202777000000001,-19.594337,6.2952733
12.202777000000001,-19.594337,6.2952733
12.202777000000001,-19.594337,6.2952733
12.202777000000001,-19.594337,6.2952733
-3.0973704,-19.594337,-0.12925656
-3.0973704,-19.594337,-0.12925656
-3.0973704,-19.594337,-0.12925656
-19.603912,-19.335825,-6.0750585
-19.603912,-19.335825,-6.0750585
-19.603912,-19.335825,-6.0750585
-19.603912,-19.335825,-6.0750585
-13.188957,-1.9196993000000002,-5.155901
-13.188957,-1.9196993000000002,-5.155901
-13.188957,-1.9196993000000002,-5.155901
-13.188957,-1.9196993000000002,-5.155901
-10.096374,16.5975,-7.7027339999999995
-10.096374,16.5975,-7.7027339999999995
-10.096374,16.5975,-7.7027339999999995
-10.096374,16.5975,-7.7027339999999995
-14.902803,8.669764500000001,-11.455961
-14.902803,8.669764500000001,-11.455961
-14.902803,8.669764500000001,-11.455961
-14.902803,8.669764500000001,-11.455961
-12.451715,-0.13883112,-6.304848000000001
-12.451715,-0.13883112,-6.304848000000001
-12.451715,-0.13883112,-6.304848000000001
-12.451715,-0.13883112,-6.304848000000001
-19.039013,-13.370873000000001,-5.605905
-19.039013,-13.370873000000001,-5.605905
-19.039013,-13.370873000000001,-5.605905
-19.039013,-13.370873000000001,-5.605905
-19.603912,-19.594337,-10.096374
-19.603912,-19.594337,-10.096374
-19.603912,-19.594337,-10.096374
-9.215514,-18.79965,-3.3463089999999998
-9.215514,-18.79965,-3.3463089999999998
-9.215514,-18.79965,-3.3463089999999998
-9.215514,-18.79965,-3.3463089999999998
12.557036,-10.249566999999999,6.0080366
12.557036,-10.249566999999999,6.0080366
12.557036,-10.249566999999999,6.0080366
12.557036,-10.249566999999999,6.0080366
11.561282,-18.952842999999998,2.3505547000000004
11.561282,-18.952842999999998,2.3505547000000004
11.561282,-18.952842999999998,2.3505547000000004
11.561282,-18.952842999999998,2.3505547000000004
5.7016506,-19.048588,2.8484317999999997
5.7016506,-19.048588,2.8484317999999997
5.7016506,-19.048588,2.8484317999999997
5.7016506,-19.048588,2.8484317999999997
-13.035764,-19.594337,-3.930357
-13.035764,-19.594337,-3.930357
-13.035764,-19.594337,-3.930357
-13.035764,-19.594337,-3.930357
-18.713478,-16.003878,-3.2984362000000003
-18.713478,-16.003878,-3.2984362000000003
-18.713478,-16.003878,-3.2984362000000003
-18.713478,-16.003878,-3.2984362000000003
-17.411339,9.8953085,-3.9495062999999995
-17.411339,9.8953085,-3.9495062999999995
-17.411339,9.8953085,-3.9495062999999995
-10.938935,17.526234,-8.277207
-10.938935,17.526234,-8.277207
-10.938935,17.526234,-8.277207
-10.938935,17.526234,-8.277207
-10.938935,17.526234,-8.277207
-15.764514000000002,0.9526688,-8.487848
-15.764514000000002,0.9526688,-8.487848
-15.764514000000002,0.9526688,-8.487848
-18.751776,-4.715471,-6.9080452999999995
-18.751776,-4.715471,-6.9080452999999995
-18.751776,-4.715471,-6.9080452999999995
-18.751776,-4.715471,-6.9080452999999995
-19.603912,-18.493263,-9.483603
-19.603912,-18.493263,-9.483603
-19.603912,-18.493263,-9.483603
-19.603912,-18.493263,-9.483603
-19.058163,-19.364548000000003,-8.296356
-19.058163,-19.364548000000003,-8.296356
-19.058163,-19.364548000000003,-8.296356
-19.058163,-19.364548000000003,-8.296356
-2.2165107999999996,-14.194285,4.9069624
-2.2165107999999996,-14.194285,4.9069624
-2.2165107999999996,-14.194285,4.9069624
-2.2165107999999996,-14.194285,4.9069624
11.015532,-14.20386,4.83994
11.015532,-14.20386,4.83994
11.015532,-14.20386,4.83994
11.015532,-14.20386,4.83994
17.516659,-19.594337,6.4197426
17.516659,-19.594337,6.4197426
17.516659,-19.594337,6.4197426
1.9101248,-19.57519,0.081383765
1.9101248,-19.57519,0.081383765
1.9101248,-19.57519,0.081383765
1.9101248,-19.57519,0.081383765
-19.603912,-19.594337,-6.0559096
-19.603912,-19.594337,-6.0559096
-19.603912,-19.594337,-6.0559096
-19.603912,-19.594337,-6.0559096
-19.603912,-15.08472,-3.2697124
-19.603912,-15.08472,-3.2697124
-19.603912,-15.08472,-3.2697124
-19.603912,-15.08472,-3.2697124
-16.05175,8.7750845,-3.3271596
-16.05175,8.7750845,-3.3271596
-16.05175,8.7750845,-3.3271596
-16.05175,8.7750845,-3.3271596
-12.490014,19.603912,-6.8027253
-12.490014,19.603912,-6.8027253
-12.490014,19.603912,-6.8027253
-12.490014,19.603912,-6.8027253
-16.903887,3.8346114,-7.5399666
-16.903887,3.8346114,-7.5399666
-16.903887,3.8346114,-7.5399666
-16.903887,3.8346114,-7.5399666
-19.048588,-11.360216000000001,-1.9675721999999998
-19.048588,-11.360216000000001,-1.9675721999999998
-19.048588,-11.360216000000001,-1.9675721999999998
-19.048588,-11.360216000000001,-1.9675721999999998
-19.603912,-19.460295000000002,0.28244954
-19.603912,-19.460295000000002,0.28244954
-19.603912,-19.460295000000002,0.28244954
-19.603912,-19.460295000000002,0.28244954
-17.210272,-19.594337,-0.6558574
-17.210272,-19.594337,-0.6558574
-17.210272,-19.594337,-0.6558574
-17.210272,-19.594337,-0.6558574
-0.8186249,-18.206026,1.862252
-0.8186249,-18.206026,1.862252
-0.8186249,-18.206026,1.862252
-0.8186249,-18.206026,1.862252
10.019777000000001,-10.536804,4.0261025
10.019777000000001,-10.536804,4.0261025
10.019777000000001,-10.536804,4.0261025
10.019777000000001,-10.536804,4.0261025
4.456958,-13.686834,1.8526775000000002
4.456958,-13.686834,1.8526775000000002
4.456958,-13.686834,1.8526775000000002
4.456958,-13.686834,1.8526775000000002
5.414414,-12.432567,0.78032666
5.414414,-12.432567,0.78032666
5.414414,-12.432567,0.78032666
5.414414,-12.432567,0.78032666
-2.1399142999999996,-19.594337,3.5856729
-2.1399142999999996,-19.594337,3.5856729
-2.1399142999999996,-19.594337,3.5856729
-2.1399142999999996,-19.594337,3.5856729
-18.378368,-18.818798,-0.5792609000000001
-18.378368,-18.818798,-0.5792609000000001
-18.378368,-18.818798,-0.5792609000000001
-18.378368,-18.818798,-0.5792609000000001
-14.213435,-3.5282254,-0.3398969
-14.213435,-3.5282254,-0.3398969
-14.213435,-3.5282254,-0.3398969
-11.570856,8.200611,-4.610151
-11.570856,8.200611,-4.610151
-11.570856,8.200611,-4.610151
-11.570856,8.200611,-4.610151
-11.570856,8.200611,-4.610151
-9.655944,3.6431203,-0.751603
-9.655944,3.6431203,-0.751603
-9.655944,3.6431203,-0.751603
-9.655944,3.6431203,-0.751603
-8.526146,-3.078221,3.7101421
-8.526146,-3.078221,3.7101421
-8.526146,-3.078221,3.7101421
-15.008123000000001,-13.313426000000002,9.98148
-15.008123000000001,-13.313426000000002,9.98148
-15.008123000000001,-13.313426000000002,9.98148
-15.008123000000001,-13.313426000000002,9.98148
-15.008123000000001,-13.313426000000002,9.98148
-12.384694,-13.169807,8.918703
-12.384694,-13.169807,8.918703
-12.384694,-13.169807,8.918703
-12.384694,-13.169807,8.918703
-7.1091112999999995,-8.526146,4.5622783
-7.1091112999999995,-8.526146,4.5622783
-7.1091112999999995,-8.526146,4.5622783
-0.03351096,-5.3378177,1.6707608
-0.03351096,-5.3378177,1.6707608
-0.03351096,-5.3378177,1.6707608
-0.03351096,-5.3378177,1.6707608
-0.03351096,-5.3378177,1.6707608
-1.0388398,-4.9356860000000005,-0.13883112
-1.0388398,-4.9356860000000005,-0.13883112
-1.0388398,-4.9356860000000005,-0.13883112
-1.0388398,-4.9356860000000005,-0.13883112
-10.412334,-8.842107,-2.5899186000000003
-10.412334,-8.842107,-2.5899186000000003
-10.412334,-8.842107,-2.5899186000000003
-10.412334,-8.842107,-2.5899186000000003
-18.560285999999998,-7.300602400000001,-1.2686293
-18.560285999999998,-7.300602400000001,-1.2686293
-18.560285999999998,-7.300602400000001,-1.2686293
-11.570856,-1.6707608,-2.5037475
-11.570856,-1.6707608,-2.5037475
-11.570856,-1.6707608,-2.5037475
-11.570856,-1.6707608,-2.5037475
-11.570856,-1.6707608,-2.5037475
-7.6069884000000005,-0.751603,0.13883112
-7.6069884000000005,-0.751603,0.13883112
-7.6069884000000005,-0.751603,0.13883112
-4.8590894,-0.110107444,0.30159867
-4.8590894,-0.110107444,0.30159867
-4.8590894,-0.110107444,0.30159867
-4.8590894,-0.110107444,0.30159867
-9.483603,0.10053288,-1.1154363
-9.483603,0.10053288,-1.1154363
-9.483603,0.10053288,-1.1154363
-9.483603,0.10053288,-1.1154363
-14.548545,1.0771381000000002,-1.2877783999999999
-14.548545,1.0771381000000002,-1.2877783999999999
-14.548545,1.0771381000000002,-1.2877783999999999
-14.548545,1.0771381000000002,-1.2877783999999999
-7.6069884000000005,-1.2590546999999999,0.56968635
-7.6069884000000005,-1.2590546999999999,0.56968635
-7.6069884000000005,-1.2590546999999999,0.56968635
-7.6069884000000005,-1.2590546999999999,0.56968635
-8.095291,-1.5462915000000002,-0.2920241
-8.095291,-1.5462915000000002,-0.2920241
-8.095291,-1.5462915000000002,-0.2920241
-8.095291,-1.5462915000000002,-0.2920241
-10.029352000000001,-1.2686293,-0.10053288
-10.029352000000001,-1.2686293,-0.10053288
-10.029352000000001,-1.2686293,-0.10053288
-9.6942425,-2.149489,-0.50266445
-9.6942425,-2.149489,-0.50266445
-9.6942425,-2.149489,-0.50266445
-9.6942425,-2.149489,-0.50266445
-8.2676325,-2.2835326,-0.20585304
-8.2676325,-2.2835326,-0.20585304
-8.2676325,-2.2835326,-0.20585304
-8.2676325,-2.2835326,-0.20585304
-9.062322,-2.0441686999999997,-0.56968635
-9.062322,-2.0441686999999997,-0.56968635
-9.062322,-2.0441686999999997,-0.56968635
-9.062322,-2.0441686999999997,-0.56968635
-9.062322,-2.0441686999999997,-0.56968635
-9.062322,-2.0441686999999997,-0.56968635
-9.062322,-2.0441686999999997,-0.56968635
-8.947427000000001,-2.168638,-0.8856468000000001
-8.947427000000001,-2.168638,-0.8856468000000001
-8.947427000000001,-2.168638,-0.8856468000000001
-8.947427000000001,-2.168638,-0.8856468000000001
-9.148492999999998,-2.1590632999999997,-1.0484143
-9.148492999999998,-2.1590632999999997,-1.0484143
-9.148492999999998,-2.1590632999999997,-1.0484143
-9.148492999999998,-2.1590632999999997,-1.0484143
-9.617646,-1.9962958,-0.9526688
-9.617646,-1.9962958,-0.9526688
-9.617646,-1.9962958,-0.9526688
-9.617646,-1.9962958,-0.9526688
-9.119769,-2.0537431,-1.0579889
-9.119769,-2.0537431,-1.0579889
-9.119769,-2.0537431,-1.0579889
-9.119769,-2.0537431,-1.0579889
-9.138917999999999,-1.9388485,-1.0101161
-9.138917999999999,-1.9388485,-1.0101161
-9.138917999999999,-1.9388485,-1.0101161
-9.138917999999999,-1.9388485,-1.0101161
-9.043172,-1.9579976000000003,-0.98139244
-9.043172,-1.9579976000000003,-0.98139244
-9.043172,-1.9579976000000003,-0.98139244
-9.138917999999999,-1.9579976000000003,-0.9718179
-9.138917999999999,-1.9579976000000003,-0.9718179
-9.138917999999999,-1.9579976000000003,-0.9718179
-9.138917999999999,-1.9579976000000003,-0.9718179
-9.138917999999999,-1.9579976000000003,-0.9718179
-9.215514,-1.9292740000000002,-0.8664976999999999
-9.215514,-1.9292740000000002,-0.8664976999999999
-9.215514,-1.9292740000000002,-0.8664976999999999
-9.2825365,-1.948423,-0.8281995000000001
-9.2825365,-1.948423,-0.8281995000000001
-9.2825365,-1.948423,-0.8281995000000001
-9.2825365,-1.948423,-0.8281995000000001
-8.861256,-2.1111906000000005,-0.76117754
-8.861256,-2.1111906000000005,-0.76117754
-8.861256,-2.1111906000000005,-0.76117754
-8.861256,-2.1111906000000005,-0.76117754
-8.832532,-1.9867213,-0.78032666
-8.832532,-1.9867213,-0.78032666
-8.832532,-1.9867213,-0.78032666
-8.832532,-1.9867213,-0.78032666
-9.062322,-2.1207652,-0.9718179
-9.062322,-2.1207652,-0.9718179
-9.062322,-2.1207652,-0.9718179
-9.062322,-2.1207652,-0.9718179
-9.167641999999999,-2.0441686999999997,-1.0292653
-9.167641999999999,-2.0441686999999997,-1.0292653
-9.167641999999999,-2.0441686999999997,-1.0292653
-9.167641999999999,-2.0441686999999997,-1.0292653
-9.2825365,-2.1399142999999996,-1.0101161
-9.2825365,-2.1399142999999996,-1.0101161
-9.2825365,-2.1399142999999996,-1.0101161
-9.2825365,-2.1399142999999996,-1.0101161
-9.129342999999999,-2.1590632999999997,-1.0675635
-9.129342999999999,-2.1590632999999997,-1.0675635
-9.129342999999999,-2.1590632999999997,-1.0675635
-9.349558,-2.2260852000000004,-1.2207563999999997
-9.349558,-2.2260852000000004,-1.2207563999999997
-9.349558,-2.2260852000000004,-1.2207563999999997
-9.349558,-2.2260852000000004,-1.2207563999999997
-9.54105,-2.101616,-1.2111819
-9.54105,-2.101616,-1.2111819
-9.54105,-2.101616,-1.2111819
-9.54105,-2.101616,-1.2111819
-9.2825365,-2.0920415,-1.1920328000000002
-9.2825365,-2.0920415,-1.1920328000000002
-9.2825365,-2.0920415,-1.1920328000000002
-9.2825365,-2.0920415,-1.1920328000000002
-9.033598,-2.1303396,-1.0771381000000002
-9.033598,-2.1303396,-1.0771381000000002
-9.033598,-2.1303396,-1.0771381000000002
-9.033598,-2.1303396,-1.0771381000000002
-9.378282,-2.1207652,-1.1920328000000002
-9.378282,-2.1207652,-1.1920328000000002
-9.378282,-2.1207652,-1.1920328000000002
-9.378282,-2.1207652,-1.1920328000000002
-9.253813000000001,-2.1399142999999996,-1.1633091
-9.253813000000001,-2.1399142999999996,-1.1633091
-9.253813000000001,-2.1399142999999996,-1.1633091
-9.253813000000001,-2.1399142999999996,-1.1633091
-9.253813000000001,-2.1399142999999996,-1.1633091
-9.253813000000001,-2.1399142999999996,-1.1633091
-9.253813000000001,-2.1399142999999996,-1.1633091
-9.2825365,-2.2165107999999996,-1.0579889
-9.2825365,-2.2165107999999996,-1.0579889
-9.2825365,-2.2165107999999996,-1.0579889
-9.2825365,-2.2165107999999996,-1.0579889
-9.292110000000001,-2.1782124,-0.99096704
-9.292110000000001,-2.1782124,-0.99096704
-9.292110000000001,-2.1782124,-0.99096704
-9.292110000000001,-2.1782124,-0.99096704
-9.110194,-2.1303396,-0.9430941999999999
-9.110194,-2.1303396,-0.9430941999999999
-9.110194,-2.1303396,-0.9430941999999999
-9.148492999999998,-2.015445,-0.98139244
-9.148492999999998,-2.015445,-0.98139244
-9.148492999999998,-2.015445,-0.98139244
-9.148492999999998,-2.015445,-0.98139244
-9.148492999999998,-2.015445,-0.98139244
-9.062322,-1.8718264999999998,-0.99096704
-9.062322,-1.8718264999999998,-0.99096704
-9.062322,-1.8718264999999998,-0.99096704
-9.272962,-1.8335283,-0.98139244
-9.272962,-1.8335283,-0.98139244
-9.272962,-1.8335283,-0.98139244
-9.272962,-1.8335283,-0.98139244
-9.234664,-1.8431028999999999,-1.0675635
-9.234664,-1.8431028999999999,-1.0675635
-9.234664,-1.8431028999999999,-1.0675635
-9.234664,-1.8431028999999999,-1.0675635
-9.158066999999999,-1.8431028999999999,-0.99096704
-9.158066999999999,-1.8431028999999999,-0.99096704
-9.158066999999999,-1.8431028999999999,-0.99096704
-9.158066999999999,-1.8431028999999999,-0.99096704
-9.158066999999999,-1.9101248,-1.0292653
-9.158066999999999,-1.9101248,-1.0292653
-9.158066999999999,-1.9101248,-1.0292653
-9.158066999999999,-1.9101248,-1.0292653
-8.947427000000001,-1.8048046999999998,-0.98139244
-8.947427000000001,-1.8048046999999998,-0.98139244
-8.947427000000001,-1.8048046999999998,-0.98139244
-8.947427000000001,-1.8048046999999998,-0.98139244
-8.717637,-1.6803354,-0.93351966
-8.717637,-1.6803354,-0.93351966
-8.717637,-1.6803354,-0.93351966
-8.822957,-1.709059,-1.2590546999999999
-8.822957,-1.709059,-1.2590546999999999
-8.822957,-1.709059,-1.2590546999999999
-8.822957,-1.709059,-1.2590546999999999
-9.454879,-1.6899098999999997,-1.2686293
-9.454879,-1.6899098999999997,-1.2686293
-9.454879,-1.6899098999999997,-1.2686293
-9.454879,-1.6899098999999997,-1.2686293
-9.483603,-1.7856555,-1.3165021000000001
-9.483603,-1.7856555,-1.3165021000000001
-9.483603,-1.7856555,-1.3165021000000001
-9.483603,-1.7856555,-1.3165021000000001
-9.292110000000001,-1.7665064,-1.14416
-9.292110000000001,-1.7665064,-1.14416
-9.292110000000001,-1.7665064,-1.14416
-9.292110000000001,-1.7665064,-1.14416
-9.301685,-1.8143792,-1.0196906
-9.301685,-1.8143792,-1.0196906
-9.301685,-1.8143792,-1.0196906
-9.301685,-1.8143792,-1.0196906
-9.368708,-1.9196993000000002,-1.0388398
-9.368708,-1.9196993000000002,-1.0388398
-9.368708,-1.9196993000000002,-1.0388398
-9.368708,-1.9196993000000002,-1.0388398
-9.330409,-1.9005502,-0.9718179
-9.330409,-1.9005502,-0.9718179
-9.330409,-1.9005502,-0.9718179
-9.349558,-1.8526775000000002,-1.0292653
-9.349558,-1.8526775000000002,-1.0292653
-9.349558,-1.8526775000000002,-1.0292653
-9.349558,-1.8526775000000002,-1.0292653
-9.349558,-1.8526775000000002,-1.0292653
-9.292110000000001,-1.7856555,-1.0388398
-9.292110000000001,-1.7856555,-1.0388398
-9.292110000000001,-1.7856555,-1.0388398
-9.3878565,-1.6994845,-1.1345854
-9.3878565,-1.6994845,-1.1345854
-9.3878565,-1.6994845,-1.1345854
-9.3878565,-1.6994845,-1.1345854
-9.234664,-1.776081,-1.0579889
-9.234664,-1.776081,-1.0579889
-9.234664,-1.776081,-1.0579889
-9.234664,-1.776081,-1.0579889
-9.330409,-1.8048046999999998,-1.1250108
-9.330409,-1.8048046999999998,-1.1250108
-9.330409,-1.8048046999999998,-1.1250108
-9.330409,-1.8048046999999998,-1.1250108
-9.320834,-1.776081,-1.0962871
-9.320834,-1.776081,-1.0962871
-9.320834,-1.776081,-1.0962871
-9.320834,-1.776081,-1.0962871
-9.0814705,-1.8431028999999999,-1.1058618
-9.0814705,-1.8431028999999999,-1.1058618
-9.0814705,-1.8431028999999999,-1.1058618
-9.0814705,-1.8431028999999999,-1.1058618
-9.004874000000001,-1.776081,-1.2207563999999997
-9.004874000000001,-1.776081,-1.2207563999999997
-9.004874000000001,-1.776081,-1.2207563999999997
-9.004874000000001,-1.776081,-1.2207563999999997
-9.138917999999999,-1.7665064,-1.2207563999999997
-9.138917999999999,-1.7665064,-1.2207563999999997
-9.138917999999999,-1.7665064,-1.2207563999999997
-9.225089,-1.7377827000000001,-1.2686293
-9.225089,-1.7377827000000001,-1.2686293
-9.225089,-1.7377827000000001,-1.2686293
-9.225089,-1.7377827000000001,-1.2686293
-9.20594,-1.8431028999999999,-1.0962871
-9.20594,-1.8431028999999999,-1.0962871
-9.20594,-1.8431028999999999,-1.0962871
-9.20594,-1.8431028999999999,-1.0962871
-9.129342999999999,-1.8718264999999998,-1.0962871
-9.129342999999999,-1.8718264999999998,-1.0962871
-9.129342999999999,-1.8718264999999998,-1.0962871
-9.129342999999999,-1.8718264999999998,-1.0962871
-8.870830999999999,-1.7952299999999999,-0.99096704
-8.870830999999999,-1.7952299999999999,-0.99096704
-8.870830999999999,-1.7952299999999999,-0.99096704
-8.870830999999999,-1.7952299999999999,-0.99096704
-9.052747,-1.7856555,-1.1345854
-9.052747,-1.7856555,-1.1345854
-9.052747,-1.7856555,-1.1345854
-9.052747,-1.7856555,-1.1345854
-9.062322,-1.776081,-1.2686293
-9.062322,-1.776081,-1.2686293
-9.062322,-1.776081,-1.2686293
-9.062322,-1.776081,-1.2686293
-9.41658,-1.8239537000000001,-1.3452256999999999
-9.41658,-1.8239537000000001,-1.3452256999999999
-9.41658,-1.8239537000000001,-1.3452256999999999
-9.330409,-1.9388485,-1.2494801000000002
-9.330409,-1.9388485,-1.2494801000000002
-9.330409,-1.9388485,-1.2494801000000002
-9.330409,-1.9388485,-1.2494801000000002
-9.225089,-1.948423,-1.1633091
-9.225089,-1.948423,-1.1633091
-9.225089,-1.948423,-1.1633091
-9.225089,-1.948423,-1.1633091
-9.292110000000001,-1.9579976000000003,-1.2111819
-9.292110000000001,-1.9579976000000003,-1.2111819
-9.292110000000001,-1.9579976000000003,-1.2111819
-9.292110000000001,-1.9579976000000003,-1.2111819
-9.215514,-1.9196993000000002,-1.1345854
-9.215514,-1.9196993000000002,-1.1345854
-9.215514,-1.9196993000000002,-1.1345854
-9.215514,-1.9196993000000002,-1.1345854
-9.234664,-1.862252,-1.1633091
-9.234664,-1.862252,-1.1633091
-9.234664,-1.862252,-1.1633091
-9.234664,-1.862252,-1.1633091
-9.359133,-1.8909756999999998,-1.2016073
-9.359133,-1.8909756999999998,-1.2016073
-9.359133,-1.8909756999999998,-1.2016073
-9.225089,-1.8909756999999998,-1.2782038
-9.225089,-1.8909756999999998,-1.2782038
-9.225089,-1.8909756999999998,-1.2782038
-9.225089,-1.8909756999999998,-1.2782038
-9.225089,-1.8909756999999998,-1.2782038
-9.407005,-1.7952299999999999,-1.3452256999999999
-9.407005,-1.7952299999999999,-1.3452256999999999
-9.407005,-1.7952299999999999,-1.3452256999999999
-9.148492999999998,-1.9101248,-1.2303311000000001
-9.148492999999998,-1.9101248,-1.2303311000000001
-9.148492999999998,-1.9101248,-1.2303311000000001
-9.148492999999998,-1.9101248,-1.2303311000000001
-9.196365,-1.9005502,-1.2782038
-9.196365,-1.9005502,-1.2782038
-9.196365,-1.9005502,-1.2782038
-9.196365,-1.9005502,-1.2782038
-9.41658,-1.8431028999999999,-1.2399056
-9.41658,-1.8431028999999999,-1.2399056
-9.41658,-1.8431028999999999,-1.2399056
-9.41658,-1.8431028999999999,-1.2399056
-9.119769,-1.8431028999999999,-1.2782038
-9.119769,-1.8431028999999999,-1.2782038
-9.119769,-1.8431028999999999,-1.2782038
-9.119769,-1.8431028999999999,-1.2782038
-9.349558,-1.8239537000000001,-1.383524
-9.349558,-1.8239537000000001,-1.383524
-9.349558,-1.8239537000000001,-1.383524
-9.349558,-1.8239537000000001,-1.383524
-9.167641999999999,-1.7952299999999999,-1.3069274
-9.167641999999999,-1.7952299999999999,-1.3069274
-9.167641999999999,-1.7952299999999999,-1.3069274
-9.167641999999999,-1.7952299999999999,-1.3069274
-9.253813000000001,-1.8143792,-1.4122477
-9.253813000000001,-1.8143792,-1.4122477
-9.253813000000001,-1.8143792,-1.4122477
-9.129342999999999,-1.8048046999999998,-1.2590546999999999
-9.129342999999999,-1.8048046999999998,-1.2590546999999999
-9.129342999999999,-1.8048046999999998,-1.2590546999999999
-9.129342999999999,-1.8048046999999998,-1.2590546999999999
-9.215514,-1.862252,-1.2399056
-9.215514,-1.862252,-1.2399056
-9.215514,-1.862252,-1.2399056
-9.215514,-1.862252,-1.2399056
-9.043172,-1.9388485,-1.1154363
-9.043172,-1.9388485,-1.1154363
-9.043172,-1.9388485,-1.1154363
-9.043172,-1.9388485,-1.1154363
-9.20594,-1.9196993000000002,-1.0867126
-9.20594,-1.9196993000000002,-1.0867126
-9.20594,-1.9196993000000002,-1.0867126
-9.20594,-1.9196993000000002,-1.0867126
-9.138917999999999,-1.9388485,-1.0771381000000002
-9.138917999999999,-1.9388485,-1.0771381000000002
-9.138917999999999,-1.9388485,-1.0771381000000002
-9.138917999999999,-1.9388485,-1.0771381000000002
-8.784659,-1.8431028999999999,-0.99096704
-8.784659,-1.8431028999999999,-0.99096704
-8.784659,-1.8431028999999999,-0.99096704
-8.784659,-1.8431028999999999,-0.99096704
-8.937852000000001,-1.6994845,-1.2303311000000001
-8.937852000000001,-1.6994845,-1.2303311000000001
-8.937852000000001,-1.6994845,-1.2303311000000001
-8.937852000000001,-1.6994845,-1.2303311000000001
-8.889978999999999,-1.6516117,-1.2303311000000001
-8.889978999999999,-1.6516117,-1.2303311000000001
-8.889978999999999,-1.6516117,-1.2303311000000001
-9.54105,-1.7186337,-1.5079931999999998
-9.54105,-1.7186337,-1.5079931999999998
-9.54105,-1.7186337,-1.5079931999999998
-9.54105,-1.7186337,-1.5079931999999998
-9.397431,-1.7473572,-1.2399056
-9.397431,-1.7473572,-1.2399056
-9.397431,-1.7473572,-1.2399056
-9.397431,-1.7473572,-1.2399056
-9.359133,-1.7952299999999999,-1.1920328000000002
-9.359133,-1.7952299999999999,-1.1920328000000002
-9.359133,-1.7952299999999999,-1.1920328000000002
-9.359133,-1.7952299999999999,-1.1920328000000002
-9.272962,-1.9005502,-1.0579889
-9.272962,-1.9005502,-1.0579889
-9.272962,-1.9005502,-1.0579889
-9.272962,-1.9005502,-1.0579889
-9.320834,-1.862252,-1.1728836
-9.320834,-1.862252,-1.1728836
-9.320834,-1.862252,-1.1728836
-9.225089,-1.8143792,-1.2111819
-9.225089,-1.8143792,-1.2111819
-9.225089,-1.8143792,-1.2111819
-9.225089,-1.8143792,-1.2111819
-9.225089,-1.8143792,-1.2111819
-9.359133,-1.7665064,-1.2686293
-9.359133,-1.7665064,-1.2686293
-9.359133,-1.7665064,-1.2686293
-9.196365,-1.7186337,-1.2877783999999999
-9.196365,-1.7186337,-1.2877783999999999
-9.196365,-1.7186337,-1.2877783999999999
-9.196365,-1.7186337,-1.2877783999999999
-9.20594,-1.6803354,-1.2303311000000001
-9.20594,-1.6803354,-1.2303311000000001
-9.20594,-1.6803354,-1.2303311000000001
-9.20594,-1.6803354,-1.2303311000000001
-9.292110000000001,-1.6611862000000002,-1.2782038
-9.292110000000001,-1.6611862000000002,-1.2782038
-9.292110000000001,-1.6611862000000002,-1.2782038
-9.292110000000001,-1.6611862000000002,-1.2782038
-9.110194,-1.7186337,-1.2303311000000001
-9.110194,-1.7186337,-1.2303311000000001
-9.110194,-1.7186337,-1.2303311000000001
-9.110194,-1.7186337,-1.2303311000000001
-9.253813000000001,-1.7856555,-1.2207563999999997
-9.253813000000001,-1.7856555,-1.2207563999999997
-9.253813000000001,-1.7856555,-1.2207563999999997
-9.253813000000001,-1.7856555,-1.2207563999999997
-9.397431,-1.8431028999999999,-1.2494801000000002
-9.397431,-1.8431028999999999,-1.2494801000000002
-9.397431,-1.8431028999999999,-1.2494801000000002
-9.397431,-1.8431028999999999,-1.2494801000000002
-9.301685,-1.9675721999999998,-1.1728836
-9.301685,-1.9675721999999998,-1.1728836
-9.301685,-1.9675721999999998,-1.1728836
-9.320834,-2.034594,-1.2111819
-9.320834,-2.034594,-1.2111819
-9.320834,-2.034594,-1.2111819
-9.320834,-2.034594,-1.2111819
-9.052747,-1.9962958,-1.1345854
-9.052747,-1.9962958,-1.1345854
-9.052747,-1.9962958,-1.1345854
-9.052747,-1.9962958,-1.1345854
-9.167641999999999,-1.9196993000000002,-1.1920328000000002
-9.167641999999999,-1.9196993000000002,-1.1920328000000002
-9.167641999999999,-1.9196993000000002,-1.1920328000000002
-9.167641999999999,-1.9196993000000002,-1.1920328000000002
-9.244238000000001,-1.9675721999999998,-1.1633091
-9.244238000000001,-1.9675721999999998,-1.1633091
-9.244238000000001,-1.9675721999999998,-1.1633091
-9.244238000000001,-1.9675721999999998,-1.1633091
-9.043172,-1.9196993000000002,-1.1537346000000002
-9.043172,-1.9196993000000002,-1.1537346000000002
-9.043172,-1.9196993000000002,-1.1537346000000002
-9.043172,-1.9196993000000002,-1.1537346000000002
-9.158066999999999,-1.9005502,-1.1537346000000002
-9.158066999999999,-1.9005502,-1.1537346000000002
-9.158066999999999,-1.9005502,-1.1537346000000002
-9.158066999999999,-1.9005502,-1.1537346000000002
-8.698488000000001,-1.9388485,-1.14416
-8.698488000000001,-1.9388485,-1.14416
-8.698488000000001,-1.9388485,-1.14416
-8.698488000000001,-1.9388485,-1.14416
-8.851681,-1.8048046999999998,-1.3930986
-8.851681,-1.8048046999999998,-1.3930986
-8.851681,-1.8048046999999998,-1.3930986
-9.148492999999998,-1.9292740000000002,-1.4026731000000001
-9.148492999999998,-1.9292740000000002,-1.4026731000000001
-9.148492999999998,-1.9292740000000002,-1.4026731000000001
-9.148492999999998,-1.9292740000000002,-1.4026731000000001
-9.474028,-2.0537431,-1.4313968000000001
-9.474028,-2.0537431,-1.4313968000000001
-9.474028,-2.0537431,-1.4313968000000001
-9.474028,-2.0537431,-1.4313968000000001
-9.301685,-2.2452345,-1.1633091
-9.301685,-2.2452345,-1.1633091
-9.301685,-2.2452345,-1.1633091
-9.301685,-2.2452345,-1.1633091
-9.148492999999998,-2.321831,-1.0101161
-9.148492999999998,-2.321831,-1.0101161
-9.148492999999998,-2.321831,-1.0101161
-9.148492999999998,-2.321831,-1.0101161
-9.234664,-2.513322,-1.0388398
-9.234664,-2.513322,-1.0388398
-9.234664,-2.513322,-1.0388398
-9.234664,-2.513322,-1.0388398
-9.225089,-3.193116,-0.8952214
-9.225089,-3.193116,-0.8952214
-9.225089,-3.193116,-0.8952214
-9.225089,-3.193116,-0.8952214
-9.569773,-4.916537,-0.49308985
-9.569773,-4.916537,-0.49308985
-9.569773,-4.916537,-0.49308985
-10.29744,-7.721883,0.03351096
-10.29744,-7.721883,0.03351096
-10.29744,-7.721883,0.03351096
-10.29744,-7.721883,0.03351096
-10.29744,-7.721883,0.03351096
-10.958084,-6.5537868,1.4888442
-10.958084,-6.5537868,1.4888442
-10.958084,-6.5537868,1.4888442
-10.536804,-6.544212,2.8771553
-10.536804,-6.544212,2.8771553
-10.536804,-6.544212,2.8771553
-10.536804,-6.544212,2.8771553
-9.177217,-5.289944599999999,4.284616000000001
-9.177217,-5.289944599999999,4.284616000000001
-9.177217,-5.289944599999999,4.284616000000001
-9.177217,-5.289944599999999,4.284616000000001
-7.070812700000001,-2.6952388,5.4718614
-7.070812700000001,-2.6952388,5.4718614
-7.070812700000001,-2.6952388,5.4718614
-7.070812700000001,-2.6952388,5.4718614
-4.926111,-0.5792609000000001,6.2378263
-4.926111,-0.5792609000000001,6.2378263
-4.926111,-0.5792609000000001,6.2378263
-4.926111,-0.5792609000000001,6.2378263
-3.2218397000000003,0.6271336999999999,6.5346375
-3.2218397000000003,0.6271336999999999,6.5346375
-3.2218397000000003,0.6271336999999999,6.5346375
-3.6239712,2.015445,8.909127999999999
-3.5090763999999997,2.5037475,7.0133657000000005
-3.5090763999999997,2.5037475,7.0133657000000005
-3.5090763999999997,2.5037475,7.0133657000000005
-3.5090763999999997,2.5037475,7.0133657000000005
-4.246317400000001,0.6558574,4.150572
-4.246317400000001,0.6558574,4.150572
-4.246317400000001,0.6558574,4.150572
-4.246317400000001,0.6558574,4.150572
-8.909127999999999,-4.389936,3.059072
-8.909127999999999,-4.389936,3.059072
-8.909127999999999,-4.389936,3.059072
-8.909127999999999,-4.389936,3.059072
-12.288948,-3.5282254,1.5654407
-12.288948,-3.5282254,1.5654407
-12.288948,-3.5282254,1.5654407
-12.288948,-3.5282254,1.5654407
-13.897473999999999,-4.782493,0.7994758000000001
-13.897473999999999,-4.782493,0.7994758000000001
-13.897473999999999,-4.782493,0.7994758000000001
-11.140001,-5.021857,-0.062234644000000006
-11.140001,-5.021857,-0.062234644000000006
-11.140001,-5.021857,-0.062234644000000006
-11.140001,-5.021857,-0.062234644000000006
-10.421909,-4.294190400000001,0.00478728
-10.421909,-4.294190400000001,0.00478728
-10.421909,-4.294190400000001,0.00478728
-10.421909,-4.294190400000001,0.00478728
-9.914457,-3.3463089999999998,-0.043085523
-9.914457,-3.3463089999999998,-0.043085523
-9.914457,-3.3463089999999998,-0.043085523
-9.914457,-3.3463089999999998,-0.043085523
-9.129342999999999,-3.5569491,-0.359046
-9.129342999999999,-3.5569491,-0.359046
-9.129342999999999,-3.5569491,-0.359046
-9.129342999999999,-3.5569491,-0.359046
-8.918703,-3.7292912000000005,-0.78032666
-8.918703,-3.7292912000000005,-0.78032666
-8.918703,-3.7292912000000005,-0.78032666
-8.918703,-3.7292912000000005,-0.78032666
-9.225089,-3.5090763999999997,-0.77075213
-9.225089,-3.5090763999999997,-0.77075213
-9.225089,-3.5090763999999997,-0.77075213
-9.225089,-3.5090763999999997,-0.77075213
-9.253813000000001,-2.9250283,-0.7324539000000001
-9.253813000000001,-2.9250283,-0.7324539000000001
-9.253813000000001,-2.9250283,-0.7324539000000001
-9.253813000000001,-2.9250283,-0.7324539000000001
-8.995299000000001,-2.561195,-0.5313880999999999
-8.995299000000001,-2.561195,-0.5313880999999999
-8.995299000000001,-2.561195,-0.5313880999999999
-9.435728999999998,-1.7665064,-0.359046
-9.435728999999998,-1.7665064,-0.359046
-9.435728999999998,-1.7665064,-0.359046
-9.435728999999998,-1.7665064,-0.359046
-9.407005,-1.6420371999999999,-0.42606795
-9.407005,-1.6420371999999999,-0.42606795
-9.407005,-1.6420371999999999,-0.42606795
-9.407005,-1.6420371999999999,-0.42606795
-9.234664,-1.8909756999999998,-0.7228793
-9.234664,-1.8909756999999998,-0.7228793
-9.234664,-1.8909756999999998,-0.7228793
-9.234664,-1.8909756999999998,-0.7228793
-9.339984,-1.6803354,-0.6845810999999999
-9.339984,-1.6803354,-0.6845810999999999
-9.339984,-1.6803354,-0.6845810999999999
-9.339984,-1.6803354,-0.6845810999999999
-9.20594,-1.6803354,-0.665432
-9.20594,-1.6803354,-0.665432
-9.20594,-1.6803354,-0.665432
-9.20594,-1.6803354,-0.665432
-9.215514,-1.6994845,-0.61755913
-9.215514,-1.6994845,-0.61755913
-9.215514,-1.6994845,-0.61755913
-9.215514,-1.6994845,-0.61755913
-9.359133,-1.8909756999999998,-0.6750065
-9.359133,-1.8909756999999998,-0.6750065
-9.359133,-1.8909756999999998,-0.6750065
-9.215514,-2.0824668,-0.49308985
-9.215514,-2.0824668,-0.49308985
-9.215514,-2.0824668,-0.49308985
-9.215514,-2.0824668,-0.49308985
-9.215514,-2.0824668,-0.49308985
-9.0814705,-2.1399142999999996,-0.5218136
-9.0814705,-2.1399142999999996,-0.5218136
-9.0814705,-2.1399142999999996,-0.5218136
-9.215514,-2.2643836,-0.5792609000000001
-9.215514,-2.2643836,-0.5792609000000001
-9.215514,-2.2643836,-0.5792609000000001
-9.215514,-2.2643836,-0.5792609000000001
-9.215514,-2.408002,-0.6079846
-9.215514,-2.408002,-0.6079846
-9.215514,-2.408002,-0.6079846
-9.215514,-2.408002,-0.6079846
-9.033598,-2.3792782000000003,-0.5505372
-9.033598,-2.3792782000000003,-0.5505372
-9.033598,-2.3792782000000003,-0.5505372
-9.033598,-2.3792782000000003,-0.5505372
-9.052747,-2.3314054,-0.54096264
-9.052747,-2.3314054,-0.54096264
-9.052747,-2.3314054,-0.54096264
-9.052747,-2.3314054,-0.54096264
-8.928278,-2.3888528,-0.4164934
-8.928278,-2.3888528,-0.4164934
-8.928278,-2.3888528,-0.4164934
-8.928278,-2.3888528,-0.4164934
-9.024023,-2.3697037999999995,-0.47394073
-9.024023,-2.3697037999999995,-0.47394073
-9.024023,-2.3697037999999995,-0.47394073
-9.014449,-2.4175766,-0.5313880999999999
-9.014449,-2.4175766,-0.5313880999999999
-9.014449,-2.4175766,-0.5313880999999999
-9.014449,-2.4175766,-0.5313880999999999
-9.0814705,-2.4367256,-0.54096264
-9.0814705,-2.4367256,-0.54096264
-9.0814705,-2.4367256,-0.54096264
-9.0814705,-2.4367256,-0.54096264
-9.148492999999998,-2.5228968,-0.512239
-9.148492999999998,-2.5228968,-0.512239
-9.148492999999998,-2.5228968,-0.512239
-9.148492999999998,-2.5228968,-0.512239
-9.225089,-2.5324712000000003,-0.5218136
-9.225089,-2.5324712000000003,-0.5218136
-9.225089,-2.5324712000000003,-0.5218136
-9.225089,-2.5324712000000003,-0.5218136
-9.110194,-2.5324712000000003,-0.40691882
-9.110194,-2.5324712000000003,-0.40691882
-9.110194,-2.5324712000000003,-0.40691882
-9.110194,-2.5324712000000003,-0.40691882
-9.071896,-2.5324712000000003,-0.40691882
-9.071896,-2.5324712000000003,-0.40691882
-9.071896,-2.5324712000000003,-0.40691882
-9.071896,-2.5324712000000003,-0.40691882
-9.138917999999999,-2.5324712000000003,-0.5313880999999999
-9.138917999999999,-2.5324712000000003,-0.5313880999999999
-9.138917999999999,-2.5324712000000003,-0.5313880999999999
-9.138917999999999,-2.4845984,-0.5313880999999999
-9.138917999999999,-2.4845984,-0.5313880999999999
-9.138917999999999,-2.4845984,-0.5313880999999999
-9.138917999999999,-2.4845984,-0.5313880999999999
-9.100619,-2.4463003,-0.56011176
-9.100619,-2.4463003,-0.56011176
-9.100619,-2.4463003,-0.56011176
-9.100619,-2.4463003,-0.56011176
-9.033598,-2.4367256,-0.5505372
-9.033598,-2.4367256,-0.5505372
-9.033598,-2.4367256,-0.5505372
-9.033598,-2.4367256,-0.5505372
-9.0814705,-2.513322,-0.56968635
-9.0814705,-2.513322,-0.56968635
-9.0814705,-2.513322,-0.56968635
-9.0814705,-2.513322,-0.56968635
-9.100619,-2.5037475,-0.50266445
-9.100619,-2.5037475,-0.50266445
-9.100619,-2.5037475,-0.50266445
-9.100619,-2.5037475,-0.50266445
-9.100619,-2.5420458,-0.56968635
-9.100619,-2.5420458,-0.56968635
-9.100619,-2.5420458,-0.56968635
-9.129342999999999,-2.494173,-0.5313880999999999
-9.129342999999999,-2.494173,-0.5313880999999999
-9.129342999999999,-2.494173,-0.5313880999999999
-9.129342999999999,-2.494173,-0.5313880999999999
-9.110194,-2.4750240000000003,-0.47394073
-9.110194,-2.4750240000000003,-0.47394073
-9.110194,-2.4750240000000003,-0.47394073
-9.110194,-2.4750240000000003,-0.47394073
-9.071896,-2.5037475,-0.45479164
-9.071896,-2.5037475,-0.45479164
-9.071896,-2.5037475,-0.45479164
-9.071896,-2.5037475,-0.45479164
-9.062322,-2.494173,-0.48351530000000004
-9.062322,-2.494173,-0.48351530000000004
-9.062322,-2.494173,-0.48351530000000004
-9.052747,-2.513322,-0.45479164
-9.052747,-2.513322,-0.45479164
-9.052747,-2.513322,-0.45479164
-9.052747,-2.513322,-0.45479164
-9.052747,-2.513322,-0.45479164
-9.0814705,-2.561195,-0.54096264
-9.0814705,-2.561195,-0.54096264
-9.0814705,-2.561195,-0.54096264
-9.033598,-2.4750240000000003,-0.512239
-9.033598,-2.4750240000000003,-0.512239
-9.033598,-2.4750240000000003,-0.512239
-9.033598,-2.4750240000000003,-0.512239
-8.985725,-2.4463003,-0.56011176
-8.985725,-2.4463003,-0.56011176
-8.985725,-2.4463003,-0.56011176
-8.985725,-2.4463003,-0.56011176
-9.062322,-2.4558747000000003,-0.6271336999999999
-9.062322,-2.4558747000000003,-0.6271336999999999
-9.062322,-2.4558747000000003,-0.6271336999999999
-9.062322,-2.4558747000000003,-0.6271336999999999
-9.024023,-2.4654493,-0.6845810999999999
-9.024023,-2.4654493,-0.6845810999999999
-9.024023,-2.4654493,-0.6845810999999999
-9.024023,-2.4654493,-0.6845810999999999
-9.024023,-2.4654493,-0.56011176
-9.024023,-2.4654493,-0.56011176
-9.024023,-2.4654493,-0.56011176
-9.024023,-2.4654493,-0.56011176
-9.004874000000001,-2.5803439999999997,-0.54096264
-9.004874000000001,-2.5803439999999997,-0.54096264
-9.004874000000001,-2.5803439999999997,-0.54096264
-9.004874000000001,-2.5803439999999997,-0.54096264
-9.18679,-2.6856642,-0.5505372
-9.18679,-2.6856642,-0.5505372
-9.18679,-2.6856642,-0.5505372
-9.18679,-2.647366,-0.512239
-9.18679,-2.647366,-0.512239
-9.18679,-2.647366,-0.512239
-9.18679,-2.647366,-0.512239
-9.18679,-2.647366,-0.512239
-9.138917999999999,-2.5228968,-0.42606795
-9.138917999999999,-2.5228968,-0.42606795
-9.138917999999999,-2.5228968,-0.42606795
-9.129342999999999,-2.5707695,-0.49308985
-9.129342999999999,-2.5707695,-0.49308985
-9.129342999999999,-2.5707695,-0.49308985
-9.129342999999999,-2.5707695,-0.49308985
-9.158066999999999,-2.4845984,-0.49308985
-9.158066999999999,-2.4845984,-0.49308985
-9.158066999999999,-2.4845984,-0.49308985
-9.158066999999999,-2.4845984,-0.49308985
-9.110194,-2.4463003,-0.5218136
-9.110194,-2.4463003,-0.5218136
-9.110194,-2.4463003,-0.5218136
-9.110194,-2.4463003,-0.5218136
-9.110194,-2.4750240000000003,-0.59841
-9.110194,-2.4750240000000003,-0.59841
-9.110194,-2.4750240000000003,-0.59841
-9.110194,-2.4750240000000003,-0.59841
-9.138917999999999,-2.494173,-0.5792609000000001
-9.138917999999999,-2.494173,-0.5792609000000001
-9.138917999999999,-2.494173,-0.5792609000000001
-9.138917999999999,-2.494173,-0.5792609000000001
-9.129342999999999,-2.5420458,-0.49308985
-9.129342999999999,-2.5420458,-0.49308985
-9.129342999999999,-2.5420458,-0.49308985
-9.071896,-2.5420458,-0.48351530000000004
-9.071896,-2.5420458,-0.48351530000000004
-9.071896,-2.5420458,-0.48351530000000004
-9.071896,-2.5420458,-0.48351530000000004
-9.119769,-2.494173,-0.49308985
-9.119769,-2.494173,-0.49308985
-9.119769,-2.494173,-0.49308985
-9.119769,-2.494173,-0.49308985
-9.043172,-2.513322,-0.4164934
-9.043172,-2.513322,-0.4164934
-9.043172,-2.513322,-0.4164934
-9.043172,-2.513322,-0.4164934
-9.091045,-2.5707695,-0.512239
-9.091045,-2.5707695,-0.512239
-9.091045,-2.5707695,-0.512239
-9.091045,-2.5707695,-0.512239
-9.033598,-2.5324712000000003,-0.48351530000000004
-9.033598,-2.5324712000000003,-0.48351530000000004
-9.033598,-2.5324712000000003,-0.48351530000000004
-9.033598,-2.5324712000000003,-0.48351530000000004
-8.947427000000001,-2.4845984,-0.43564250000000004
-8.947427000000001,-2.4845984,-0.43564250000000004
-8.947427000000001,-2.4845984,-0.43564250000000004
-8.947427000000001,-2.4845984,-0.43564250000000004
-8.985725,-2.4654493,-0.5313880999999999
-8.985725,-2.4654493,-0.5313880999999999
-8.985725,-2.4654493,-0.5313880999999999
-9.033598,-2.4367256,-0.56011176
-9.033598,-2.4367256,-0.56011176
-9.033598,-2.4367256,-0.56011176
-9.033598,-2.4367256,-0.56011176
-9.004874000000001,-2.408002,-0.47394073
-9.004874000000001,-2.408002,-0.47394073
-9.004874000000001,-2.408002,-0.47394073
-9.004874000000001,-2.408002,-0.47394073
-9.024023,-2.513322,-0.56968635
-9.024023,-2.513322,-0.56968635
-9.024023,-2.513322,-0.56968635
-9.024023,-2.513322,-0.56968635
-9.110194,-2.5037475,-0.5505372
-9.110194,-2.5037475,-0.5505372
-9.110194,-2.5037475,-0.5505372
-9.110194,-2.5037475,-0.5505372
-9.071896,-2.5324712000000003,-0.47394073
-9.071896,-2.5324712000000003,-0.47394073
-9.071896,-2.5324712000000003,-0.47394073
-9.071896,-2.5324712000000003,-0.47394073
-9.119769,-2.494173,-0.44521707
-9.119769,-2.494173,-0.44521707
-9.119769,-2.494173,-0.44521707
-9.119769,-2.494173,-0.44521707
-9.100619,-2.5037475,-0.4164934
-9.100619,-2.5037475,-0.4164934
-9.100619,-2.5037475,-0.4164934
-9.138917999999999,-2.5324712000000003,-0.32074776
-9.138917999999999,-2.5324712000000003,-0.32074776
-9.138917999999999,-2.5324712000000003,-0.32074776
-9.138917999999999,-2.5324712000000003,-0.32074776
-9.138917999999999,-2.5324712000000003,-0.32074776
-9.138917999999999,-2.561195,-0.4164934
-9.138917999999999,-2.561195,-0.4164934
-9.138917999999999,-2.561195,-0.4164934
-9.119769,-2.5899186000000003,-0.5313880999999999
-9.119769,-2.5899186000000003,-0.5313880999999999
-9.119769,-2.5899186000000003,-0.5313880999999999
-9.119769,-2.5899186000000003,-0.5313880999999999
-9.177217,-2.561195,-0.6079846
-9.177217,-2.561195,-0.6079846
-9.177217,-2.561195,-0.6079846
-9.177217,-2.561195,-0.6079846
-9.158066999999999,-2.494173,-0.54096264
-9.158066999999999,-2.494173,-0.54096264
-9.158066999999999,-2.494173,-0.54096264
-9.158066999999999,-2.494173,-0.54096264
-9.177217,-2.4558747000000003,-0.5505372
-9.177217,-2.4558747000000003,-0.5505372
-9.177217,-2.4558747000000003,-0.5505372
-9.177217,-2.4558747000000003,-0.5505372
-9.138917999999999,-2.360129,-0.50266445
-9.138917999999999,-2.360129,-0.50266445
-9.138917999999999,-2.360129,-0.50266445
-9.138917999999999,-2.360129,-0.50266445
-9.158066999999999,-2.34098,-0.50266445
-9.158066999999999,-2.34098,-0.50266445
-9.158066999999999,-2.34098,-0.50266445
-9.043172,-2.408002,-0.5792609000000001
-9.043172,-2.408002,-0.5792609000000001
-9.043172,-2.408002,-0.5792609000000001
-9.043172,-2.408002,-0.5792609000000001
-9.119769,-2.513322,-0.59841
-9.119769,-2.513322,-0.59841
-9.119769,-2.513322,-0.59841
-9.119769,-2.513322,-0.59841
-9.014449,-2.647366,-0.48351530000000004
-9.014449,-2.647366,-0.48351530000000004
-9.014449,-2.647366,-0.48351530000000004
-9.014449,-2.647366,-0.48351530000000004
-9.062322,-2.7239625,-0.48351530000000004
-9.062322,-2.7239625,-0.48351530000000004
-9.062322,-2.7239625,-0.48351530000000004
-9.062322,-2.7239625,-0.48351530000000004
-9.043172,-2.7431116,-0.48351530000000004
-9.043172,-2.7431116,-0.48351530000000004
-9.043172,-2.7431116,-0.48351530000000004
-9.043172,-2.7431116,-0.48351530000000004
-9.033598,-2.7239625,-0.40691882
-9.033598,-2.7239625,-0.40691882
-9.033598,-2.7239625,-0.40691882
-9.033598,-2.7239625,-0.40691882
-8.995299000000001,-2.752686,-0.45479164
-8.995299000000001,-2.752686,-0.45479164
-8.995299000000001,-2.752686,-0.45479164
-8.976150500000001,-2.6952388,-0.43564250000000004
-8.976150500000001,-2.6952388,-0.43564250000000004
-8.976150500000001,-2.6952388,-0.43564250000000004
-8.976150500000001,-2.6952388,-0.43564250000000004
-8.976150500000001,-2.6952388,-0.43564250000000004
-8.937852000000001,-2.5324712000000003,-0.39734426
-8.937852000000001,-2.5324712000000003,-0.39734426
-8.937852000000001,-2.5324712000000003,-0.39734426
-9.043172,-2.4750240000000003,-0.50266445
-9.043172,-2.4750240000000003,-0.50266445
-9.043172,-2.4750240000000003,-0.50266445
-9.043172,-2.4750240000000003,-0.50266445
-9.091045,-2.408002,-0.5505372
-9.091045,-2.408002,-0.5505372
-9.091045,-2.408002,-0.5505372
-9.091045,-2.408002,-0.5505372
-9.071896,-2.3792782000000003,-0.39734426
-9.071896,-2.3792782000000003,-0.39734426
-9.071896,-2.3792782000000003,-0.39734426
-9.071896,-2.3792782000000003,-0.39734426
-9.043172,-2.5228968,-0.4164934
-9.043172,-2.5228968,-0.4164934
-9.043172,-2.5228968,-0.4164934
-9.043172,-2.5228968,-0.4164934
-9.062322,-2.5420458,-0.37819514
-9.062322,-2.5420458,-0.37819514
-9.062322,-2.5420458,-0.37819514
-9.062322,-2.5420458,-0.37819514
-9.0814705,-2.561195,-0.32074776
-9.0814705,-2.561195,-0.32074776
-9.0814705,-2.561195,-0.32074776
-9.0814705,-2.561195,-0.32074776
-9.215514,-2.6569404999999997,-0.39734426
-9.215514,-2.6569404999999997,-0.39734426
-9.215514,-2.6569404999999997,-0.39734426
-9.20594,-2.7239625,-0.44521707
-9.20594,-2.7239625,-0.44521707
-9.20594,-2.7239625,-0.44521707
-9.20594,-2.7239625,-0.44521707
-8.966576,-2.6760897999999997,-0.2920241
-8.966576,-2.6760897999999997,-0.2920241
-8.966576,-2.6760897999999997,-0.2920241
-8.966576,-2.6760897999999997,-0.2920241
-9.052747,-2.714388,-0.4164934
-9.052747,-2.714388,-0.4164934
-9.052747,-2.714388,-0.4164934
-9.052747,-2.714388,-0.4164934
-9.091045,-2.666515,-0.44521707
-9.091045,-2.666515,-0.44521707
-9.091045,-2.666515,-0.44521707
-9.091045,-2.666515,-0.44521707
-9.091045,-2.5899186000000003,-0.3398969
-9.091045,-2.5899186000000003,-0.3398969
-9.091045,-2.5899186000000003,-0.3398969
-9.091045,-2.5899186000000003,-0.3398969
-9.062322,-2.5228968,-0.23457673
-9.062322,-2.5228968,-0.23457673
-9.062322,-2.5228968,-0.23457673
-9.062322,-2.5228968,-0.23457673
-9.177217,-2.4845984,-0.27287498
-9.177217,-2.4845984,-0.27287498
-9.177217,-2.4845984,-0.27287498
-9.100619,-2.4367256,-0.22500217
-9.100619,-2.4367256,-0.22500217
-9.100619,-2.4367256,-0.22500217
-9.100619,-2.4367256,-0.22500217
-9.071896,-2.4558747000000003,-0.26330042
-9.071896,-2.4558747000000003,-0.26330042
-9.071896,-2.4558747000000003,-0.26330042
-9.071896,-2.4558747000000003,-0.26330042
-9.091045,-2.5037475,-0.3398969
