accx,accy,accz
2.5803439999999997,4.0069537,8.439975
2.5803439999999997,4.0069537,8.439975
2.4750240000000003,3.7963133,8.392102000000001
2.4750240000000003,3.7963133,8.392102000000001
2.4750240000000003,3.7963133,8.392102000000001
2.4750240000000003,3.7963133,8.392102000000001
2.4558747000000003,3.5473747,8.430401
2.4558747000000003,3.5473747,8.430401
2.4558747000000003,3.5473747,8.430401
2.4558747000000003,3.5473747,8.430401
2.6856642,3.5856729,8.717637
2.6856642,3.5856729,8.717637
2.6856642,3.5856729,8.717637
2.6856642,3.5856729,8.717637
2.7909843999999997,3.4420545,8.583592999999999
2.7909843999999997,3.4420545,8.583592999999999
2.7909843999999997,3.4420545,8.583592999999999
2.7909843999999997,3.4420545,8.583592999999999
2.6856642,3.2026904,8.277207
2.6856642,3.2026904,8.277207
2.6856642,3.2026904,8.277207
2.7431116,2.6856642,7.788905000000001
2.7431116,2.6856642,7.788905000000001
2.7431116,2.6856642,7.788905000000001
2.7431116,2.6856642,7.788905000000001
2.7718353,2.7048132000000003,7.482519
2.7718353,2.7048132000000003,7.482519
2.7718353,2.7048132000000003,7.482519
2.7718353,2.7048132000000003,7.482519
2.7718353,2.7048132000000003,7.482519
3.1643922000000004,1.8718264999999998,7.070812700000001
3.1643922000000004,1.8718264999999998,7.070812700000001
3.1643922000000004,1.8718264999999998,7.070812700000001
3.518651,1.6420371999999999,6.314422599999999
3.518651,1.6420371999999999,6.314422599999999
3.518651,1.6420371999999999,6.314422599999999
3.518651,1.6420371999999999,6.314422599999999
3.518651,1.6420371999999999,6.314422599999999
4.811217,-0.85692316,6.410168
4.811217,-0.85692316,6.410168
4.811217,-0.85692316,6.410168
4.811217,-0.85692316,6.410168
6.1612295999999995,-1.7282081999999999,6.7931504
6.1612295999999995,-1.7282081999999999,6.7931504
6.1612295999999995,-1.7282081999999999,6.7931504
7.291027499999999,-2.1303396,6.1899533
7.291027499999999,-2.1303396,6.1899533
7.291027499999999,-2.1303396,6.1899533
7.291027499999999,-2.1303396,6.1899533
8.995299000000001,-3.3558834,4.4473834000000005
8.995299000000001,-3.3558834,4.4473834000000005
8.995299000000001,-3.3558834,4.4473834000000005
8.995299000000001,-3.3558834,4.4473834000000005
8.995299000000001,-3.3558834,4.4473834000000005
11.063405,-5.155901,3.5473747
11.063405,-5.155901,3.5473747
11.063405,-5.155901,3.5473747
11.063405,-5.155901,3.5473747
11.149575,-4.73462,2.9250283
11.149575,-4.73462,2.9250283
11.149575,-4.73462,2.9250283
10.594251,-3.7675896,1.6228879999999999
10.594251,-3.7675896,1.6228879999999999
10.594251,-3.7675896,1.6228879999999999
10.594251,-3.7675896,1.6228879999999999
10.594251,-3.7675896,1.6228879999999999
11.044255,-3.3941817000000003,0.64628285
11.044255,-3.3941817000000003,0.64628285
11.044255,-3.3941817000000003,0.64628285
11.044255,-3.3941817000000003,0.64628285
10.105948,-3.844186,0.081383765
10.105948,-3.844186,0.081383765
10.105948,-3.844186,0.081383765
10.220842999999999,-3.6335455999999997,-0.20585304
10.220842999999999,-3.6335455999999997,-0.20585304
10.220842999999999,-3.6335455999999997,-0.20585304
10.220842999999999,-3.6335455999999997,-0.20585304
10.220842999999999,-3.6335455999999997,-0.20585304
10.622974000000001,-2.7909843999999997,-0.23457673
10.622974000000001,-2.7909843999999997,-0.23457673
10.622974000000001,-2.7909843999999997,-0.23457673
10.622974000000001,-2.7909843999999997,-0.23457673
10.316589,-2.6090677,0.28244954
10.316589,-2.6090677,0.28244954
10.316589,-2.6090677,0.28244954
10.316589,-2.6090677,0.28244954
10.220842999999999,-0.40691882,0.69415563
10.220842999999999,-0.40691882,0.69415563
10.220842999999999,-0.40691882,0.69415563
10.220842999999999,-0.40691882,0.69415563
9.617646,-1.6037389,-0.3111732
9.617646,-1.6037389,-0.3111732
9.617646,-1.6037389,-0.3111732
9.617646,-1.6037389,-0.3111732
9.454879,-1.776081,-0.7994758000000001
9.454879,-1.776081,-0.7994758000000001
9.454879,-1.776081,-0.7994758000000001
9.454879,-1.776081,-0.7994758000000001
9.761265,-1.9867213,-0.33032233
9.761265,-1.9867213,-0.33032233
9.761265,-1.9867213,-0.33032233
9.761265,-1.9867213,-0.33032233
10.058076,-1.8048046999999998,0.15798025
10.058076,-1.8048046999999998,0.15798025
10.058076,-1.8048046999999998,0.15798025
10.058076,-1.8048046999999998,0.15798025
9.8953085,-1.776081,-0.15798025
9.8953085,-1.776081,-0.15798025
9.8953085,-1.776081,-0.15798025
9.8953085,-1.776081,-0.15798025
9.713391,-1.6611862000000002,-0.09095833
9.713391,-1.6611862000000002,-0.09095833
9.713391,-1.6611862000000002,-0.09095833
9.713391,-1.6611862000000002,-0.09095833
9.991054,-1.6899098999999997,-0.19627848
9.991054,-1.6899098999999997,-0.19627848
9.991054,-1.6899098999999997,-0.19627848
9.991054,-1.6899098999999997,-0.19627848
9.98148,-1.7473572,-0.28244954
9.98148,-1.7473572,-0.28244954
9.98148,-1.7473572,-0.28244954
9.828286,-1.6516117,-0.18670394
9.828286,-1.6516117,-0.18670394
9.828286,-1.6516117,-0.18670394
9.828286,-1.6516117,-0.18670394
9.828286,-1.6516117,-0.18670394
9.818711,-1.6420371999999999,-0.081383765
9.818711,-1.6420371999999999,-0.081383765
9.818711,-1.6420371999999999,-0.081383765
9.818711,-1.6420371999999999,-0.081383765
9.8953085,-1.5750152,-0.00478728
9.8953085,-1.5750152,-0.00478728
9.8953085,-1.5750152,-0.00478728
9.847435,-1.4984187,0.023936402000000002
9.847435,-1.4984187,0.023936402000000002
9.847435,-1.4984187,0.023936402000000002
9.847435,-1.4984187,0.023936402000000002
9.847435,-1.4984187,0.023936402000000002
9.8953085,-1.5845897,-0.0718092
9.8953085,-1.5845897,-0.0718092
9.8953085,-1.5845897,-0.0718092
9.8953085,-1.5845897,-0.0718092
9.98148,-1.6803354,-0.0718092
9.98148,-1.6803354,-0.0718092
9.98148,-1.6803354,-0.0718092
9.98148,-1.6803354,-0.0718092
9.770839,-1.7665064,0.00478728
9.770839,-1.7665064,0.00478728
9.770839,-1.7665064,0.00478728
9.770839,-1.7665064,0.00478728
9.722966,-1.7952299999999999,0.081383765
9.722966,-1.7952299999999999,0.081383765
9.722966,-1.7952299999999999,0.081383765
9.722966,-1.7952299999999999,0.081383765
9.866585,-1.8909756999999998,0.043085523
9.866585,-1.8909756999999998,0.043085523
9.866585,-1.8909756999999998,0.043085523
9.866585,-1.8909756999999998,0.043085523
9.8953085,-1.9579976000000003,0.00478728
9.8953085,-1.9579976000000003,0.00478728
9.8953085,-1.9579976000000003,0.00478728
9.8953085,-1.9579976000000003,0.00478728
9.8953085,-1.862252,-0.00478728
9.8953085,-1.862252,-0.00478728
9.8953085,-1.862252,-0.00478728
9.8953085,-1.862252,-0.00478728
9.952755999999999,-1.7282081999999999,-0.023936402000000002
9.952755999999999,-1.7282081999999999,-0.023936402000000002
9.952755999999999,-1.7282081999999999,-0.023936402000000002
9.952755999999999,-1.7282081999999999,-0.023936402000000002
9.96233,-1.6324625,-0.0718092
9.96233,-1.6324625,-0.0718092
9.96233,-1.6324625,-0.0718092
9.96233,-1.6324625,-0.0718092
9.8953085,-1.5079931999999998,-0.09095833
9.8953085,-1.5079931999999998,-0.09095833
9.8953085,-1.5079931999999998,-0.09095833
9.8953085,-1.5079931999999998,-0.09095833
9.914457,-1.4792696,-0.110107444
9.914457,-1.4792696,-0.110107444
9.914457,-1.4792696,-0.110107444
9.914457,-1.4792696,-0.110107444
9.799562,-1.5271424,-0.043085523
9.799562,-1.5271424,-0.043085523
9.799562,-1.5271424,-0.043085523
9.799562,-1.5271424,-0.043085523
9.837861,-1.5845897,-0.00478728
9.837861,-1.5845897,-0.00478728
9.837861,-1.5845897,-0.00478728
9.837861,-1.5845897,-0.00478728
9.933606,-1.6803354,-0.03351096
9.933606,-1.6803354,-0.03351096
9.933606,-1.6803354,-0.03351096
9.933606,-1.6803354,-0.03351096
9.96233,-1.7569318999999999,-0.062234644000000006
9.96233,-1.7569318999999999,-0.062234644000000006
9.96233,-1.7569318999999999,-0.062234644000000006
9.904882,-1.7569318999999999,-0.043085523
9.904882,-1.7569318999999999,-0.043085523
9.904882,-1.7569318999999999,-0.043085523
9.904882,-1.7569318999999999,-0.043085523
9.876159,-1.7186337,-0.05266008
9.876159,-1.7186337,-0.05266008
9.876159,-1.7186337,-0.05266008
9.876159,-1.7186337,-0.05266008
9.885734,-1.6707608,-0.062234644000000006
9.885734,-1.6707608,-0.062234644000000006
9.885734,-1.6707608,-0.062234644000000006
9.885734,-1.6707608,-0.062234644000000006
9.876159,-1.6324625,-0.00478728
9.876159,-1.6324625,-0.00478728
9.876159,-1.6324625,-0.00478728
9.876159,-1.6324625,-0.00478728
9.847435,-1.6133133999999998,0.023936402000000002
9.847435,-1.6133133999999998,0.023936402000000002
9.847435,-1.6133133999999998,0.023936402000000002
9.847435,-1.6133133999999998,0.023936402000000002
9.924032,-1.6420371999999999,0.0
9.924032,-1.6420371999999999,0.0
9.924032,-1.6420371999999999,0.0
9.866585,-1.6516117,0.00478728
9.866585,-1.6516117,0.00478728
9.866585,-1.6516117,0.00478728
9.866585,-1.6516117,0.00478728
9.866585,-1.6516117,0.00478728
9.904882,-1.6707608,-0.023936402000000002
9.904882,-1.6707608,-0.023936402000000002
9.904882,-1.6707608,-0.023936402000000002
9.885734,-1.6420371999999999,0.00478728
9.885734,-1.6420371999999999,0.00478728
9.885734,-1.6420371999999999,0.00478728
9.885734,-1.6420371999999999,0.00478728
9.866585,-1.6324625,0.0
9.866585,-1.6324625,0.0
9.866585,-1.6324625,0.0
9.866585,-1.6324625,0.0
9.904882,-1.5750152,0.05266008
9.904882,-1.5750152,0.05266008
9.904882,-1.5750152,0.05266008
9.904882,-1.5750152,0.05266008
9.904882,-1.5750152,0.05266008
9.914457,-1.5654407,0.11968201
9.914457,-1.5654407,0.11968201
9.914457,-1.5654407,0.11968201
9.8953085,-1.6037389,0.12925656
9.8953085,-1.6037389,0.12925656
9.8953085,-1.6037389,0.12925656
9.8953085,-1.6037389,0.12925656
9.8953085,-1.6133133999999998,0.16755481
9.8953085,-1.6133133999999998,0.16755481
9.8953085,-1.6133133999999998,0.16755481
9.8953085,-1.6133133999999998,0.16755481
9.924032,-1.6324625,0.0718092
9.924032,-1.6324625,0.0718092
9.924032,-1.6324625,0.0718092
9.924032,-1.6324625,0.0718092
9.885734,-1.6516117,-0.03351096
9.885734,-1.6516117,-0.03351096
9.885734,-1.6516117,-0.03351096
9.885734,-1.6516117,-0.03351096
9.809137,-1.6611862000000002,0.062234644000000006
9.809137,-1.6611862000000002,0.062234644000000006
9.809137,-1.6611862000000002,0.062234644000000006
9.809137,-1.6611862000000002,0.062234644000000006
9.876159,-1.6994845,0.14840569
9.876159,-1.6994845,0.14840569
9.876159,-1.6994845,0.14840569
9.885734,-1.7186337,0.10053288
9.885734,-1.7186337,0.10053288
9.885734,-1.7186337,0.10053288
9.885734,-1.7186337,0.10053288
9.885734,-1.7186337,0.10053288
9.828286,-1.6420371999999999,0.0
9.828286,-1.6420371999999999,0.0
9.828286,-1.6420371999999999,0.0
9.866585,-1.6324625,-0.110107444
9.866585,-1.6324625,-0.110107444
9.866585,-1.6324625,-0.110107444
9.866585,-1.6324625,-0.110107444
9.904882,-1.6420371999999999,-0.110107444
9.904882,-1.6420371999999999,-0.110107444
9.904882,-1.6420371999999999,-0.110107444
9.904882,-1.6420371999999999,-0.110107444
9.914457,-1.6228879999999999,-0.014361841
9.914457,-1.6228879999999999,-0.014361841
9.914457,-1.6228879999999999,-0.014361841
9.914457,-1.6228879999999999,-0.014361841
9.847435,-1.5654407,0.0718092
9.847435,-1.5654407,0.0718092
9.847435,-1.5654407,0.0718092
9.847435,-1.5654407,0.0718092
9.885734,-1.5845897,0.0718092
9.885734,-1.5845897,0.0718092
9.885734,-1.5845897,0.0718092
9.885734,-1.5845897,0.0718092
9.904882,-1.6707608,0.062234644000000006
9.904882,-1.6707608,0.062234644000000006
9.904882,-1.6707608,0.062234644000000006
9.904882,-1.6707608,0.062234644000000006
9.837861,-1.6994845,0.081383765
9.837861,-1.6994845,0.081383765
9.837861,-1.6994845,0.081383765
9.837861,-1.6994845,0.081383765
9.85701,-1.709059,0.0718092
9.85701,-1.709059,0.0718092
9.85701,-1.709059,0.0718092
9.85701,-1.709059,0.0718092
9.876159,-1.776081,0.062234644000000006
9.876159,-1.776081,0.062234644000000006
9.876159,-1.776081,0.062234644000000006
9.876159,-1.776081,0.062234644000000006
9.85701,-1.776081,0.15798025
9.85701,-1.776081,0.15798025
9.85701,-1.776081,0.15798025
9.85701,-1.776081,0.15798025
10.000628,-1.776081,0.26330042
10.000628,-1.776081,0.26330042
10.000628,-1.776081,0.26330042
10.000628,-1.776081,0.26330042
10.029352000000001,-1.6037389,0.37819514
10.029352000000001,-1.6037389,0.37819514
10.029352000000001,-1.6037389,0.37819514
10.029352000000001,-1.6037389,0.37819514
10.077225,-1.3069274,0.359046
10.077225,-1.3069274,0.359046
10.077225,-1.3069274,0.359046
10.077225,-1.3069274,0.359046
9.770839,-1.4026731000000001,0.18670394
9.770839,-1.4026731000000001,0.18670394
9.770839,-1.4026731000000001,0.18670394
9.770839,-1.4026731000000001,0.18670394
9.493176,-1.7856555,0.014361841
9.493176,-1.7856555,0.014361841
9.493176,-1.7856555,0.014361841
9.493176,-1.7856555,0.014361841
9.64637,-1.8909756999999998,0.2154276
9.64637,-1.8909756999999998,0.2154276
9.64637,-1.8909756999999998,0.2154276
9.64637,-1.8909756999999998,0.2154276
9.732541000000001,-2.2165107999999996,0.11968201
9.732541000000001,-2.2165107999999996,0.11968201
9.732541000000001,-2.2165107999999996,0.11968201
9.636795,-2.5037475,-0.11968201
9.636795,-2.5037475,-0.11968201
9.636795,-2.5037475,-0.11968201
9.636795,-2.5037475,-0.11968201
9.636795,-2.5037475,-0.11968201
9.742115,-2.408002,0.2441513
9.742115,-2.408002,0.2441513
9.742115,-2.408002,0.2441513
9.742115,-2.408002,0.2441513
9.665519,-2.149489,0.64628285
9.665519,-2.149489,0.64628285
9.665519,-2.149489,0.64628285
9.713391,-1.9101248,0.90479594
9.713391,-1.9101248,0.90479594
9.713391,-1.9101248,0.90479594
9.713391,-1.9101248,0.90479594
9.713391,-1.9101248,0.90479594
9.924032,-1.7377827000000001,1.0292653
9.924032,-1.7377827000000001,1.0292653
9.924032,-1.7377827000000001,1.0292653
9.924032,-1.7377827000000001,1.0292653
10.29744,-1.4984187,0.70373017
10.29744,-1.4984187,0.70373017
10.29744,-1.4984187,0.70373017
10.29744,-1.4984187,0.70373017
11.867668,-1.5941644,-0.26330042
11.867668,-1.5941644,-0.26330042
11.867668,-1.5941644,-0.26330042
11.867668,-1.5941644,-0.26330042
15.898558,-1.7665064,-1.5845897
15.898558,-1.7665064,-1.5845897
15.898558,-1.7665064,-1.5845897
11.858092999999998,-0.3398969,-0.7228793
11.858092999999998,-0.3398969,-0.7228793
11.858092999999998,-0.3398969,-0.7228793
11.858092999999998,-0.3398969,-0.7228793
7.894225,0.27287498,-0.8856468000000001
7.894225,0.27287498,-0.8856468000000001
7.894225,0.27287498,-0.8856468000000001
7.894225,0.27287498,-0.8856468000000001
9.85701,-1.0388398,-1.6516117
9.85701,-1.0388398,-1.6516117
9.85701,-1.0388398,-1.6516117
9.85701,-1.0388398,-1.6516117
8.985725,-0.93351966,-0.8856468000000001
8.985725,-0.93351966,-0.8856468000000001
8.985725,-0.93351966,-0.8856468000000001
8.985725,-0.93351966,-0.8856468000000001
7.463369999999999,-1.14416,0.09095833
7.463369999999999,-1.14416,0.09095833
7.463369999999999,-1.14416,0.09095833
7.463369999999999,-1.14416,0.09095833
7.463369999999999,-1.14416,0.09095833
7.855927,-0.93351966,0.8856468000000001
7.855927,-0.93351966,0.8856468000000001
7.855927,-0.93351966,0.8856468000000001
9.828286,0.37819514,1.2303311000000001
9.828286,0.37819514,1.2303311000000001
9.828286,0.37819514,1.2303311000000001
9.828286,0.37819514,1.2303311000000001
12.882571,-0.44521707,0.42606795
12.882571,-0.44521707,0.42606795
12.882571,-0.44521707,0.42606795
12.882571,-0.44521707,0.42606795
12.882571,-0.44521707,0.42606795
15.678343,-1.7473572,-0.45479164
15.678343,-1.7473572,-0.45479164
15.678343,-1.7473572,-0.45479164
11.676176,-2.2931072999999995,-0.47394073
11.676176,-2.2931072999999995,-0.47394073
11.676176,-2.2931072999999995,-0.47394073
11.676176,-2.2931072999999995,-0.47394073
11.676176,-2.2931072999999995,-0.47394073
6.8601727,-1.0196906,-0.03351096
6.8601727,-1.0196906,-0.03351096
6.8601727,-1.0196906,-0.03351096
6.8601727,-1.0196906,-0.03351096
8.593167999999999,-1.3356511999999998,-0.7420284
8.593167999999999,-1.3356511999999998,-0.7420284
8.593167999999999,-1.3356511999999998,-0.7420284
7.7506065,-1.3165021000000001,-0.7420284
7.7506065,-1.3165021000000001,-0.7420284
7.7506065,-1.3165021000000001,-0.7420284
7.7506065,-1.3165021000000001,-0.7420284
7.7506065,-1.3165021000000001,-0.7420284
6.649532300000001,-1.6228879999999999,-0.6271336999999999
6.649532300000001,-1.6228879999999999,-0.6271336999999999
6.649532300000001,-1.6228879999999999,-0.6271336999999999
6.649532300000001,-1.6228879999999999,-0.6271336999999999
8.277207,-1.8814011999999998,-1.0388398
8.277207,-1.8814011999999998,-1.0388398
8.277207,-1.8814011999999998,-1.0388398
14.395351000000002,-1.2399056,-0.48351530000000004
14.395351000000002,-1.2399056,-0.48351530000000004
14.395351000000002,-1.2399056,-0.48351530000000004
14.395351000000002,-1.2399056,-0.48351530000000004
16.501755,0.25372586,-0.50266445
16.501755,0.25372586,-0.50266445
16.501755,0.25372586,-0.50266445
16.501755,0.25372586,-0.50266445
8.497422,-0.5313880999999999,-0.30159867
8.497422,-0.5313880999999999,-0.30159867
8.497422,-0.5313880999999999,-0.30159867
8.497422,-0.5313880999999999,-0.30159867
7.482519,-1.8814011999999998,-0.7420284
7.482519,-1.8814011999999998,-0.7420284
7.482519,-1.8814011999999998,-0.7420284
7.482519,-1.8814011999999998,-0.7420284
9.732541000000001,-1.4218222,0.22500217
9.732541000000001,-1.4218222,0.22500217
9.732541000000001,-1.4218222,0.22500217
9.732541000000001,-1.4218222,0.22500217
7.1665583,-0.110107444,1.9867213
7.1665583,-0.110107444,1.9867213
7.1665583,-0.110107444,1.9867213
7.1665583,-0.110107444,1.9867213
7.319751299999999,-1.5367169,1.0005416
7.319751299999999,-1.5367169,1.0005416
7.319751299999999,-1.5367169,1.0005416
7.319751299999999,-1.5367169,1.0005416
11.168725,-2.0824668,0.11968201
11.168725,-2.0824668,0.11968201
11.168725,-2.0824668,0.11968201
11.168725,-2.0824668,0.11968201
13.983645000000001,-2.2069361,0.22500217
13.983645000000001,-2.2069361,0.22500217
13.983645000000001,-2.2069361,0.22500217
13.983645000000001,-2.2069361,0.22500217
14.20386,-2.5324712000000003,-0.05266008
14.20386,-2.5324712000000003,-0.05266008
14.20386,-2.5324712000000003,-0.05266008
14.20386,-2.5324712000000003,-0.05266008
14.20386,-2.5324712000000003,-0.05266008
8.277207,-1.9962958,0.54096264
8.277207,-1.9962958,0.54096264
8.277207,-1.9962958,0.54096264
7.741032000000001,-1.1728836,0.5888355
7.741032000000001,-1.1728836,0.5888355
7.741032000000001,-1.1728836,0.5888355
7.741032000000001,-1.1728836,0.5888355
7.741032000000001,-1.1728836,0.5888355
8.5740185,-1.4984187,-0.18670394
8.5740185,-1.4984187,-0.18670394
8.5740185,-1.4984187,-0.18670394
7.501668,-1.3069274,0.0
7.501668,-1.3069274,0.0
7.501668,-1.3069274,0.0
7.501668,-1.3069274,0.0
7.35805,-1.5271424,-0.70373017
7.35805,-1.5271424,-0.70373017
7.35805,-1.5271424,-0.70373017
7.35805,-1.5271424,-0.70373017
7.35805,-1.5271424,-0.70373017
11.532558,-1.3452256999999999,-1.1345854
11.532558,-1.3452256999999999,-1.1345854
11.532558,-1.3452256999999999,-1.1345854
16.080475,-0.5313880999999999,-1.2016073
16.080475,-0.5313880999999999,-1.2016073
16.080475,-0.5313880999999999,-1.2016073
16.080475,-0.5313880999999999,-1.2016073
16.080475,-0.5313880999999999,-1.2016073
11.417664,0.34947145,-1.0771381000000002
11.417664,0.34947145,-1.0771381000000002
11.417664,0.34947145,-1.0771381000000002
11.417664,0.34947145,-1.0771381000000002
7.788905000000001,-0.6845810999999999,-0.8952214
7.788905000000001,-0.6845810999999999,-0.8952214
7.788905000000001,-0.6845810999999999,-0.8952214
9.560199,-0.5505372,-0.64628285
9.560199,-0.5505372,-0.64628285
9.560199,-0.5505372,-0.64628285
9.560199,-0.5505372,-0.64628285
9.560199,-0.5505372,-0.64628285
7.559115400000001,-0.43564250000000004,0.78032666
7.559115400000001,-0.43564250000000004,0.78032666
7.559115400000001,-0.43564250000000004,0.78032666
7.559115400000001,-0.43564250000000004,0.78032666
6.7165539999999995,-1.0005416,0.9718179
6.7165539999999995,-1.0005416,0.9718179
6.7165539999999995,-1.0005416,0.9718179
6.7165539999999995,-1.0005416,0.9718179
9.665519,-1.1728836,0.4164934
9.665519,-1.1728836,0.4164934
9.665519,-1.1728836,0.4164934
9.665519,-1.1728836,0.4164934
15.065570999999998,-1.4792696,-0.110107444
15.065570999999998,-1.4792696,-0.110107444
15.065570999999998,-1.4792696,-0.110107444
15.065570999999998,-1.4792696,-0.110107444
14.883655,-0.8281995000000001,0.30159867
14.883655,-0.8281995000000001,0.30159867
14.883655,-0.8281995000000001,0.30159867
14.883655,-0.8281995000000001,0.30159867
9.818711,-1.1250108,0.56968635
9.818711,-1.1250108,0.56968635
9.818711,-1.1250108,0.56968635
9.818711,-1.1250108,0.56968635
7.1857076,-0.91437054,0.44521707
7.1857076,-0.91437054,0.44521707
7.1857076,-0.91437054,0.44521707
7.1857076,-0.91437054,0.44521707
7.5495410000000005,-1.4984187,-0.32074776
7.5495410000000005,-1.4984187,-0.32074776
7.5495410000000005,-1.4984187,-0.32074776
7.5495410000000005,-1.4984187,-0.32074776
7.7027339999999995,-1.5750152,-0.50266445
7.7027339999999995,-1.5750152,-0.50266445
7.7027339999999995,-1.5750152,-0.50266445
7.7027339999999995,-1.5750152,-0.50266445
7.4442205,-1.6324625,-0.5313880999999999
7.4442205,-1.6324625,-0.5313880999999999
7.4442205,-1.6324625,-0.5313880999999999
7.4442205,-1.6324625,-0.5313880999999999
11.925115,-1.6133133999999998,-0.9718179
11.925115,-1.6133133999999998,-0.9718179
11.925115,-1.6133133999999998,-0.9718179
11.925115,-1.6133133999999998,-0.9718179
16.61665,-1.0675635,-0.8664976999999999
16.61665,-1.0675635,-0.8664976999999999
16.61665,-1.0675635,-0.8664976999999999
16.61665,-1.0675635,-0.8664976999999999
11.992137,0.44521707,-0.59841
11.992137,0.44521707,-0.59841
11.992137,0.44521707,-0.59841
11.992137,0.44521707,-0.59841
5.9218655,-0.081383765,-0.665432
5.9218655,-0.081383765,-0.665432
5.9218655,-0.081383765,-0.665432
5.9218655,-0.081383765,-0.665432
9.0814705,-1.6994845,-0.9622433000000001
9.0814705,-1.6994845,-0.9622433000000001
9.0814705,-1.6994845,-0.9622433000000001
9.0814705,-1.6994845,-0.9622433000000001
8.334655,-0.8664976999999999,0.13883112
8.334655,-0.8664976999999999,0.13883112
8.334655,-0.8664976999999999,0.13883112
8.334655,-0.8664976999999999,0.13883112
7.032514599999999,-0.6558574,1.3452256999999999
7.032514599999999,-0.6558574,1.3452256999999999
7.032514599999999,-0.6558574,1.3452256999999999
7.032514599999999,-0.6558574,1.3452256999999999
8.736787,-0.7420284,2.0441686999999997
8.736787,-0.7420284,2.0441686999999997
8.736787,-0.7420284,2.0441686999999997
8.736787,-0.7420284,2.0441686999999997
14.395351000000002,-2.5803439999999997,-0.23457673
14.395351000000002,-2.5803439999999997,-0.23457673
14.395351000000002,-2.5803439999999997,-0.23457673
14.395351000000002,-2.5803439999999997,-0.23457673
15.821960999999998,-2.4367256,-0.09095833
15.821960999999998,-2.4367256,-0.09095833
15.821960999999998,-2.4367256,-0.09095833
15.821960999999998,-2.4367256,-0.09095833
8.957002000000001,-2.1973617,0.8952214
8.957002000000001,-2.1973617,0.8952214
8.957002000000001,-2.1973617,0.8952214
8.957002000000001,-2.1973617,0.8952214
6.831449,-1.9579976000000003,-0.20585304
6.831449,-1.9579976000000003,-0.20585304
6.831449,-1.9579976000000003,-0.20585304
6.831449,-1.9579976000000003,-0.20585304
7.7506065,-2.034594,-0.7994758000000001
7.7506065,-2.034594,-0.7994758000000001
7.7506065,-2.034594,-0.7994758000000001
7.7506065,-2.034594,-0.7994758000000001
8.4686985,-1.6707608,-0.5888355
8.4686985,-1.6707608,-0.5888355
8.4686985,-1.6707608,-0.5888355
8.4686985,-1.6707608,-0.5888355
8.1623125,-1.8048046999999998,-0.69415563
8.1623125,-1.8048046999999998,-0.69415563
8.1623125,-1.8048046999999998,-0.69415563
8.1623125,-1.8048046999999998,-0.69415563
11.877241999999999,-1.6420371999999999,-1.5462915000000002
11.877241999999999,-1.6420371999999999,-1.5462915000000002
11.877241999999999,-1.6420371999999999,-1.5462915000000002
11.877241999999999,-1.6420371999999999,-1.5462915000000002
15.745364000000002,-0.12925656,-0.8473485999999999
15.745364000000002,-0.12925656,-0.8473485999999999
15.745364000000002,-0.12925656,-0.8473485999999999
15.745364000000002,-0.12925656,-0.8473485999999999
10.450633,0.9526688,-0.11968201
10.450633,0.9526688,-0.11968201
10.450633,0.9526688,-0.11968201
10.450633,0.9526688,-0.11968201
6.8122997000000005,0.16755481,-1.1824582000000001
6.8122997000000005,0.16755481,-1.1824582000000001
6.8122997000000005,0.16755481,-1.1824582000000001
6.8122997000000005,0.16755481,-1.1824582000000001
6.8122997000000005,0.16755481,-1.1824582000000001
9.483603,-2.1973617,-2.0250196
9.483603,-2.1973617,-2.0250196
9.483603,-2.1973617,-2.0250196
7.855927,-1.0101161,-0.023936402000000002
7.855927,-1.0101161,-0.023936402000000002
7.855927,-1.0101161,-0.023936402000000002
7.855927,-1.0101161,-0.023936402000000002
7.788905000000001,1.0867126,3.7963133
7.788905000000001,1.0867126,3.7963133
7.788905000000001,1.0867126,3.7963133
7.788905000000001,1.0867126,3.7963133
7.3676243,-1.7473572,0.9430941999999999
7.3676243,-1.7473572,0.9430941999999999
7.3676243,-1.7473572,0.9430941999999999
7.3676243,-1.7473572,0.9430941999999999
14.146413,-3.3463089999999998,-1.9962958
14.146413,-3.3463089999999998,-1.9962958
14.146413,-3.3463089999999998,-1.9962958
14.146413,-3.3463089999999998,-1.9962958
14.921952,-1.4218222,0.13883112
14.921952,-1.4218222,0.13883112
14.921952,-1.4218222,0.13883112
14.921952,-1.4218222,0.13883112
10.000628,-1.1154363,0.77075213
10.000628,-1.1154363,0.77075213
10.000628,-1.1154363,0.77075213
10.000628,-1.1154363,0.77075213
8.976150500000001,-1.9867213,-1.3930986
8.976150500000001,-1.9867213,-1.3930986
8.976150500000001,-1.9867213,-1.3930986
8.976150500000001,-1.9867213,-1.3930986
8.650616000000001,-1.9388485,-1.1633091
8.650616000000001,-1.9388485,-1.1633091
8.650616000000001,-1.9388485,-1.1633091
8.650616000000001,-1.9388485,-1.1633091
8.478273,-1.4984187,-0.7324539000000001
8.478273,-1.4984187,-0.7324539000000001
8.478273,-1.4984187,-0.7324539000000001
8.478273,-1.4984187,-0.7324539000000001
7.9995449999999995,-1.6707608,-0.77075213
7.9995449999999995,-1.6707608,-0.77075213
7.9995449999999995,-1.6707608,-0.77075213
7.9995449999999995,-1.6707608,-0.77075213
7.731457700000001,-2.2835326,-0.91437054
7.731457700000001,-2.2835326,-0.91437054
7.731457700000001,-2.2835326,-0.91437054
7.731457700000001,-2.2835326,-0.91437054
11.187874,-2.7909843999999997,-0.64628285
11.187874,-2.7909843999999997,-0.64628285
11.187874,-2.7909843999999997,-0.64628285
11.187874,-2.7909843999999997,-0.64628285
14.43365,-3.2792869,-0.50266445
14.43365,-3.2792869,-0.50266445
14.43365,-3.2792869,-0.50266445
14.43365,-3.2792869,-0.50266445
10.910212,-2.7048132000000003,-0.512239
10.910212,-2.7048132000000003,-0.512239
10.910212,-2.7048132000000003,-0.512239
10.910212,-2.7048132000000003,-0.512239
7.319751299999999,-1.0196906,-0.8473485999999999
7.319751299999999,-1.0196906,-0.8473485999999999
7.319751299999999,-1.0196906,-0.8473485999999999
7.319751299999999,-1.0196906,-0.8473485999999999
10.871913000000001,-1.3548003,-1.9867213
10.871913000000001,-1.3548003,-1.9867213
10.871913000000001,-1.3548003,-1.9867213
10.871913000000001,-1.3548003,-1.9867213
9.320834,-1.3452256999999999,-1.6516117
9.320834,-1.3452256999999999,-1.6516117
9.320834,-1.3452256999999999,-1.6516117
9.320834,-1.3452256999999999,-1.6516117
7.597413499999999,-1.5558661,-0.46436617
7.597413499999999,-1.5558661,-0.46436617
7.597413499999999,-1.5558661,-0.46436617
7.597413499999999,-1.5558661,-0.46436617
7.070812700000001,-1.5271424,-0.28244954
7.070812700000001,-1.5271424,-0.28244954
7.070812700000001,-1.5271424,-0.28244954
7.070812700000001,-1.5271424,-0.28244954
7.9995449999999995,-1.6899098999999997,0.16755481
7.9995449999999995,-1.6899098999999997,0.16755481
7.9995449999999995,-1.6899098999999997,0.16755481
7.9995449999999995,-1.6899098999999997,0.16755481
9.244238000000001,-2.5707695,0.46436617
9.244238000000001,-2.5707695,0.46436617
9.244238000000001,-2.5707695,0.46436617
9.244238000000001,-2.5707695,0.46436617
9.703816999999999,-3.5569491,0.20585304
9.703816999999999,-3.5569491,0.20585304
9.703816999999999,-3.5569491,0.20585304
9.703816999999999,-3.5569491,0.20585304
11.848517999999999,-3.4324798999999997,-0.23457673
11.848517999999999,-3.4324798999999997,-0.23457673
11.848517999999999,-3.4324798999999997,-0.23457673
11.848517999999999,-3.4324798999999997,-0.23457673
12.011286,-4.016528,-0.78032666
12.011286,-4.016528,-0.78032666
12.011286,-4.016528,-0.78032666
12.011286,-4.016528,-0.78032666
10.431483,-2.867581,-1.3548003
10.431483,-2.867581,-1.3548003
10.431483,-2.867581,-1.3548003
10.431483,-2.867581,-1.3548003
8.210186,-2.4463003,-1.4792696
8.210186,-2.4463003,-1.4792696
8.210186,-2.4463003,-1.4792696
8.210186,-2.4463003,-1.4792696
6.8122997000000005,-1.7282081999999999,-1.0388398
6.8122997000000005,-1.7282081999999999,-1.0388398
6.8122997000000005,-1.7282081999999999,-1.0388398
6.8122997000000005,-1.7282081999999999,-1.0388398
7.961247,-1.8718264999999998,-1.5462915000000002
7.961247,-1.8718264999999998,-1.5462915000000002
7.961247,-1.8718264999999998,-1.5462915000000002
7.961247,-1.8718264999999998,-1.5462915000000002
9.991054,-2.168638,-1.7377827000000001
9.991054,-2.168638,-1.7377827000000001
9.991054,-2.168638,-1.7377827000000001
9.991054,-2.168638,-1.7377827000000001
12.624058,-1.2111819,-1.1345854
12.624058,-1.2111819,-1.1345854
12.624058,-1.2111819,-1.1345854
12.624058,-1.2111819,-1.1345854
13.926198000000001,-0.91437054,-0.83777404
13.926198000000001,-0.91437054,-0.83777404
13.926198000000001,-0.91437054,-0.83777404
13.926198000000001,-0.91437054,-0.83777404
8.23891,-1.14416,0.6271336999999999
8.23891,-1.14416,0.6271336999999999
8.23891,-1.14416,0.6271336999999999
8.23891,-1.14416,0.6271336999999999
11.475111,-1.5750152,-0.665432
11.475111,-1.5750152,-0.665432
11.475111,-1.5750152,-0.665432
11.475111,-1.5750152,-0.665432
10.278291000000001,-0.8281995000000001,0.14840569
10.278291000000001,-0.8281995000000001,0.14840569
10.278291000000001,-0.8281995000000001,0.14840569
10.278291000000001,-0.8281995000000001,0.14840569
8.00912,-0.6750065,0.59841
8.00912,-0.6750065,0.59841
8.00912,-0.6750065,0.59841
9.924032,-1.4792696,-0.28244954
9.924032,-1.4792696,-0.28244954
9.924032,-1.4792696,-0.28244954
9.924032,-1.4792696,-0.28244954
9.924032,-1.4792696,-0.28244954
13.820878,-1.1920328000000002,-0.17712937
13.820878,-1.1920328000000002,-0.17712937
13.820878,-1.1920328000000002,-0.17712937
13.868751000000001,-1.0579889,0.25372586
13.868751000000001,-1.0579889,0.25372586
13.868751000000001,-1.0579889,0.25372586
13.868751000000001,-1.0579889,0.25372586
9.445304,-1.6611862000000002,0.22500217
9.445304,-1.6611862000000002,0.22500217
9.445304,-1.6611862000000002,0.22500217
9.445304,-1.6611862000000002,0.22500217
9.0814705,-1.8239537000000001,-0.8664976999999999
9.0814705,-1.8239537000000001,-0.8664976999999999
9.0814705,-1.8239537000000001,-0.8664976999999999
9.0814705,-1.8239537000000001,-0.8664976999999999
9.359133,-1.5941644,-1.6037389
9.359133,-1.5941644,-1.6037389
9.359133,-1.5941644,-1.6037389
9.359133,-1.5941644,-1.6037389
8.688913000000001,-1.4409714,-1.1345854
8.688913000000001,-1.4409714,-1.1345854
8.688913000000001,-1.4409714,-1.1345854
8.688913000000001,-1.4409714,-1.1345854
8.411251,-1.5845897,-1.2494801000000002
8.411251,-1.5845897,-1.2494801000000002
8.411251,-1.5845897,-1.2494801000000002
8.411251,-1.5845897,-1.2494801000000002
12.078308,-0.4164934,-1.5845897
12.078308,-0.4164934,-1.5845897
12.078308,-0.4164934,-1.5845897
12.078308,-0.4164934,-1.5845897
14.155988,0.69415563,-0.7994758000000001
14.155988,0.69415563,-0.7994758000000001
14.155988,0.69415563,-0.7994758000000001
14.155988,0.69415563,-0.7994758000000001
9.014449,1.3356511999999998,-0.50266445
9.014449,1.3356511999999998,-0.50266445
9.014449,1.3356511999999998,-0.50266445
9.014449,1.3356511999999998,-0.50266445
7.5495410000000005,0.43564250000000004,-1.0388398
7.5495410000000005,0.43564250000000004,-1.0388398
7.5495410000000005,0.43564250000000004,-1.0388398
9.608071,-1.6037389,-1.0867126
9.608071,-1.6037389,-1.0867126
9.608071,-1.6037389,-1.0867126
9.608071,-1.6037389,-1.0867126
8.985725,-0.11968201,0.8952214
8.985725,-0.11968201,0.8952214
8.985725,-0.11968201,0.8952214
8.985725,-0.11968201,0.8952214
8.459125,0.0,2.2835326
8.459125,0.0,2.2835326
8.459125,0.0,2.2835326
8.459125,0.0,2.2835326
10.335738000000001,-1.3930986,0.83777404
10.335738000000001,-1.3930986,0.83777404
10.335738000000001,-1.3930986,0.83777404
10.335738000000001,-1.3930986,0.83777404
14.673014000000002,-2.5994933,0.03351096
14.673014000000002,-2.5994933,0.03351096
14.673014000000002,-2.5994933,0.03351096
14.673014000000002,-2.5994933,0.03351096
13.409172,-2.8292825,0.8186249
13.409172,-2.8292825,0.8186249
13.409172,-2.8292825,0.8186249
13.409172,-2.8292825,0.8186249
8.679339,-1.8814011999999998,0.6558574
8.679339,-1.8814011999999998,0.6558574
8.679339,-1.8814011999999998,0.6558574
8.679339,-1.8814011999999998,0.6558574
8.181462,-1.6516117,-0.30159867
8.181462,-1.6516117,-0.30159867
8.181462,-1.6516117,-0.30159867
8.181462,-1.6516117,-0.30159867
8.181462,-1.6516117,-0.30159867
8.047417999999999,-1.8239537000000001,-0.751603
8.047417999999999,-1.8239537000000001,-0.751603
8.047417999999999,-1.8239537000000001,-0.751603
7.7123084,-1.3452256999999999,-0.6558574
7.7123084,-1.3452256999999999,-0.6558574
7.7123084,-1.3452256999999999,-0.6558574
7.7123084,-1.3452256999999999,-0.6558574
9.483603,-1.4792696,-0.8664976999999999
9.483603,-1.4792696,-0.8664976999999999
9.483603,-1.4792696,-0.8664976999999999
9.483603,-1.4792696,-0.8664976999999999
9.483603,-1.4792696,-0.8664976999999999
13.591088000000001,-0.43564250000000004,-0.93351966
13.591088000000001,-0.43564250000000004,-0.93351966
13.591088000000001,-0.43564250000000004,-0.93351966
13.954922,1.1728836,-0.27287498
13.954922,1.1728836,-0.27287498
13.954922,1.1728836,-0.27287498
13.954922,1.1728836,-0.27287498
7.616563,0.64628285,-0.6558574
7.616563,0.64628285,-0.6558574
7.616563,0.64628285,-0.6558574
7.616563,0.64628285,-0.6558574
9.263388,-0.7994758000000001,-1.6516117
9.263388,-0.7994758000000001,-1.6516117
9.263388,-0.7994758000000001,-1.6516117
9.263388,-0.7994758000000001,-1.6516117
9.636795,-1.9962958,-0.9622433000000001
9.636795,-1.9962958,-0.9622433000000001
9.636795,-1.9962958,-0.9622433000000001
9.636795,-1.9962958,-0.9622433000000001
8.066567,-0.36862057,1.6803354
8.066567,-0.36862057,1.6803354
8.066567,-0.36862057,1.6803354
8.066567,-0.36862057,1.6803354
7.4250717,-0.54096264,1.9962958
7.4250717,-0.54096264,1.9962958
7.4250717,-0.54096264,1.9962958
7.4250717,-0.54096264,1.9962958
12.643207,-1.2303311000000001,0.9430941999999999
12.643207,-1.2303311000000001,0.9430941999999999
12.643207,-1.2303311000000001,0.9430941999999999
12.643207,-1.2303311000000001,0.9430941999999999
15.142167,-1.5941644,1.0196906
15.142167,-1.5941644,1.0196906
15.142167,-1.5941644,1.0196906
15.142167,-1.5941644,1.0196906
11.944264,-1.6899098999999997,1.2590546999999999
11.944264,-1.6899098999999997,1.2590546999999999
11.944264,-1.6899098999999997,1.2590546999999999
11.944264,-1.6899098999999997,1.2590546999999999
8.401677000000001,-1.9867213,-0.062234644000000006
8.401677000000001,-1.9867213,-0.062234644000000006
8.401677000000001,-1.9867213,-0.062234644000000006
8.487848,-1.862252,-0.47394073
8.487848,-1.862252,-0.47394073
8.487848,-1.862252,-0.47394073
8.487848,-1.862252,-0.47394073
8.487848,-1.862252,-0.47394073
7.922949000000001,-1.5845897,-0.6750065
7.922949000000001,-1.5845897,-0.6750065
7.922949000000001,-1.5845897,-0.6750065
7.6069884000000005,-1.1537346000000002,-0.71330476
7.6069884000000005,-1.1537346000000002,-0.71330476
7.6069884000000005,-1.1537346000000002,-0.71330476
7.6069884000000005,-1.1537346000000002,-0.71330476
9.033598,-1.4984187,-1.5750152
9.033598,-1.4984187,-1.5750152
9.033598,-1.4984187,-1.5750152
9.033598,-1.4984187,-1.5750152
9.033598,-1.4984187,-1.5750152
14.146413,-0.8664976999999999,-1.8048046999999998
14.146413,-0.8664976999999999,-1.8048046999999998
14.146413,-0.8664976999999999,-1.8048046999999998
13.658110999999998,0.48351530000000004,-0.22500217
13.658110999999998,0.48351530000000004,-0.22500217
13.658110999999998,0.48351530000000004,-0.22500217
13.658110999999998,0.48351530000000004,-0.22500217
7.4729443,1.1537346000000002,-0.00478728
7.4729443,1.1537346000000002,-0.00478728
7.4729443,1.1537346000000002,-0.00478728
7.4729443,1.1537346000000002,-0.00478728
7.4729443,1.1537346000000002,-0.00478728
10.029352000000001,-0.6079846,-0.85692316
10.029352000000001,-0.6079846,-0.85692316
10.029352000000001,-0.6079846,-0.85692316
10.029352000000001,-0.6079846,-0.85692316
9.483603,-1.469695,-0.56968635
9.483603,-1.469695,-0.56968635
9.483603,-1.469695,-0.56968635
7.4442205,-0.512239,1.2303311000000001
7.4442205,-0.512239,1.2303311000000001
7.4442205,-0.512239,1.2303311000000001
7.4442205,-0.512239,1.2303311000000001
7.4442205,-0.512239,1.2303311000000001
7.721883,-1.0484143,1.2303311000000001
7.721883,-1.0484143,1.2303311000000001
7.721883,-1.0484143,1.2303311000000001
7.721883,-1.0484143,1.2303311000000001
12.35597,-1.2590546999999999,0.63670826
12.35597,-1.2590546999999999,0.63670826
12.35597,-1.2590546999999999,0.63670826
15.793238,-2.1111906000000005,0.18670394
15.793238,-2.1111906000000005,0.18670394
15.793238,-2.1111906000000005,0.18670394
15.793238,-2.1111906000000005,0.18670394
15.793238,-2.1111906000000005,0.18670394
12.442142,-2.1973617,0.3398969
12.442142,-2.1973617,0.3398969
12.442142,-2.1973617,0.3398969
12.442142,-2.1973617,0.3398969
7.731457700000001,-2.1590632999999997,0.3111732
7.731457700000001,-2.1590632999999997,0.3111732
7.731457700000001,-2.1590632999999997,0.3111732
8.612317,-1.7282081999999999,-0.23457673
8.612317,-1.7282081999999999,-0.23457673
8.612317,-1.7282081999999999,-0.23457673
8.612317,-1.7282081999999999,-0.23457673
8.612317,-1.7282081999999999,-0.23457673
7.7984796,-1.2016073,-0.512239
7.7984796,-1.2016073,-0.512239
7.7984796,-1.2016073,-0.512239
7.7984796,-1.2016073,-0.512239
7.635712,-0.78990126,-0.54096264
7.635712,-0.78990126,-0.54096264
7.635712,-0.78990126,-0.54096264
7.635712,-0.78990126,-0.54096264
8.430401,-1.3069274,-1.3930986
8.430401,-1.3069274,-1.3930986
8.430401,-1.3069274,-1.3930986
8.430401,-1.3069274,-1.3930986
11.685751,-1.6899098999999997,-1.1824582000000001
11.685751,-1.6899098999999997,-1.1824582000000001
11.685751,-1.6899098999999997,-1.1824582000000001
11.685751,-1.6899098999999997,-1.1824582000000001
15.458128,-1.2111819,-0.512239
15.458128,-1.2111819,-0.512239
15.458128,-1.2111819,-0.512239
15.458128,-1.2111819,-0.512239
10.919786,0.4164934,0.2441513
10.919786,0.4164934,0.2441513
10.919786,0.4164934,0.2441513
7.396348,-0.7228793,0.11968201
7.396348,-0.7228793,0.11968201
7.396348,-0.7228793,0.11968201
7.396348,-0.7228793,0.11968201
7.396348,-0.7228793,0.11968201
9.502751,-2.7048132000000003,-1.1824582000000001
9.502751,-2.7048132000000003,-1.1824582000000001
9.502751,-2.7048132000000003,-1.1824582000000001
8.842107,-1.6037389,0.27287498
8.842107,-1.6037389,0.27287498
8.842107,-1.6037389,0.27287498
8.842107,-1.6037389,0.27287498
6.9942164,-1.0771381000000002,1.776081
6.9942164,-1.0771381000000002,1.776081
6.9942164,-1.0771381000000002,1.776081
6.9942164,-1.0771381000000002,1.776081
8.037844,-1.6994845,1.1824582000000001
8.037844,-1.6994845,1.1824582000000001
8.037844,-1.6994845,1.1824582000000001
8.037844,-1.6994845,1.1824582000000001
12.231501,-1.8526775000000002,1.2016073
12.231501,-1.8526775000000002,1.2016073
12.231501,-1.8526775000000002,1.2016073
15.333657999999998,-2.0633178,0.83777404
15.333657999999998,-2.0633178,0.83777404
15.333657999999998,-2.0633178,0.83777404
15.333657999999998,-2.0633178,0.83777404
14.443225,-2.3314054,-0.110107444
14.443225,-2.3314054,-0.110107444
14.443225,-2.3314054,-0.110107444
14.443225,-2.3314054,-0.110107444
8.296356,-2.6090677,-0.16755481
8.296356,-2.6090677,-0.16755481
8.296356,-2.6090677,-0.16755481
8.296356,-2.6090677,-0.16755481
9.550624000000001,-0.7420284,-0.45479164
9.550624000000001,-0.7420284,-0.45479164
9.550624000000001,-0.7420284,-0.45479164
9.550624000000001,-0.7420284,-0.45479164
8.918703,-1.14416,-0.77075213
8.918703,-1.14416,-0.77075213
8.918703,-1.14416,-0.77075213
8.918703,-1.14416,-0.77075213
7.3389006,-1.2207563999999997,-0.8952214
7.3389006,-1.2207563999999997,-0.8952214
7.3389006,-1.2207563999999997,-0.8952214
7.3389006,-1.2207563999999997,-0.8952214
5.979312999999999,-1.8048046999999998,-1.2111819
5.979312999999999,-1.8048046999999998,-1.2111819
5.979312999999999,-1.8048046999999998,-1.2111819
5.979312999999999,-1.8048046999999998,-1.2111819
5.979312999999999,-1.8048046999999998,-1.2111819
8.401677000000001,-0.9718179,-1.1345854
8.401677000000001,-0.9718179,-1.1345854
8.401677000000001,-0.9718179,-1.1345854
12.940019,-0.5792609000000001,-0.5792609000000001
12.940019,-0.5792609000000001,-0.5792609000000001
12.940019,-0.5792609000000001,-0.5792609000000001
12.940019,-0.5792609000000001,-0.5792609000000001
15.352808,-1.1537346000000002,-0.14840569
15.352808,-1.1537346000000002,-0.14840569
15.352808,-1.1537346000000002,-0.14840569
15.352808,-1.1537346000000002,-0.14840569
11.925115,-1.8909756999999998,0.26330042
11.925115,-1.8909756999999998,0.26330042
11.925115,-1.8909756999999998,0.26330042
11.925115,-1.8909756999999998,0.26330042
8.286782,-1.3930986,1.2111819
8.286782,-1.3930986,1.2111819
8.286782,-1.3930986,1.2111819
8.286782,-1.3930986,1.2111819
10.421909,-0.6271336999999999,1.2973529
10.421909,-0.6271336999999999,1.2973529
10.421909,-0.6271336999999999,1.2973529
10.421909,-0.6271336999999999,1.2973529
9.18679,-0.42606795,1.3260766000000002
9.18679,-0.42606795,1.3260766000000002
9.18679,-0.42606795,1.3260766000000002
7.310177,-1.2303311000000001,0.93351966
7.310177,-1.2303311000000001,0.93351966
7.310177,-1.2303311000000001,0.93351966
7.310177,-1.2303311000000001,0.93351966
6.620808599999999,-1.6037389,0.5505372
6.620808599999999,-1.6037389,0.5505372
6.620808599999999,-1.6037389,0.5505372
6.620808599999999,-1.6037389,0.5505372
9.426155,-1.0675635,0.751603
9.426155,-1.0675635,0.751603
9.426155,-1.0675635,0.751603
9.426155,-1.0675635,0.751603
13.169807,-0.8664976999999999,0.8281995000000001
13.169807,-0.8664976999999999,0.8281995000000001
13.169807,-0.8664976999999999,0.8281995000000001
13.169807,-0.8664976999999999,0.8281995000000001
12.8538475,-1.14416,0.92394507
12.8538475,-1.14416,0.92394507
12.8538475,-1.14416,0.92394507
12.8538475,-1.14416,0.92394507
10.412334,-2.168638,0.9718179
10.412334,-2.168638,0.9718179
10.412334,-2.168638,0.9718179
10.412334,-2.168638,0.9718179
10.105948,-2.3122563,-0.2441513
10.105948,-2.3122563,-0.2441513
10.105948,-2.3122563,-0.2441513
10.105948,-2.3122563,-0.2441513
9.952755999999999,-1.9005502,-1.0484143
9.952755999999999,-1.9005502,-1.0484143
9.952755999999999,-1.9005502,-1.0484143
9.952755999999999,-1.9005502,-1.0484143
9.435728999999998,-2.0537431,-2.1399142999999996
9.435728999999998,-2.0537431,-2.1399142999999996
9.435728999999998,-2.0537431,-2.1399142999999996
9.435728999999998,-2.0537431,-2.1399142999999996
8.210186,-2.2452345,-2.7718353
8.210186,-2.2452345,-2.7718353
8.210186,-2.2452345,-2.7718353
8.210186,-2.2452345,-2.7718353
7.8176284,-1.9579976000000003,-2.972901
7.8176284,-1.9579976000000003,-2.972901
7.8176284,-1.9579976000000003,-2.972901
7.8176284,-1.9579976000000003,-2.972901
8.21976,-1.4792696,-2.1590632999999997
8.21976,-1.4792696,-2.1590632999999997
8.21976,-1.4792696,-2.1590632999999997
8.21976,-1.4792696,-2.1590632999999997
8.870830999999999,-1.5367169,-1.4218222
8.870830999999999,-1.5367169,-1.4218222
8.870830999999999,-1.5367169,-1.4218222
8.870830999999999,-1.5367169,-1.4218222
9.684667999999999,-1.7377827000000001,-0.6750065
9.684667999999999,-1.7377827000000001,-0.6750065
9.684667999999999,-1.7377827000000001,-0.6750065
11.800646,-1.4218222,-0.45479164
11.800646,-1.4218222,-0.45479164
11.800646,-1.4218222,-0.45479164
11.800646,-1.4218222,-0.45479164
11.800646,-1.4218222,-0.45479164
11.7336235,-1.6611862000000002,0.081383765
11.7336235,-1.6611862000000002,0.081383765
11.7336235,-1.6611862000000002,0.081383765
11.7336235,-1.6611862000000002,0.081383765
9.5889225,-2.168638,0.18670394
9.5889225,-2.168638,0.18670394
9.5889225,-2.168638,0.18670394
11.235746,-2.3505547000000004,-0.59841
11.235746,-2.3505547000000004,-0.59841
11.235746,-2.3505547000000004,-0.59841
11.235746,-2.3505547000000004,-0.59841
11.235746,-2.3505547000000004,-0.59841
9.225089,-1.1345854,0.34947145
9.225089,-1.1345854,0.34947145
9.225089,-1.1345854,0.34947145
9.225089,-1.1345854,0.34947145
7.587839,-1.2111819,0.5218136
7.587839,-1.2111819,0.5218136
7.587839,-1.2111819,0.5218136
7.587839,-1.2111819,0.5218136
8.229335,-1.9675721999999998,-0.15798025
8.229335,-1.9675721999999998,-0.15798025
8.229335,-1.9675721999999998,-0.15798025
8.229335,-1.9675721999999998,-0.15798025
10.144247,-1.7569318999999999,0.34947145
10.144247,-1.7569318999999999,0.34947145
10.144247,-1.7569318999999999,0.34947145
10.144247,-1.7569318999999999,0.34947145
12.892146,-2.1207652,-0.081383765
12.892146,-2.1207652,-0.081383765
12.892146,-2.1207652,-0.081383765
12.892146,-2.1207652,-0.081383765
11.944264,-2.666515,-0.56011176
11.944264,-2.666515,-0.56011176
11.944264,-2.666515,-0.56011176
11.944264,-2.666515,-0.56011176
11.293194,-2.0728923999999997,-1.9388485
11.293194,-2.0728923999999997,-1.9388485
11.293194,-2.0728923999999997,-1.9388485
11.293194,-2.0728923999999997,-1.9388485
8.372953,-2.408002,-1.9196993000000002
8.372953,-2.408002,-1.9196993000000002
8.372953,-2.408002,-1.9196993000000002
8.372953,-2.408002,-1.9196993000000002
7.1474094,-1.2111819,-0.98139244
7.1474094,-1.2111819,-0.98139244
7.1474094,-1.2111819,-0.98139244
7.1474094,-1.2111819,-0.98139244
7.1474094,-1.2111819,-0.98139244
9.512326,-1.7665064,-1.6420371999999999
9.512326,-1.7665064,-1.6420371999999999
9.512326,-1.7665064,-1.6420371999999999
11.829369999999999,-1.8526775000000002,-1.5941644
11.829369999999999,-1.8526775000000002,-1.5941644
11.829369999999999,-1.8526775000000002,-1.5941644
11.829369999999999,-1.8526775000000002,-1.5941644
13.734707,0.09095833,-0.6079846
13.734707,0.09095833,-0.6079846
13.734707,0.09095833,-0.6079846
13.734707,0.09095833,-0.6079846
13.734707,0.09095833,-0.6079846
14.921952,0.8090504,-1.0579889
14.921952,0.8090504,-1.0579889
14.921952,0.8090504,-1.0579889
8.966576,0.6845810999999999,-0.2920241
8.966576,0.6845810999999999,-0.2920241
8.966576,0.6845810999999999,-0.2920241
8.966576,0.6845810999999999,-0.2920241
9.464453,0.59841,-0.71330476
9.464453,0.59841,-0.71330476
9.464453,0.59841,-0.71330476
9.464453,0.59841,-0.71330476
9.464453,0.59841,-0.71330476
9.818711,0.4164934,-0.19627848
9.818711,0.4164934,-0.19627848
9.818711,0.4164934,-0.19627848
6.7548523000000005,-0.12925656,0.83777404
6.7548523000000005,-0.12925656,0.83777404
6.7548523000000005,-0.12925656,0.83777404
6.7548523000000005,-0.12925656,0.83777404
7.089962,-0.93351966,0.61755913
7.089962,-0.93351966,0.61755913
7.089962,-0.93351966,0.61755913
7.089962,-0.93351966,0.61755913
10.259142,-1.0962871,0.46436617
10.259142,-1.0962871,0.46436617
10.259142,-1.0962871,0.46436617
10.259142,-1.0962871,0.46436617
10.259142,-1.0962871,0.46436617
13.782579,-1.0388398,0.7228793
13.782579,-1.0388398,0.7228793
13.782579,-1.0388398,0.7228793
14.634716000000001,-1.3452256999999999,0.5218136
14.634716000000001,-1.3452256999999999,0.5218136
14.634716000000001,-1.3452256999999999,0.5218136
14.634716000000001,-1.3452256999999999,0.5218136
10.153821,-2.2260852000000004,0.23457673
10.153821,-2.2260852000000004,0.23457673
10.153821,-2.2260852000000004,0.23457673
10.153821,-2.2260852000000004,0.23457673
10.153821,-2.2260852000000004,0.23457673
8.506997,-1.2973529,-0.5505372
8.506997,-1.2973529,-0.5505372
8.506997,-1.2973529,-0.5505372
8.621891999999999,-1.2303311000000001,-1.2590546999999999
8.621891999999999,-1.2303311000000001,-1.2590546999999999
8.621891999999999,-1.2303311000000001,-1.2590546999999999
8.621891999999999,-1.2303311000000001,-1.2590546999999999
8.104865,-1.2399056,-0.90479594
8.104865,-1.2399056,-0.90479594
8.104865,-1.2399056,-0.90479594
8.104865,-1.2399056,-0.90479594
8.104865,-1.2399056,-0.90479594
7.080387599999999,-1.5271424,-0.751603
7.080387599999999,-1.5271424,-0.751603
7.080387599999999,-1.5271424,-0.751603
7.080387599999999,-1.5271424,-0.751603
9.091045,-1.5462915000000002,-1.6611862000000002
9.091045,-1.5462915000000002,-1.6611862000000002
9.091045,-1.5462915000000002,-1.6611862000000002
13.581514000000002,0.062234644000000006,-1.0579889
13.581514000000002,0.062234644000000006,-1.0579889
13.581514000000002,0.062234644000000006,-1.0579889
13.581514000000002,0.062234644000000006,-1.0579889
13.581514000000002,0.062234644000000006,-1.0579889
14.921952,0.2441513,-0.46436617
14.921952,0.2441513,-0.46436617
14.921952,0.2441513,-0.46436617
14.921952,0.2441513,-0.46436617
9.263388,-0.64628285,0.36862057
9.263388,-0.64628285,0.36862057
9.263388,-0.64628285,0.36862057
9.024023,-0.6845810999999999,0.30159867
9.024023,-0.6845810999999999,0.30159867
9.024023,-0.6845810999999999,0.30159867
9.024023,-0.6845810999999999,0.30159867
9.024023,-0.6845810999999999,0.30159867
10.029352000000001,-1.0867126,0.6271336999999999
10.029352000000001,-1.0867126,0.6271336999999999
10.029352000000001,-1.0867126,0.6271336999999999
10.029352000000001,-1.0867126,0.6271336999999999
7.070812700000001,-0.99096704,1.6324625
7.070812700000001,-0.99096704,1.6324625
7.070812700000001,-0.99096704,1.6324625
7.2335806,-1.5271424,1.0771381000000002
7.2335806,-1.5271424,1.0771381000000002
7.2335806,-1.5271424,1.0771381000000002
7.2335806,-1.5271424,1.0771381000000002
7.2335806,-1.5271424,1.0771381000000002
11.149575,-1.3643749,0.50266445
11.149575,-1.3643749,0.50266445
11.149575,-1.3643749,0.50266445
11.149575,-1.3643749,0.50266445
14.950676000000001,-1.5941644,0.2441513
14.950676000000001,-1.5941644,0.2441513
14.950676000000001,-1.5941644,0.2441513
14.950676000000001,-1.5941644,0.2441513
12.777251,-1.8239537000000001,0.37819514
12.777251,-1.8239537000000001,0.37819514
12.777251,-1.8239537000000001,0.37819514
12.777251,-1.8239537000000001,0.37819514
8.526146,-2.0441686999999997,0.014361841
8.526146,-2.0441686999999997,0.014361841
8.526146,-2.0441686999999997,0.014361841
8.526146,-2.0441686999999997,0.014361841
8.401677000000001,-1.8143792,-0.22500217
8.401677000000001,-1.8143792,-0.22500217
8.401677000000001,-1.8143792,-0.22500217
8.401677000000001,-1.8143792,-0.22500217
8.210186,-1.4984187,-0.359046
8.210186,-1.4984187,-0.359046
8.210186,-1.4984187,-0.359046
8.210186,-1.4984187,-0.359046
8.095291,-1.0867126,-0.043085523
8.095291,-1.0867126,-0.043085523
8.095291,-1.0867126,-0.043085523
8.095291,-1.0867126,-0.043085523
9.263388,-1.1920328000000002,-0.36862057
9.263388,-1.1920328000000002,-0.36862057
9.263388,-1.1920328000000002,-0.36862057
9.263388,-1.1920328000000002,-0.36862057
13.409172,-0.9718179,-0.48351530000000004
13.409172,-0.9718179,-0.48351530000000004
13.409172,-0.9718179,-0.48351530000000004
13.409172,-0.9718179,-0.48351530000000004
14.577269,0.34947145,-0.3877697
14.577269,0.34947145,-0.3877697
14.577269,0.34947145,-0.3877697
14.577269,0.34947145,-0.3877697
7.9325233,0.9718179,-0.63670826
7.9325233,0.9718179,-0.63670826
7.9325233,0.9718179,-0.63670826
7.9325233,0.9718179,-0.63670826
7.693159,-0.92394507,-1.1058618
7.693159,-0.92394507,-1.1058618
7.693159,-0.92394507,-1.1058618
7.693159,-0.92394507,-1.1058618
9.98148,-1.7186337,-0.8760723
9.98148,-1.7186337,-0.8760723
9.98148,-1.7186337,-0.8760723
9.98148,-1.7186337,-0.8760723
8.296356,-0.61755913,1.3356511999999998
8.296356,-0.61755913,1.3356511999999998
8.296356,-0.61755913,1.3356511999999998
8.296356,-0.61755913,1.3356511999999998
7.0995364,-0.6845810999999999,2.0920415
7.0995364,-0.6845810999999999,2.0920415
7.0995364,-0.6845810999999999,2.0920415
7.0995364,-0.6845810999999999,2.0920415
11.743198,-1.5941644,0.90479594
11.743198,-1.5941644,0.90479594
11.743198,-1.5941644,0.90479594
11.743198,-1.5941644,0.90479594
14.950676000000001,-2.513322,0.4164934
14.950676000000001,-2.513322,0.4164934
14.950676000000001,-2.513322,0.4164934
14.950676000000001,-2.513322,0.4164934
12.662355999999999,-2.513322,0.8473485999999999
12.662355999999999,-2.513322,0.8473485999999999
12.662355999999999,-2.513322,0.8473485999999999
12.662355999999999,-2.513322,0.8473485999999999
8.736787,-2.2739582,0.15798025
8.736787,-2.2739582,0.15798025
8.736787,-2.2739582,0.15798025
8.736787,-2.2739582,0.15798025
8.641041,-1.1250108,-0.062234644000000006
8.641041,-1.1250108,-0.062234644000000006
8.641041,-1.1250108,-0.062234644000000006
8.641041,-1.1250108,-0.062234644000000006
7.922949000000001,-1.2303311000000001,-0.3398969
7.922949000000001,-1.2303311000000001,-0.3398969
7.922949000000001,-1.2303311000000001,-0.3398969
7.4442205,-1.2207563999999997,-0.64628285
7.4442205,-1.2207563999999997,-0.64628285
7.4442205,-1.2207563999999997,-0.64628285
7.4442205,-1.2207563999999997,-0.64628285
7.4442205,-1.2207563999999997,-0.64628285
8.976150500000001,-1.6707608,-1.4026731000000001
8.976150500000001,-1.6707608,-1.4026731000000001
8.976150500000001,-1.6707608,-1.4026731000000001
8.976150500000001,-1.6707608,-1.4026731000000001
13.064487,-1.4792696,-1.2782038
13.064487,-1.4792696,-1.2782038
13.064487,-1.4792696,-1.2782038
13.064487,-1.4792696,-1.2782038
15.027272,0.3877697,-0.751603
15.027272,0.3877697,-0.751603
15.027272,0.3877697,-0.751603
15.027272,0.3877697,-0.751603
8.870830999999999,0.9718179,-0.32074776
8.870830999999999,0.9718179,-0.32074776
8.870830999999999,0.9718179,-0.32074776
8.870830999999999,0.9718179,-0.32074776
8.899554,-0.17712937,-0.63670826
8.899554,-0.17712937,-0.63670826
8.899554,-0.17712937,-0.63670826
8.899554,-0.17712937,-0.63670826
9.847435,-1.2877783999999999,-0.48351530000000004
9.847435,-1.2877783999999999,-0.48351530000000004
9.847435,-1.2877783999999999,-0.48351530000000004
9.847435,-1.2877783999999999,-0.48351530000000004
7.865501400000001,-0.77075213,1.1824582000000001
7.865501400000001,-0.77075213,1.1824582000000001
7.865501400000001,-0.77075213,1.1824582000000001
7.865501400000001,-0.77075213,1.1824582000000001
6.323997,-1.0101161,1.3548003
6.323997,-1.0101161,1.3548003
6.323997,-1.0101161,1.3548003
6.323997,-1.0101161,1.3548003
10.249566999999999,-1.5654407,0.36862057
10.249566999999999,-1.5654407,0.36862057
10.249566999999999,-1.5654407,0.36862057
10.249566999999999,-1.5654407,0.36862057
15.247487,-2.0058703,-0.11968201
15.247487,-2.0058703,-0.11968201
15.247487,-2.0058703,-0.11968201
15.247487,-2.0058703,-0.11968201
13.246405,-1.7856555,0.28244954
13.246405,-1.7856555,0.28244954
13.246405,-1.7856555,0.28244954
13.246405,-1.7856555,0.28244954
8.842107,-1.0771381000000002,-0.05266008
8.842107,-1.0771381000000002,-0.05266008
8.842107,-1.0771381000000002,-0.05266008
8.842107,-1.0771381000000002,-0.05266008
8.842107,-1.0771381000000002,-0.05266008
9.062322,-0.56968635,-0.50266445
9.062322,-0.56968635,-0.50266445
9.062322,-0.56968635,-0.50266445
8.851681,-0.46436617,-1.2111819
8.851681,-0.46436617,-1.2111819
8.851681,-0.46436617,-1.2111819
8.851681,-0.46436617,-1.2111819
7.281453,-0.081383765,-0.8186249
7.281453,-0.081383765,-0.8186249
7.281453,-0.081383765,-0.8186249
7.281453,-0.081383765,-0.8186249
7.281453,-0.081383765,-0.8186249
8.2676325,-0.023936402000000002,-1.3165021000000001
8.2676325,-0.023936402000000002,-1.3165021000000001
8.2676325,-0.023936402000000002,-1.3165021000000001
12.997466000000001,-0.19627848,-1.6133133999999998
12.997466000000001,-0.19627848,-1.6133133999999998
12.997466000000001,-0.19627848,-1.6133133999999998
12.997466000000001,-0.19627848,-1.6133133999999998
15.151742,0.56968635,-1.1537346000000002
15.151742,0.56968635,-1.1537346000000002
15.151742,0.56968635,-1.1537346000000002
15.151742,0.56968635,-1.1537346000000002
9.732541000000001,0.90479594,-0.8664976999999999
9.732541000000001,0.90479594,-0.8664976999999999
9.732541000000001,0.90479594,-0.8664976999999999
9.732541000000001,0.90479594,-0.8664976999999999
9.732541000000001,0.90479594,-0.8664976999999999
8.708063000000001,0.062234644000000006,-1.1728836
8.708063000000001,0.062234644000000006,-1.1728836
8.708063000000001,0.062234644000000006,-1.1728836
9.397431,-0.49308985,-0.6558574
9.397431,-0.49308985,-0.6558574
9.397431,-0.49308985,-0.6558574
9.397431,-0.49308985,-0.6558574
8.028269,-0.6079846,0.8952214
8.028269,-0.6079846,0.8952214
8.028269,-0.6079846,0.8952214
8.028269,-0.6079846,0.8952214
8.028269,-0.6079846,0.8952214
6.47719,-0.78990126,1.4218222
6.47719,-0.78990126,1.4218222
6.47719,-0.78990126,1.4218222
9.148492999999998,-0.93351966,1.2686293
9.148492999999998,-0.93351966,1.2686293
9.148492999999998,-0.93351966,1.2686293
9.148492999999998,-0.93351966,1.2686293
13.188957,-1.4026731000000001,0.5505372
13.188957,-1.4026731000000001,0.5505372
13.188957,-1.4026731000000001,0.5505372
13.188957,-1.4026731000000001,0.5505372
13.188957,-1.4026731000000001,0.5505372
14.088965,-2.1973617,0.043085523
14.088965,-2.1973617,0.043085523
14.088965,-2.1973617,0.043085523
10.211267999999999,-2.8771553,-0.3398969
10.211267999999999,-2.8771553,-0.3398969
10.211267999999999,-2.8771553,-0.3398969
10.211267999999999,-2.8771553,-0.3398969
9.20594,-2.2356597999999996,-0.8473485999999999
9.20594,-2.2356597999999996,-0.8473485999999999
9.20594,-2.2356597999999996,-0.8473485999999999
9.20594,-2.2356597999999996,-0.8473485999999999
9.20594,-2.2356597999999996,-0.8473485999999999
9.531475,-1.4313968000000001,-0.8186249
9.531475,-1.4313968000000001,-0.8186249
9.531475,-1.4313968000000001,-0.8186249
9.531475,-1.4313968000000001,-0.8186249
8.889978999999999,-1.1824582000000001,-0.6079846
8.889978999999999,-1.1824582000000001,-0.6079846
8.889978999999999,-1.1824582000000001,-0.6079846
7.310177,-1.3452256999999999,-0.71330476
7.310177,-1.3452256999999999,-0.71330476
7.310177,-1.3452256999999999,-0.71330476
7.310177,-1.3452256999999999,-0.71330476
7.310177,-1.3452256999999999,-0.71330476
8.037844,-1.6420371999999999,-1.3452256999999999
8.037844,-1.6420371999999999,-1.3452256999999999
8.037844,-1.6420371999999999,-1.3452256999999999
8.037844,-1.6420371999999999,-1.3452256999999999
10.374036,-1.8048046999999998,-1.0675635
10.374036,-1.8048046999999998,-1.0675635
10.374036,-1.8048046999999998,-1.0675635
13.102786,-2.101616,-0.78032666
13.102786,-2.101616,-0.78032666
13.102786,-2.101616,-0.78032666
13.102786,-2.101616,-0.78032666
13.102786,-2.101616,-0.78032666
13.428320999999999,-2.4845984,-0.69415563
13.428320999999999,-2.4845984,-0.69415563
13.428320999999999,-2.4845984,-0.69415563
8.679339,-1.2973529,0.23457673
8.679339,-1.2973529,0.23457673
8.679339,-1.2973529,0.23457673
8.679339,-1.2973529,0.23457673
9.263388,-1.5654407,0.0
9.263388,-1.5654407,0.0
9.263388,-1.5654407,0.0
9.263388,-1.5654407,0.0
8.947427000000001,-1.7186337,-0.17712937
8.947427000000001,-1.7186337,-0.17712937
8.947427000000001,-1.7186337,-0.17712937
8.947427000000001,-1.7186337,-0.17712937
7.386773599999999,-1.3356511999999998,0.49308985
7.386773599999999,-1.3356511999999998,0.49308985
7.386773599999999,-1.3356511999999998,0.49308985
7.386773599999999,-1.3356511999999998,0.49308985
8.028269,-1.6611862000000002,-0.062234644000000006
8.028269,-1.6611862000000002,-0.062234644000000006
8.028269,-1.6611862000000002,-0.062234644000000006
8.028269,-1.6611862000000002,-0.062234644000000006
8.593167999999999,-1.8431028999999999,0.09095833
8.593167999999999,-1.8431028999999999,0.09095833
8.593167999999999,-1.8431028999999999,0.09095833
8.593167999999999,-1.8431028999999999,0.09095833
9.024023,-1.7282081999999999,0.78032666
9.024023,-1.7282081999999999,0.78032666
9.024023,-1.7282081999999999,0.78032666
9.024023,-1.7282081999999999,0.78032666
8.545295,-1.2686293,1.4505458999999998
8.545295,-1.2686293,1.4505458999999998
8.545295,-1.2686293,1.4505458999999998
8.545295,-1.2686293,1.4505458999999998
10.345312,-1.5654407,1.383524
10.345312,-1.5654407,1.383524
10.345312,-1.5654407,1.383524
10.345312,-1.5654407,1.383524
10.412334,-2.7048132000000003,1.3356511999999998
10.412334,-2.7048132000000003,1.3356511999999998
10.412334,-2.7048132000000003,1.3356511999999998
10.412334,-2.7048132000000003,1.3356511999999998
13.705982999999998,-3.193116,-0.110107444
13.705982999999998,-3.193116,-0.110107444
13.705982999999998,-3.193116,-0.110107444
13.705982999999998,-3.193116,-0.110107444
10.814466,-3.5760984,-1.6707608
10.814466,-3.5760984,-1.6707608
10.814466,-3.5760984,-1.6707608
10.814466,-3.5760984,-1.6707608
9.608071,-2.8963046,-2.1782124
9.608071,-2.8963046,-2.1782124
9.608071,-2.8963046,-2.1782124
9.608071,-2.8963046,-2.1782124
7.291027499999999,-2.2260852000000004,-0.59841
7.291027499999999,-2.2260852000000004,-0.59841
7.291027499999999,-2.2260852000000004,-0.59841
7.291027499999999,-2.2260852000000004,-0.59841
7.808053999999999,-1.5845897,-0.05266008
7.808053999999999,-1.5845897,-0.05266008
7.808053999999999,-1.5845897,-0.05266008
7.808053999999999,-1.5845897,-0.05266008
9.330409,-2.1590632999999997,-0.71330476
9.330409,-2.1590632999999997,-0.71330476
9.330409,-2.1590632999999997,-0.71330476
9.330409,-2.1590632999999997,-0.71330476
10.374036,-2.0441686999999997,-0.5888355
10.374036,-2.0441686999999997,-0.5888355
10.374036,-2.0441686999999997,-0.5888355
10.374036,-2.0441686999999997,-0.5888355
11.49426,-1.7665064,-0.90479594
11.49426,-1.7665064,-0.90479594
11.49426,-1.7665064,-0.90479594
11.49426,-1.7665064,-0.90479594
13.399597,-0.42606795,-1.0484143
13.399597,-0.42606795,-1.0484143
13.399597,-0.42606795,-1.0484143
13.399597,-0.42606795,-1.0484143
9.904882,-0.15798025,-0.28244954
9.904882,-0.15798025,-0.28244954
9.904882,-0.15798025,-0.28244954
9.904882,-0.15798025,-0.28244954
10.670848,-1.6324625,-0.98139244
10.670848,-1.6324625,-0.98139244
10.670848,-1.6324625,-0.98139244
10.670848,-1.6324625,-0.98139244
10.938935,-1.4505458999999998,-0.9718179
10.938935,-1.4505458999999998,-0.9718179
10.938935,-1.4505458999999998,-0.9718179
8.401677000000001,-0.3877697,0.64628285
8.401677000000001,-0.3877697,0.64628285
8.401677000000001,-0.3877697,0.64628285
8.401677000000001,-0.3877697,0.64628285
7.7984796,-1.1250108,0.14840569
7.7984796,-1.1250108,0.14840569
7.7984796,-1.1250108,0.14840569
7.7984796,-1.1250108,0.14840569
10.172971,-1.6899098999999997,-0.081383765
10.172971,-1.6899098999999997,-0.081383765
10.172971,-1.6899098999999997,-0.081383765
10.172971,-1.6899098999999997,-0.081383765
13.562365,-1.0101161,0.7228793
13.562365,-1.0101161,0.7228793
13.562365,-1.0101161,0.7228793
13.562365,-1.0101161,0.7228793
13.820878,-1.0867126,0.6271336999999999
13.820878,-1.0867126,0.6271336999999999
13.820878,-1.0867126,0.6271336999999999
13.820878,-1.0867126,0.6271336999999999
10.450633,-1.9292740000000002,-0.11968201
10.450633,-1.9292740000000002,-0.11968201
10.450633,-1.9292740000000002,-0.11968201
10.450633,-1.9292740000000002,-0.11968201
9.54105,-1.7856555,-1.1633091
9.54105,-1.7856555,-1.1633091
9.54105,-1.7856555,-1.1633091
8.909127999999999,-1.2973529,-1.4888442
8.909127999999999,-1.2973529,-1.4888442
8.909127999999999,-1.2973529,-1.4888442
8.909127999999999,-1.2973529,-1.4888442
7.9899707,-1.2686293,-1.0962871
7.9899707,-1.2686293,-1.0962871
7.9899707,-1.2686293,-1.0962871
7.9899707,-1.2686293,-1.0962871
10.096374,-1.1154363,-1.1824582000000001
10.096374,-1.1154363,-1.1824582000000001
10.096374,-1.1154363,-1.1824582000000001
10.096374,-1.1154363,-1.1824582000000001
12.442142,-0.2441513,-1.14416
12.442142,-0.2441513,-1.14416
12.442142,-0.2441513,-1.14416
12.442142,-0.2441513,-1.14416
12.442142,-0.2441513,-1.14416
13.437895999999999,-0.20585304,-0.6558574
13.437895999999999,-0.20585304,-0.6558574
13.437895999999999,-0.20585304,-0.6558574
9.914457,-0.2154276,-0.99096704
9.914457,-0.2154276,-0.99096704
9.914457,-0.2154276,-0.99096704
9.914457,-0.2154276,-0.99096704
8.765511,-0.7420284,-0.6079846
8.765511,-0.7420284,-0.6079846
8.765511,-0.7420284,-0.6079846
8.765511,-0.7420284,-0.6079846
8.11444,-1.2016073,-0.15798025
8.11444,-1.2016073,-0.15798025
8.11444,-1.2016073,-0.15798025
8.11444,-1.2016073,-0.15798025
6.7548523000000005,-0.5888355,1.0484143
6.7548523000000005,-0.5888355,1.0484143
6.7548523000000005,-0.5888355,1.0484143
6.7548523000000005,-0.5888355,1.0484143
7.520817299999999,-1.7856555,1.469695
7.520817299999999,-1.7856555,1.469695
7.520817299999999,-1.7856555,1.469695
7.520817299999999,-1.7856555,1.469695
11.838944,-2.561195,1.0962871
11.838944,-2.561195,1.0962871
11.838944,-2.561195,1.0962871
11.838944,-2.561195,1.0962871
15.209189000000002,-2.360129,0.9526688
15.209189000000002,-2.360129,0.9526688
15.209189000000002,-2.360129,0.9526688
15.209189000000002,-2.360129,0.9526688
13.198531,-2.2165107999999996,0.9718179
13.198531,-2.2165107999999996,0.9718179
13.198531,-2.2165107999999996,0.9718179
13.198531,-2.2165107999999996,0.9718179
9.071896,-1.6516117,0.15798025
9.071896,-1.6516117,0.15798025
9.071896,-1.6516117,0.15798025
9.071896,-1.6516117,0.15798025
8.688913000000001,-1.8431028999999999,-0.5313880999999999
8.688913000000001,-1.8431028999999999,-0.5313880999999999
8.688913000000001,-1.8431028999999999,-0.5313880999999999
8.688913000000001,-1.8431028999999999,-0.5313880999999999
8.296356,-1.3930986,-0.6079846
8.296356,-1.3930986,-0.6079846
8.296356,-1.3930986,-0.6079846
8.296356,-1.3930986,-0.6079846
7.731457700000001,-1.0101161,-0.359046
7.731457700000001,-1.0101161,-0.359046
7.731457700000001,-1.0101161,-0.359046
7.731457700000001,-1.0101161,-0.359046
9.474028,-0.9622433000000001,-0.9430941999999999
9.474028,-0.9622433000000001,-0.9430941999999999
9.474028,-0.9622433000000001,-0.9430941999999999
9.474028,-0.9622433000000001,-0.9430941999999999
13.323001000000001,-0.15798025,-1.1154363
13.323001000000001,-0.15798025,-1.1154363
13.323001000000001,-0.15798025,-1.1154363
13.323001000000001,-0.15798025,-1.1154363
13.811303,0.36862057,-0.6079846
13.811303,0.36862057,-0.6079846
13.811303,0.36862057,-0.6079846
13.811303,0.36862057,-0.6079846
8.641041,0.05266008,-0.40691882
8.641041,0.05266008,-0.40691882
8.641041,0.05266008,-0.40691882
8.641041,0.05266008,-0.40691882
8.497422,-0.7228793,-0.359046
8.497422,-0.7228793,-0.359046
8.497422,-0.7228793,-0.359046
9.129342999999999,-0.92394507,-0.13883112
9.129342999999999,-0.92394507,-0.13883112
9.129342999999999,-0.92394507,-0.13883112
9.129342999999999,-0.92394507,-0.13883112
9.129342999999999,-0.92394507,-0.13883112
7.5303917,-0.6558574,0.93351966
7.5303917,-0.6558574,0.93351966
7.5303917,-0.6558574,0.93351966
7.5303917,-0.6558574,0.93351966
7.300602400000001,-1.2686293,1.2399056
7.300602400000001,-1.2686293,1.2399056
7.300602400000001,-1.2686293,1.2399056
11.609155,-1.3643749,1.0196906
11.609155,-1.3643749,1.0196906
11.609155,-1.3643749,1.0196906
11.609155,-1.3643749,1.0196906
11.609155,-1.3643749,1.0196906
15.716641000000001,-1.9292740000000002,0.8760723
15.716641000000001,-1.9292740000000002,0.8760723
15.716641000000001,-1.9292740000000002,0.8760723
15.716641000000001,-1.9292740000000002,0.8760723
14.826207,-2.1207652,0.71330476
14.826207,-2.1207652,0.71330476
14.826207,-2.1207652,0.71330476
9.579348,-0.90479594,0.18670394
9.579348,-0.90479594,0.18670394
9.579348,-0.90479594,0.18670394
9.579348,-0.90479594,0.18670394
9.579348,-0.90479594,0.18670394
8.736787,-0.19627848,-0.081383765
8.736787,-0.19627848,-0.081383765
8.736787,-0.19627848,-0.081383765
8.736787,-0.19627848,-0.081383765
8.056992999999999,-1.1537346000000002,-0.9622433000000001
8.056992999999999,-1.1537346000000002,-0.9622433000000001
8.056992999999999,-1.1537346000000002,-0.9622433000000001
8.056992999999999,-1.1537346000000002,-0.9622433000000001
7.8846507,-0.63670826,-1.1058618
7.8846507,-0.63670826,-1.1058618
7.8846507,-0.63670826,-1.1058618
7.8846507,-0.63670826,-1.1058618
8.688913000000001,-0.6750065,-1.3643749
8.688913000000001,-0.6750065,-1.3643749
8.688913000000001,-0.6750065,-1.3643749
8.688913000000001,-0.6750065,-1.3643749
11.245321,-0.54096264,-1.5941644
11.245321,-0.54096264,-1.5941644
11.245321,-0.54096264,-1.5941644
11.245321,-0.54096264,-1.5941644
14.165563,-1.2303311000000001,-0.42606795
14.165563,-1.2303311000000001,-0.42606795
14.165563,-1.2303311000000001,-0.42606795
14.165563,-1.2303311000000001,-0.42606795
9.7899885,-2.8484317999999997,1.2782038
9.7899885,-2.8484317999999997,1.2782038
9.7899885,-2.8484317999999997,1.2782038
9.7899885,-2.8484317999999997,1.2782038
9.234664,-2.9633265,1.3930986
9.234664,-2.9633265,1.3930986
9.234664,-2.9633265,1.3930986
9.464453,-2.733537,0.8186249
9.464453,-2.733537,0.8186249
9.464453,-2.733537,0.8186249
9.464453,-2.733537,0.8186249
8.1623125,-0.76117754,1.14416
8.1623125,-0.76117754,1.14416
8.1623125,-0.76117754,1.14416
8.1623125,-0.76117754,1.14416
5.711225499999999,-0.90479594,0.751603
5.711225499999999,-0.90479594,0.751603
5.711225499999999,-0.90479594,0.751603
5.711225499999999,-0.90479594,0.751603
7.616563,-1.6994845,0.03351096
7.616563,-1.6994845,0.03351096
7.616563,-1.6994845,0.03351096
7.616563,-1.6994845,0.03351096
14.931526999999999,-4.0069537,0.7228793
14.931526999999999,-4.0069537,0.7228793
14.931526999999999,-4.0069537,0.7228793
14.931526999999999,-4.0069537,0.7228793
15.879408999999999,-3.7197167999999996,1.1537346000000002
15.879408999999999,-3.7197167999999996,1.1537346000000002
15.879408999999999,-3.7197167999999996,1.1537346000000002
15.879408999999999,-3.7197167999999996,1.1537346000000002
10.077225,-1.8718264999999998,1.1633091
10.077225,-1.8718264999999998,1.1633091
10.077225,-1.8718264999999998,1.1633091
10.077225,-1.8718264999999998,1.1633091
9.158066999999999,-0.7228793,0.110107444
9.158066999999999,-0.7228793,0.110107444
9.158066999999999,-0.7228793,0.110107444
9.158066999999999,-0.7228793,0.110107444
8.171887,-0.2920241,-0.37819514
8.171887,-0.2920241,-0.37819514
8.171887,-0.2920241,-0.37819514
8.171887,-0.2920241,-0.37819514
6.410168,-1.2782038,-1.1920328000000002
6.410168,-1.2782038,-1.1920328000000002
6.410168,-1.2782038,-1.1920328000000002
6.410168,-1.2782038,-1.1920328000000002
5.7686725,-1.7186337,-0.8281995000000001
5.7686725,-1.7186337,-0.8281995000000001
5.7686725,-1.7186337,-0.8281995000000001
5.7686725,-1.7186337,-0.8281995000000001
5.7686725,-1.7186337,-0.8281995000000001
5.7686725,-1.7186337,-0.8281995000000001
5.7686725,-1.7186337,-0.8281995000000001
13.811303,-1.7186337,-0.37819514
13.811303,-1.7186337,-0.37819514
13.811303,-1.7186337,-0.37819514
13.811303,-1.7186337,-0.37819514
15.132593,-1.9388485,0.5888355
15.132593,-1.9388485,0.5888355
15.132593,-1.9388485,0.5888355
15.132593,-1.9388485,0.5888355
10.182545,-0.7420284,1.0579889
10.182545,-0.7420284,1.0579889
10.182545,-0.7420284,1.0579889
8.545295,-0.85692316,0.3398969
8.545295,-0.85692316,0.3398969
8.545295,-0.85692316,0.3398969
8.545295,-0.85692316,0.3398969
8.545295,-0.85692316,0.3398969
8.066567,-0.4164934,-0.3877697
8.066567,-0.4164934,-0.3877697
8.066567,-0.4164934,-0.3877697
7.2623043,-0.90479594,0.48351530000000004
7.2623043,-0.90479594,0.48351530000000004
7.2623043,-0.90479594,0.48351530000000004
7.2623043,-0.90479594,0.48351530000000004
7.587839,-1.383524,0.32074776
7.587839,-1.383524,0.32074776
7.587839,-1.383524,0.32074776
7.587839,-1.383524,0.32074776
10.536804,-1.5175678999999997,0.3111732
10.536804,-1.5175678999999997,0.3111732
10.536804,-1.5175678999999997,0.3111732
10.536804,-1.5175678999999997,0.3111732
13.868751000000001,-1.5462915000000002,0.3111732
13.868751000000001,-1.5462915000000002,0.3111732
13.868751000000001,-1.5462915000000002,0.3111732
13.868751000000001,-1.5462915000000002,0.3111732
14.376203,-1.5941644,0.61755913
14.376203,-1.5941644,0.61755913
14.376203,-1.5941644,0.61755913
14.376203,-1.5941644,0.61755913
12.0400095,-1.2973529,0.91437054
12.0400095,-1.2973529,0.91437054
12.0400095,-1.2973529,0.91437054
12.0400095,-1.2973529,0.91437054
8.545295,-1.0292653,0.6079846
8.545295,-1.0292653,0.6079846
8.545295,-1.0292653,0.6079846
8.545295,-1.0292653,0.6079846
8.861256,-1.0196906,-0.6750065
8.861256,-1.0196906,-0.6750065
8.861256,-1.0196906,-0.6750065
8.602742,-1.1728836,-1.4601203999999999
8.602742,-1.1728836,-1.4601203999999999
8.602742,-1.1728836,-1.4601203999999999
8.602742,-1.1728836,-1.4601203999999999
8.602742,-1.1728836,-1.4601203999999999
7.137835000000001,-1.469695,-1.3930986
7.137835000000001,-1.469695,-1.3930986
7.137835000000001,-1.469695,-1.3930986
7.137835000000001,-1.469695,-1.3930986
8.535721,-1.383524,-1.3548003
8.535721,-1.383524,-1.3548003
8.535721,-1.383524,-1.3548003
8.535721,-1.383524,-1.3548003
12.805975,-0.91437054,-1.0579889
12.805975,-0.91437054,-1.0579889
12.805975,-0.91437054,-1.0579889
12.805975,-0.91437054,-1.0579889
14.184710999999998,-0.47394073,-0.40691882
14.184710999999998,-0.47394073,-0.40691882
14.184710999999998,-0.47394073,-0.40691882
14.184710999999998,-0.47394073,-0.40691882
9.263388,-0.09095833,-0.05266008
9.263388,-0.09095833,-0.05266008
9.263388,-0.09095833,-0.05266008
9.263388,-0.09095833,-0.05266008
9.138917999999999,-0.665432,-0.46436617
9.138917999999999,-0.665432,-0.46436617
9.138917999999999,-0.665432,-0.46436617
9.138917999999999,-0.665432,-0.46436617
9.732541000000001,-0.7994758000000001,-0.09095833
9.732541000000001,-0.7994758000000001,-0.09095833
9.732541000000001,-0.7994758000000001,-0.09095833
9.732541000000001,-0.7994758000000001,-0.09095833
8.535721,0.00478728,1.14416
8.535721,0.00478728,1.14416
8.535721,0.00478728,1.14416
6.620808599999999,-0.30159867,1.1920328000000002
6.620808599999999,-0.30159867,1.1920328000000002
6.620808599999999,-0.30159867,1.1920328000000002
6.620808599999999,-0.30159867,1.1920328000000002
7.1186857,-1.0196906,1.0101161
7.1186857,-1.0196906,1.0101161
7.1186857,-1.0196906,1.0101161
7.1186857,-1.0196906,1.0101161
7.1186857,-1.0196906,1.0101161
10.517653999999999,-0.8473485999999999,1.0579889
10.517653999999999,-0.8473485999999999,1.0579889
10.517653999999999,-0.8473485999999999,1.0579889
13.849601999999999,-0.6558574,1.3356511999999998
13.849601999999999,-0.6558574,1.3356511999999998
13.849601999999999,-0.6558574,1.3356511999999998
13.849601999999999,-0.6558574,1.3356511999999998
13.849601999999999,-0.6558574,1.3356511999999998
14.452798999999999,-1.3548003,0.7420284
14.452798999999999,-1.3548003,0.7420284
14.452798999999999,-1.3548003,0.7420284
11.05383,-2.8484317999999997,0.44521707
11.05383,-2.8484317999999997,0.44521707
11.05383,-2.8484317999999997,0.44521707
11.05383,-2.8484317999999997,0.44521707
10.038927000000001,-2.3314054,-0.48351530000000004
10.038927000000001,-2.3314054,-0.48351530000000004
10.038927000000001,-2.3314054,-0.48351530000000004
10.038927000000001,-2.3314054,-0.48351530000000004
10.019777000000001,-1.1920328000000002,-1.2016073
10.019777000000001,-1.1920328000000002,-1.2016073
10.019777000000001,-1.1920328000000002,-1.2016073
10.019777000000001,-1.1920328000000002,-1.2016073
8.889978999999999,-1.0867126,-1.9962958
8.889978999999999,-1.0867126,-1.9962958
8.889978999999999,-1.0867126,-1.9962958
8.889978999999999,-1.0867126,-1.9962958
7.1186857,-2.0824668,-2.7909843999999997
7.1186857,-2.0824668,-2.7909843999999997
7.1186857,-2.0824668,-2.7909843999999997
7.1186857,-2.0824668,-2.7909843999999997
7.319751299999999,-1.6324625,-2.867581
7.319751299999999,-1.6324625,-2.867581
7.319751299999999,-1.6324625,-2.867581
7.319751299999999,-1.6324625,-2.867581
8.966576,-1.3930986,-2.666515
8.966576,-1.3930986,-2.666515
8.966576,-1.3930986,-2.666515
8.966576,-1.3930986,-2.666515
10.029352000000001,-0.77075213,-1.1058618
10.029352000000001,-0.77075213,-1.1058618
10.029352000000001,-0.77075213,-1.1058618
10.029352000000001,-0.77075213,-1.1058618
13.648535999999998,0.25372586,-0.751603
13.648535999999998,0.25372586,-0.751603
13.648535999999998,0.25372586,-0.751603
13.648535999999998,0.25372586,-0.751603
10.804892,-0.77075213,-0.19627848
10.804892,-0.77075213,-0.19627848
10.804892,-0.77075213,-0.19627848
10.804892,-0.77075213,-0.19627848
8.621891999999999,-1.4984187,0.44521707
8.621891999999999,-1.4984187,0.44521707
8.621891999999999,-1.4984187,0.44521707
8.621891999999999,-1.4984187,0.44521707
10.594251,-2.34098,-0.9526688
10.594251,-2.34098,-0.9526688
10.594251,-2.34098,-0.9526688
10.594251,-2.34098,-0.9526688
8.382527,-0.25372586,1.3165021000000001
8.382527,-0.25372586,1.3165021000000001
8.382527,-0.25372586,1.3165021000000001
8.382527,-0.25372586,1.3165021000000001
7.35805,-0.56011176,2.1399142999999996
7.35805,-0.56011176,2.1399142999999996
7.35805,-0.56011176,2.1399142999999996
7.35805,-0.56011176,2.1399142999999996
9.292110000000001,-1.9771467,1.0388398
9.292110000000001,-1.9771467,1.0388398
9.292110000000001,-1.9771467,1.0388398
9.292110000000001,-1.9771467,1.0388398
11.570856,-2.1303396,1.0484143
11.570856,-2.1303396,1.0484143
11.570856,-2.1303396,1.0484143
11.570856,-2.1303396,1.0484143
12.087883,-2.3697037999999995,0.61755913
12.087883,-2.3697037999999995,0.61755913
12.087883,-2.3697037999999995,0.61755913
12.087883,-2.3697037999999995,0.61755913
11.838944,-2.714388,0.0718092
11.838944,-2.714388,0.0718092
11.838944,-2.714388,0.0718092
11.838944,-2.714388,0.0718092
10.450633,-2.6760897999999997,-1.6133133999999998
10.450633,-2.6760897999999997,-1.6133133999999998
10.450633,-2.6760897999999997,-1.6133133999999998
10.450633,-2.6760897999999997,-1.6133133999999998
10.259142,-2.6952388,-1.5367169
10.259142,-2.6952388,-1.5367169
10.259142,-2.6952388,-1.5367169
10.259142,-2.6952388,-1.5367169
8.018694,-1.2111819,-0.6750065
8.018694,-1.2111819,-0.6750065
8.018694,-1.2111819,-0.6750065
8.018694,-1.2111819,-0.6750065
9.713391,-1.2877783999999999,-1.3452256999999999
9.713391,-1.2877783999999999,-1.3452256999999999
9.713391,-1.2877783999999999,-1.3452256999999999
9.713391,-1.2877783999999999,-1.3452256999999999
11.551707,-1.5558661,-1.8718264999999998
11.551707,-1.5558661,-1.8718264999999998
11.551707,-1.5558661,-1.8718264999999998
11.551707,-1.5558661,-1.8718264999999998
13.064487,0.110107444,-1.4984187
13.064487,0.110107444,-1.4984187
13.064487,0.110107444,-1.4984187
13.064487,0.110107444,-1.4984187
13.811303,1.6420371999999999,-1.8048046999999998
13.811303,1.6420371999999999,-1.8048046999999998
13.811303,1.6420371999999999,-1.8048046999999998
13.811303,1.6420371999999999,-1.8048046999999998
8.909127999999999,1.4888442,-0.16755481
8.909127999999999,1.4888442,-0.16755481
8.909127999999999,1.4888442,-0.16755481
8.909127999999999,1.4888442,-0.16755481
9.732541000000001,0.7420284,-0.062234644000000006
9.732541000000001,0.7420284,-0.062234644000000006
9.732541000000001,0.7420284,-0.062234644000000006
9.732541000000001,0.7420284,-0.062234644000000006
10.335738000000001,-0.15798025,0.42606795
10.335738000000001,-0.15798025,0.42606795
10.335738000000001,-0.15798025,0.42606795
10.335738000000001,-0.15798025,0.42606795
7.559115400000001,-0.32074776,1.5750152
7.559115400000001,-0.32074776,1.5750152
7.559115400000001,-0.32074776,1.5750152
7.559115400000001,-0.32074776,1.5750152
8.1623125,-1.5271424,1.0771381000000002
8.1623125,-1.5271424,1.0771381000000002
8.1623125,-1.5271424,1.0771381000000002
8.1623125,-1.5271424,1.0771381000000002
10.977234,-1.6228879999999999,0.48351530000000004
10.977234,-1.6228879999999999,0.48351530000000004
10.977234,-1.6228879999999999,0.48351530000000004
10.977234,-1.6228879999999999,0.48351530000000004
10.977234,-1.6228879999999999,0.48351530000000004
13.418745999999999,-1.8335283,0.2441513
13.418745999999999,-1.8335283,0.2441513
13.418745999999999,-1.8335283,0.2441513
13.514492,-2.168638,-0.34947145
13.514492,-2.168638,-0.34947145
13.514492,-2.168638,-0.34947145
13.514492,-2.168638,-0.34947145
13.514492,-2.168638,-0.34947145
10.038927000000001,-1.9292740000000002,-0.50266445
10.038927000000001,-1.9292740000000002,-0.50266445
10.038927000000001,-1.9292740000000002,-0.50266445
10.038927000000001,-1.9292740000000002,-0.50266445
9.244238000000001,-1.3069274,-1.0388398
9.244238000000001,-1.3069274,-1.0388398
9.244238000000001,-1.3069274,-1.0388398
9.004874000000001,-1.2590546999999999,-1.1250108
9.004874000000001,-1.2590546999999999,-1.1250108
9.004874000000001,-1.2590546999999999,-1.1250108
9.004874000000001,-1.2590546999999999,-1.1250108
9.004874000000001,-1.2590546999999999,-1.1250108
7.875075999999999,-1.1728836,-0.83777404
7.875075999999999,-1.1728836,-0.83777404
7.875075999999999,-1.1728836,-0.83777404
8.382527,-1.4313968000000001,-1.2590546999999999
8.382527,-1.4313968000000001,-1.2590546999999999
8.382527,-1.4313968000000001,-1.2590546999999999
8.382527,-1.4313968000000001,-1.2590546999999999
8.382527,-1.4313968000000001,-1.2590546999999999
12.116607,-0.512239,-1.4313968000000001
12.116607,-0.512239,-1.4313968000000001
12.116607,-0.512239,-1.4313968000000001
12.116607,-0.512239,-1.4313968000000001
13.227255,0.7324539000000001,-0.83777404
13.227255,0.7324539000000001,-0.83777404
13.227255,0.7324539000000001,-0.83777404
11.743198,1.0196906,-0.76117754
11.743198,1.0196906,-0.76117754
11.743198,1.0196906,-0.76117754
11.743198,1.0196906,-0.76117754
11.743198,1.0196906,-0.76117754
8.784659,-0.33032233,-0.46436617
8.784659,-0.33032233,-0.46436617
8.784659,-0.33032233,-0.46436617
8.784659,-0.33032233,-0.46436617
9.608071,-0.8186249,0.03351096
9.608071,-0.8186249,0.03351096
9.608071,-0.8186249,0.03351096
9.608071,-0.8186249,0.03351096
9.043172,-0.6750065,1.0388398
9.043172,-0.6750065,1.0388398
9.043172,-0.6750065,1.0388398
9.043172,-0.6750065,1.0388398
7.4154973,-0.8186249,1.7665064
7.4154973,-0.8186249,1.7665064
7.4154973,-0.8186249,1.7665064
7.4154973,-0.8186249,1.7665064
9.617646,-1.2399056,1.2686293
9.617646,-1.2399056,1.2686293
9.617646,-1.2399056,1.2686293
9.617646,-1.2399056,1.2686293
13.409172,-1.4409714,0.56968635
13.409172,-1.4409714,0.56968635
13.409172,-1.4409714,0.56968635
13.409172,-1.4409714,0.56968635
14.491097,-1.7282081999999999,0.37819514
14.491097,-1.7282081999999999,0.37819514
14.491097,-1.7282081999999999,0.37819514
14.491097,-1.7282081999999999,0.37819514
11.015532,-2.0537431,1.1345854
11.015532,-2.0537431,1.1345854
11.015532,-2.0537431,1.1345854
11.015532,-2.0537431,1.1345854
8.688913000000001,-1.3548003,0.56968635
8.688913000000001,-1.3548003,0.56968635
8.688913000000001,-1.3548003,0.56968635
8.688913000000001,-1.3548003,0.56968635
8.928278,-1.6707608,-0.42606795
8.928278,-1.6707608,-0.42606795
8.928278,-1.6707608,-0.42606795
8.928278,-1.6707608,-0.42606795
8.602742,-1.4601203999999999,-0.78990126
8.602742,-1.4601203999999999,-0.78990126
8.602742,-1.4601203999999999,-0.78990126
8.602742,-1.4601203999999999,-0.78990126
8.545295,-1.0484143,-0.85692316
8.545295,-1.0484143,-0.85692316
8.545295,-1.0484143,-0.85692316
8.545295,-1.0484143,-0.85692316
11.015532,-1.1537346000000002,-1.3165021000000001
11.015532,-1.1537346000000002,-1.3165021000000001
11.015532,-1.1537346000000002,-1.3165021000000001
11.015532,-1.1537346000000002,-1.3165021000000001
14.366628,1.0484143,-1.4409714
14.366628,1.0484143,-1.4409714
14.366628,1.0484143,-1.4409714
14.366628,1.0484143,-1.4409714
12.872996,3.1069447999999995,-1.1728836
12.872996,3.1069447999999995,-1.1728836
12.872996,3.1069447999999995,-1.1728836
12.872996,3.1069447999999995,-1.1728836
7.377198700000001,2.5420458,-1.3452256999999999
7.377198700000001,2.5420458,-1.3452256999999999
7.377198700000001,2.5420458,-1.3452256999999999
7.377198700000001,2.5420458,-1.3452256999999999
8.861256,-0.69415563,-1.1824582000000001
8.861256,-0.69415563,-1.1824582000000001
8.861256,-0.69415563,-1.1824582000000001
8.861256,-0.69415563,-1.1824582000000001
8.947427000000001,-0.8664976999999999,-0.43564250000000004
8.947427000000001,-0.8664976999999999,-0.43564250000000004
8.947427000000001,-0.8664976999999999,-0.43564250000000004
8.947427000000001,-0.8664976999999999,-0.43564250000000004
9.378282,-0.91437054,1.8909756999999998
9.378282,-0.91437054,1.8909756999999998
9.378282,-0.91437054,1.8909756999999998
9.378282,-0.91437054,1.8909756999999998
8.985725,-2.321831,2.8771553
8.985725,-2.321831,2.8771553
8.985725,-2.321831,2.8771553
8.985725,-2.321831,2.8771553
13.083637,-3.2601378,1.2016073
13.083637,-3.2601378,1.2016073
13.083637,-3.2601378,1.2016073
13.083637,-3.2601378,1.2016073
14.558119,-3.671844,0.6558574
14.558119,-3.671844,0.6558574
14.558119,-3.671844,0.6558574
14.558119,-3.671844,0.6558574
11.101703,-3.059072,1.1824582000000001
11.101703,-3.059072,1.1824582000000001
11.101703,-3.059072,1.1824582000000001
11.101703,-3.059072,1.1824582000000001
10.307014,-1.6037389,0.359046
10.307014,-1.6037389,0.359046
10.307014,-1.6037389,0.359046
10.307014,-1.6037389,0.359046
9.85701,-1.2590546999999999,-0.63670826
9.85701,-1.2590546999999999,-0.63670826
9.85701,-1.2590546999999999,-0.63670826
9.85701,-1.2590546999999999,-0.63670826
8.803808,-1.1920328000000002,-0.9622433000000001
8.803808,-1.1920328000000002,-0.9622433000000001
8.803808,-1.1920328000000002,-0.9622433000000001
8.803808,-1.1920328000000002,-0.9622433000000001
7.4537954,-0.8090504,-0.9622433000000001
7.4537954,-0.8090504,-0.9622433000000001
7.4537954,-0.8090504,-0.9622433000000001
7.4537954,-0.8090504,-0.9622433000000001
8.909127999999999,-0.8664976999999999,-1.1250108
8.909127999999999,-0.8664976999999999,-1.1250108
8.909127999999999,-0.8664976999999999,-1.1250108
8.909127999999999,-0.8664976999999999,-1.1250108
13.093211,-1.1154363,-1.2111819
13.093211,-1.1154363,-1.2111819
13.093211,-1.1154363,-1.2111819
13.093211,-1.1154363,-1.2111819
13.093211,-1.1154363,-1.2111819
12.978316,-1.14416,-0.10053288
12.978316,-1.14416,-0.10053288
12.978316,-1.14416,-0.10053288
8.985725,-0.15798025,-0.00478728
8.985725,-0.15798025,-0.00478728
8.985725,-0.15798025,-0.00478728
8.985725,-0.15798025,-0.00478728
10.048501,-1.3548003,-0.16755481
10.048501,-1.3548003,-0.16755481
10.048501,-1.3548003,-0.16755481
10.048501,-1.3548003,-0.16755481
10.048501,-1.3548003,-0.16755481
9.167641999999999,-1.0196906,0.71330476
9.167641999999999,-1.0196906,0.71330476
9.167641999999999,-1.0196906,0.71330476
7.137835000000001,-0.45479164,1.9005502
7.137835000000001,-0.45479164,1.9005502
7.137835000000001,-0.45479164,1.9005502
7.137835000000001,-0.45479164,1.9005502
7.137835000000001,-0.45479164,1.9005502
8.506997,-1.8048046999999998,1.7569318999999999
8.506997,-1.8048046999999998,1.7569318999999999
8.506997,-1.8048046999999998,1.7569318999999999
8.506997,-1.8048046999999998,1.7569318999999999
12.892146,-2.0537431,2.666515
12.892146,-2.0537431,2.666515
12.892146,-2.0537431,2.666515
13.064487,-5.1654754,-1.4409714
13.064487,-5.1654754,-1.4409714
13.064487,-5.1654754,-1.4409714
13.064487,-5.1654754,-1.4409714
13.064487,-5.1654754,-1.4409714
11.05383,-2.6952388,0.54096264
11.05383,-2.6952388,0.54096264
11.05383,-2.6952388,0.54096264
8.363379,-1.1537346000000002,0.05266008
8.363379,-1.1537346000000002,0.05266008
8.363379,-1.1537346000000002,0.05266008
8.363379,-1.1537346000000002,0.05266008
8.363379,-1.1537346000000002,0.05266008
8.516571,-2.1782124,-0.85692316
8.516571,-2.1782124,-0.85692316
8.516571,-2.1782124,-0.85692316
8.516571,-2.1782124,-0.85692316
7.654861,-2.101616,-0.92394507
7.654861,-2.101616,-0.92394507
7.654861,-2.101616,-0.92394507
7.654861,-2.101616,-0.92394507
6.9080452999999995,-1.4218222,-0.30159867
6.9080452999999995,-1.4218222,-0.30159867
6.9080452999999995,-1.4218222,-0.30159867
6.9080452999999995,-1.4218222,-0.30159867
8.650616000000001,-1.5654407,-0.78032666
8.650616000000001,-1.5654407,-0.78032666
8.650616000000001,-1.5654407,-0.78032666
8.650616000000001,-1.5654407,-0.78032666
14.232584,-1.3356511999999998,-0.9526688
14.232584,-1.3356511999999998,-0.9526688
14.232584,-1.3356511999999998,-0.9526688
14.232584,-1.3356511999999998,-0.9526688
14.605992,-0.10053288,-0.0718092
14.605992,-0.10053288,-0.0718092
14.605992,-0.10053288,-0.0718092
14.605992,-0.10053288,-0.0718092
10.728295,0.78990126,-0.37819514
10.728295,0.78990126,-0.37819514
10.728295,0.78990126,-0.37819514
10.728295,0.78990126,-0.37819514
8.095291,-0.2154276,-0.48351530000000004
8.095291,-0.2154276,-0.48351530000000004
8.095291,-0.2154276,-0.48351530000000004
8.095291,-0.2154276,-0.48351530000000004
9.569773,0.110107444,-0.5888355
9.569773,0.110107444,-0.5888355
9.569773,0.110107444,-0.5888355
9.569773,0.110107444,-0.5888355
7.568689999999999,0.2920241,0.09095833
7.568689999999999,0.2920241,0.09095833
7.568689999999999,0.2920241,0.09095833
7.568689999999999,0.2920241,0.09095833
6.2091026,-0.90479594,-0.28244954
6.2091026,-0.90479594,-0.28244954
6.2091026,-0.90479594,-0.28244954
6.2091026,-0.90479594,-0.28244954
9.234664,-1.6133133999999998,-0.043085523
9.234664,-1.6133133999999998,-0.043085523
9.234664,-1.6133133999999998,-0.043085523
9.234664,-1.6133133999999998,-0.043085523
12.67193,-1.2111819,1.4409714
12.67193,-1.2111819,1.4409714
12.67193,-1.2111819,1.4409714
12.67193,-1.2111819,1.4409714
13.112360999999998,-1.709059,1.1920328000000002
13.112360999999998,-1.709059,1.1920328000000002
13.112360999999998,-1.709059,1.1920328000000002
13.112360999999998,-1.709059,1.1920328000000002
13.093211,-3.2697124,-1.383524
13.093211,-3.2697124,-1.383524
13.093211,-3.2697124,-1.383524
13.093211,-3.2697124,-1.383524
9.167641999999999,-3.5665237999999997,-0.8952214
9.167641999999999,-3.5665237999999997,-0.8952214
9.167641999999999,-3.5665237999999997,-0.8952214
9.167641999999999,-3.5665237999999997,-0.8952214
9.110194,-2.0058703,-0.93351966
9.110194,-2.0058703,-0.93351966
9.110194,-2.0058703,-0.93351966
9.110194,-2.0058703,-0.93351966
9.071896,-0.8664976999999999,-1.2111819
9.071896,-0.8664976999999999,-1.2111819
9.071896,-0.8664976999999999,-1.2111819
9.071896,-0.8664976999999999,-1.2111819
7.721883,-0.5888355,-0.9430941999999999
7.721883,-0.5888355,-0.9430941999999999
7.721883,-0.5888355,-0.9430941999999999
7.721883,-0.5888355,-0.9430941999999999
6.5825105,-1.5654407,-1.4409714
6.5825105,-1.5654407,-1.4409714
6.5825105,-1.5654407,-1.4409714
6.5825105,-1.5654407,-1.4409714
8.143164,-1.8909756999999998,-2.408002
8.143164,-1.8909756999999998,-2.408002
8.143164,-1.8909756999999998,-2.408002
8.143164,-1.8909756999999998,-2.408002
11.72405,-1.4601203999999999,-1.3548003
11.72405,-1.4601203999999999,-1.3548003
11.72405,-1.4601203999999999,-1.3548003
11.72405,-1.4601203999999999,-1.3548003
14.797482999999998,-1.0867126,-0.5505372
14.797482999999998,-1.0867126,-0.5505372
14.797482999999998,-1.0867126,-0.5505372
14.797482999999998,-1.0867126,-0.5505372
14.414501000000001,-0.93351966,-0.6845810999999999
14.414501000000001,-0.93351966,-0.6845810999999999
14.414501000000001,-0.93351966,-0.6845810999999999
14.414501000000001,-0.93351966,-0.6845810999999999
9.780414,-1.6707608,-0.8090504
9.780414,-1.6707608,-0.8090504
9.780414,-1.6707608,-0.8090504
9.780414,-1.6707608,-0.8090504
7.7793303,-0.93351966,0.014361841
7.7793303,-0.93351966,0.014361841
7.7793303,-0.93351966,0.014361841
9.675094,0.34947145,0.2441513
9.675094,0.34947145,0.2441513
9.675094,0.34947145,0.2441513
9.675094,0.34947145,0.2441513
9.675094,0.34947145,0.2441513
8.487848,0.83777404,0.2154276
8.487848,0.83777404,0.2154276
8.487848,0.83777404,0.2154276
7.051664,0.4164934,0.16755481
7.051664,0.4164934,0.16755481
7.051664,0.4164934,0.16755481
7.051664,0.4164934,0.16755481
7.051664,0.4164934,0.16755481
8.018694,-0.2441513,0.081383765
8.018694,-0.2441513,0.081383765
8.018694,-0.2441513,0.081383765
8.928278,-0.5218136,0.081383765
8.928278,-0.5218136,0.081383765
8.928278,-0.5218136,0.081383765
8.928278,-0.5218136,0.081383765
9.225089,-1.0101161,0.25372586
9.225089,-1.0101161,0.25372586
9.225089,-1.0101161,0.25372586
9.225089,-1.0101161,0.25372586
9.225089,-1.0101161,0.25372586
8.095291,-1.7665064,1.0005416
8.095291,-1.7665064,1.0005416
8.095291,-1.7665064,1.0005416
11.417664,-2.3122563,0.8952214
11.417664,-2.3122563,0.8952214
11.417664,-2.3122563,0.8952214
11.417664,-2.3122563,0.8952214
11.417664,-2.3122563,0.8952214
15.908133,-3.1739669999999998,0.11968201
15.908133,-3.1739669999999998,0.11968201
15.908133,-3.1739669999999998,0.11968201
15.908133,-3.1739669999999998,0.11968201
10.94851,-2.800559,-0.6558574
10.94851,-2.800559,-0.6558574
10.94851,-2.800559,-0.6558574
9.368708,-2.6856642,-2.360129
9.368708,-2.6856642,-2.360129
9.368708,-2.6856642,-2.360129
9.368708,-2.6856642,-2.360129
9.368708,-2.6856642,-2.360129
7.0612383,-1.7665064,-1.2399056
7.0612383,-1.7665064,-1.2399056
7.0612383,-1.7665064,-1.2399056
8.784659,-0.70373017,-1.0579889
8.784659,-0.70373017,-1.0579889
8.784659,-0.70373017,-1.0579889
8.784659,-0.70373017,-1.0579889
10.115523,-1.9005502,-2.3888528
10.115523,-1.9005502,-2.3888528
10.115523,-1.9005502,-2.3888528
10.115523,-1.9005502,-2.3888528
10.259142,-1.6611862000000002,-2.4845984
10.259142,-1.6611862000000002,-2.4845984
10.259142,-1.6611862000000002,-2.4845984
10.259142,-1.6611862000000002,-2.4845984
11.542132,0.05266008,-2.1590632999999997
11.542132,0.05266008,-2.1590632999999997
11.542132,0.05266008,-2.1590632999999997
11.542132,0.05266008,-2.1590632999999997
13.141085,0.98139244,-1.9771467
13.141085,0.98139244,-1.9771467
13.141085,0.98139244,-1.9771467
13.141085,0.98139244,-1.9771467
8.037844,0.2920241,-0.48351530000000004
8.037844,0.2920241,-0.48351530000000004
8.037844,0.2920241,-0.48351530000000004
8.037844,0.2920241,-0.48351530000000004
12.135756,-0.081383765,-1.7952299999999999
12.135756,-0.081383765,-1.7952299999999999
12.135756,-0.081383765,-1.7952299999999999
12.135756,-0.081383765,-1.7952299999999999
10.220842999999999,0.28244954,-0.3398969
10.220842999999999,0.28244954,-0.3398969
10.220842999999999,0.28244954,-0.3398969
10.220842999999999,0.28244954,-0.3398969
10.220842999999999,0.28244954,-0.3398969
7.8367777,-0.3111732,0.5218136
7.8367777,-0.3111732,0.5218136
7.8367777,-0.3111732,0.5218136
8.076141,-1.2111819,0.110107444
8.076141,-1.2111819,0.110107444
8.076141,-1.2111819,0.110107444
8.076141,-1.2111819,0.110107444
10.268716,-1.1345854,0.6271336999999999
10.268716,-1.1345854,0.6271336999999999
10.268716,-1.1345854,0.6271336999999999
10.268716,-1.1345854,0.6271336999999999
13.897473999999999,-0.8760723,1.1154363
13.897473999999999,-0.8760723,1.1154363
13.897473999999999,-0.8760723,1.1154363
13.897473999999999,-0.8760723,1.1154363
13.533641000000001,-1.3260766000000002,0.44521707
13.533641000000001,-1.3260766000000002,0.44521707
13.533641000000001,-1.3260766000000002,0.44521707
13.533641000000001,-1.3260766000000002,0.44521707
10.680422,-1.6516117,-0.5313880999999999
10.680422,-1.6516117,-0.5313880999999999
10.680422,-1.6516117,-0.5313880999999999
10.680422,-1.6516117,-0.5313880999999999
8.842107,-1.4792696,-1.6994845
8.842107,-1.4792696,-1.6994845
8.842107,-1.4792696,-1.6994845
8.909127999999999,-1.0867126,-2.5228968
8.909127999999999,-1.0867126,-2.5228968
8.909127999999999,-1.0867126,-2.5228968
8.909127999999999,-1.0867126,-2.5228968
8.909127999999999,-1.0867126,-2.5228968
7.7027339999999995,-0.76117754,-1.6228879999999999
7.7027339999999995,-0.76117754,-1.6228879999999999
7.7027339999999995,-0.76117754,-1.6228879999999999
7.7027339999999995,-0.76117754,-1.6228879999999999
8.899554,-0.8760723,-1.776081
8.899554,-0.8760723,-1.776081
8.899554,-0.8760723,-1.776081
8.899554,-0.8760723,-1.776081
13.227255,0.043085523,-1.7473572
13.227255,0.043085523,-1.7473572
13.227255,0.043085523,-1.7473572
13.227255,0.043085523,-1.7473572
15.534723999999999,0.359046,-1.383524
15.534723999999999,0.359046,-1.383524
15.534723999999999,0.359046,-1.383524
15.534723999999999,0.359046,-1.383524
11.49426,0.30159867,-0.9622433000000001
11.49426,0.30159867,-0.9622433000000001
11.49426,0.30159867,-0.9622433000000001
11.49426,0.30159867,-0.9622433000000001
7.587839,0.11968201,0.10053288
7.587839,0.11968201,0.10053288
7.587839,0.11968201,0.10053288
8.957002000000001,0.512239,0.5313880999999999
8.957002000000001,0.512239,0.5313880999999999
8.957002000000001,0.512239,0.5313880999999999
8.957002000000001,0.512239,0.5313880999999999
8.00912,0.69415563,1.1250108
8.00912,0.69415563,1.1250108
8.00912,0.69415563,1.1250108
8.00912,0.69415563,1.1250108
6.2761245,-0.6750065,0.83777404
6.2761245,-0.6750065,0.83777404
6.2761245,-0.6750065,0.83777404
6.2761245,-0.6750065,0.83777404
8.621891999999999,-1.7282081999999999,0.64628285
8.621891999999999,-1.7282081999999999,0.64628285
8.621891999999999,-1.7282081999999999,0.64628285
8.621891999999999,-1.7282081999999999,0.64628285
13.121935,-1.8239537000000001,1.0579889
13.121935,-1.8239537000000001,1.0579889
13.121935,-1.8239537000000001,1.0579889
13.121935,-1.8239537000000001,1.0579889
14.653865,-0.99096704,1.4026731000000001
14.653865,-0.99096704,1.4026731000000001
14.653865,-0.99096704,1.4026731000000001
14.653865,-0.99096704,1.4026731000000001
11.7336235,-2.733537,0.83777404
11.7336235,-2.733537,0.83777404
11.7336235,-2.733537,0.83777404
11.7336235,-2.733537,0.83777404
7.1186857,-1.948423,0.36862057
7.1186857,-1.948423,0.36862057
7.1186857,-1.948423,0.36862057
7.1186857,-1.948423,0.36862057
6.9942164,-1.1345854,-0.3398969
6.9942164,-1.1345854,-0.3398969
6.9942164,-1.1345854,-0.3398969
6.9942164,-1.1345854,-0.3398969
8.200611,-1.7952299999999999,-1.2782038
8.200611,-1.7952299999999999,-1.2782038
8.200611,-1.7952299999999999,-1.2782038
8.200611,-1.7952299999999999,-1.2782038
9.043172,-2.2165107999999996,-1.4984187
9.043172,-2.2165107999999996,-1.4984187
9.043172,-2.2165107999999996,-1.4984187
9.043172,-2.2165107999999996,-1.4984187
12.643207,-1.2207563999999997,-0.8856468000000001
12.643207,-1.2207563999999997,-0.8856468000000001
12.643207,-1.2207563999999997,-0.8856468000000001
12.643207,-1.2207563999999997,-0.8856468000000001
15.496426000000001,0.6271336999999999,0.0
15.496426000000001,0.6271336999999999,0.0
15.496426000000001,0.6271336999999999,0.0
15.496426000000001,0.6271336999999999,0.0
11.551707,1.5367169,-0.05266008
11.551707,1.5367169,-0.05266008
11.551707,1.5367169,-0.05266008
11.551707,1.5367169,-0.05266008
7.1474094,0.9622433000000001,-1.0292653
7.1474094,0.9622433000000001,-1.0292653
7.1474094,0.9622433000000001,-1.0292653
7.1474094,0.9622433000000001,-1.0292653
9.062322,-0.92394507,-1.7856555
9.062322,-0.92394507,-1.7856555
9.062322,-0.92394507,-1.7856555
9.062322,-0.92394507,-1.7856555
8.372953,-0.8760723,-0.15798025
8.372953,-0.8760723,-0.15798025
8.372953,-0.8760723,-0.15798025
8.372953,-0.8760723,-0.15798025
6.6591067,-0.2920241,1.5845897
6.6591067,-0.2920241,1.5845897
6.6591067,-0.2920241,1.5845897
6.6591067,-0.2920241,1.5845897
8.286782,-0.9430941999999999,1.9962958
8.286782,-0.9430941999999999,1.9962958
8.286782,-0.9430941999999999,1.9962958
8.286782,-0.9430941999999999,1.9962958
13.552791000000001,-2.7622607000000006,1.0579889
13.552791000000001,-2.7622607000000006,1.0579889
13.552791000000001,-2.7622607000000006,1.0579889
13.552791000000001,-2.7622607000000006,1.0579889
15.123018,-3.059072,0.6750065
15.123018,-3.059072,0.6750065
15.123018,-3.059072,0.6750065
15.123018,-3.059072,0.6750065
10.938935,-2.867581,0.8760723
10.938935,-2.867581,0.8760723
10.938935,-2.867581,0.8760723
7.8367777,-2.513322,0.10053288
7.8367777,-2.513322,0.10053288
7.8367777,-2.513322,0.10053288
7.8367777,-2.513322,0.10053288
7.8367777,-2.513322,0.10053288
8.258059,-2.0537431,-0.56968635
8.258059,-2.0537431,-0.56968635
8.258059,-2.0537431,-0.56968635
7.626137299999999,-1.6899098999999997,-0.6271336999999999
7.626137299999999,-1.6899098999999997,-0.6271336999999999
7.626137299999999,-1.6899098999999997,-0.6271336999999999
7.626137299999999,-1.6899098999999997,-0.6271336999999999
6.946343400000001,-1.4601203999999999,-0.42606795
6.946343400000001,-1.4601203999999999,-0.42606795
6.946343400000001,-1.4601203999999999,-0.42606795
6.946343400000001,-1.4601203999999999,-0.42606795
6.946343400000001,-1.4601203999999999,-0.42606795
10.900637,-1.4122477,-0.47394073
10.900637,-1.4122477,-0.47394073
10.900637,-1.4122477,-0.47394073
15.94643,-0.34947145,-0.665432
15.94643,-0.34947145,-0.665432
15.94643,-0.34947145,-0.665432
15.94643,-0.34947145,-0.665432
15.94643,-0.34947145,-0.665432
11.762347,1.709059,-0.23457673
11.762347,1.709059,-0.23457673
11.762347,1.709059,-0.23457673
11.762347,1.709059,-0.23457673
7.2048570000000005,0.5505372,-0.6271336999999999
7.2048570000000005,0.5505372,-0.6271336999999999
7.2048570000000005,0.5505372,-0.6271336999999999
9.014449,-1.1154363,-1.0196906
9.014449,-1.1154363,-1.0196906
9.014449,-1.1154363,-1.0196906
9.014449,-1.1154363,-1.0196906
8.937852000000001,0.05266008,0.49308985
8.937852000000001,0.05266008,0.49308985
8.937852000000001,0.05266008,0.49308985
8.937852000000001,0.05266008,0.49308985
7.8272033,-0.10053288,1.6324625
7.8272033,-0.10053288,1.6324625
7.8272033,-0.10053288,1.6324625
7.8272033,-0.10053288,1.6324625
9.675094,-1.4409714,1.1920328000000002
9.675094,-1.4409714,1.1920328000000002
9.675094,-1.4409714,1.1920328000000002
9.675094,-1.4409714,1.1920328000000002
13.638962,-1.6228879999999999,0.78032666
13.638962,-1.6228879999999999,0.78032666
13.638962,-1.6228879999999999,0.78032666
13.638962,-1.6228879999999999,0.78032666
13.658110999999998,-1.5367169,0.9622433000000001
13.658110999999998,-1.5367169,0.9622433000000001
13.658110999999998,-1.5367169,0.9622433000000001
13.658110999999998,-1.5367169,0.9622433000000001
10.268716,-2.1877869999999997,0.26330042
10.268716,-2.1877869999999997,0.26330042
10.268716,-2.1877869999999997,0.26330042
8.641041,-0.69415563,-0.19627848
8.641041,-0.69415563,-0.19627848
8.641041,-0.69415563,-0.19627848
8.641041,-0.69415563,-0.19627848
7.3389006,-1.0579889,-0.6558574
7.3389006,-1.0579889,-0.6558574
7.3389006,-1.0579889,-0.6558574
7.3389006,-1.0579889,-0.6558574
7.348475,-1.2494801000000002,-0.99096704
7.348475,-1.2494801000000002,-0.99096704
7.348475,-1.2494801000000002,-0.99096704
7.348475,-1.2494801000000002,-0.99096704
8.392102000000001,-0.8952214,-0.83777404
8.392102000000001,-0.8952214,-0.83777404
8.392102000000001,-0.8952214,-0.83777404
8.392102000000001,-0.8952214,-0.83777404
14.069817,0.4164934,-1.2973529
14.069817,0.4164934,-1.2973529
14.069817,0.4164934,-1.2973529
14.069817,0.4164934,-1.2973529
14.807057,1.0292653,-1.0196906
14.807057,1.0292653,-1.0196906
14.807057,1.0292653,-1.0196906
14.807057,1.0292653,-1.0196906
9.483603,2.1399142999999996,-0.8760723
9.483603,2.1399142999999996,-0.8760723
9.483603,2.1399142999999996,-0.8760723
9.483603,2.1399142999999996,-0.8760723
6.9271946,0.359046,-0.8186249
6.9271946,0.359046,-0.8186249
6.9271946,0.359046,-0.8186249
6.9271946,0.359046,-0.8186249
6.9271946,0.359046,-0.8186249
9.761265,-1.0962871,-1.3643749
9.761265,-1.0962871,-1.3643749
9.761265,-1.0962871,-1.3643749
9.138917999999999,-0.59841,0.5792609000000001
9.138917999999999,-0.59841,0.5792609000000001
9.138917999999999,-0.59841,0.5792609000000001
9.138917999999999,-0.59841,0.5792609000000001
7.080387599999999,-0.110107444,2.1303396
7.080387599999999,-0.110107444,2.1303396
7.080387599999999,-0.110107444,2.1303396
7.080387599999999,-0.110107444,2.1303396
7.080387599999999,-0.110107444,2.1303396
8.104865,-1.0196906,1.0005416
8.104865,-1.0196906,1.0005416
8.104865,-1.0196906,1.0005416
13.3612995,-1.3356511999999998,0.33032233
13.3612995,-1.3356511999999998,0.33032233
13.3612995,-1.3356511999999998,0.33032233
13.3612995,-1.3356511999999998,0.33032233
13.3612995,-1.3356511999999998,0.33032233
14.921952,-1.5654407,0.43564250000000004
14.921952,-1.5654407,0.43564250000000004
14.921952,-1.5654407,0.43564250000000004
14.921952,-1.5654407,0.43564250000000004
11.455961,-1.9388485,0.6079846
11.455961,-1.9388485,0.6079846
11.455961,-1.9388485,0.6079846
8.708063000000001,-1.862252,0.12925656
8.708063000000001,-1.862252,0.12925656
8.708063000000001,-1.862252,0.12925656
8.708063000000001,-1.862252,0.12925656
8.708063000000001,-1.862252,0.12925656
8.631466,-1.1920328000000002,-0.36862057
8.631466,-1.1920328000000002,-0.36862057
8.631466,-1.1920328000000002,-0.36862057
8.631466,-1.1920328000000002,-0.36862057
8.085716,-1.1537346000000002,-0.44521707
8.085716,-1.1537346000000002,-0.44521707
8.085716,-1.1537346000000002,-0.44521707
8.085716,-1.1537346000000002,-0.44521707
8.679339,-1.2590546999999999,-0.5888355
8.679339,-1.2590546999999999,-0.5888355
8.679339,-1.2590546999999999,-0.5888355
8.679339,-1.2590546999999999,-0.5888355
12.480439,-1.2016073,-1.0579889
12.480439,-1.2016073,-1.0579889
12.480439,-1.2016073,-1.0579889
12.480439,-1.2016073,-1.0579889
13.638962,0.11968201,-0.8090504
13.638962,0.11968201,-0.8090504
13.638962,0.11968201,-0.8090504
13.638962,0.11968201,-0.8090504
8.459125,0.48351530000000004,0.28244954
8.459125,0.48351530000000004,0.28244954
8.459125,0.48351530000000004,0.28244954
8.44955,0.7994758000000001,-1.1920328000000002
8.44955,0.7994758000000001,-1.1920328000000002
8.44955,0.7994758000000001,-1.1920328000000002
8.44955,0.7994758000000001,-1.1920328000000002
8.44955,0.7994758000000001,-1.1920328000000002
9.502751,-1.7377827000000001,-1.3165021000000001
9.502751,-1.7377827000000001,-1.3165021000000001
9.502751,-1.7377827000000001,-1.3165021000000001
8.439975,-1.1154363,0.062234644000000006
8.439975,-1.1154363,0.062234644000000006
8.439975,-1.1154363,0.062234644000000006
8.439975,-1.1154363,0.062234644000000006
8.210186,-0.92394507,1.0579889
8.210186,-0.92394507,1.0579889
8.210186,-0.92394507,1.0579889
8.210186,-0.92394507,1.0579889
7.5112429999999994,-0.8090504,1.1633091
7.5112429999999994,-0.8090504,1.1633091
7.5112429999999994,-0.8090504,1.1633091
7.5112429999999994,-0.8090504,1.1633091
10.038927000000001,-1.2016073,1.0484143
10.038927000000001,-1.2016073,1.0484143
10.038927000000001,-1.2016073,1.0484143
10.038927000000001,-1.2016073,1.0484143
12.624058,-1.2016073,1.3643749
12.624058,-1.2016073,1.3643749
12.624058,-1.2016073,1.3643749
12.624058,-1.2016073,1.3643749
13.208105999999999,-2.034594,0.5792609000000001
13.208105999999999,-2.034594,0.5792609000000001
13.208105999999999,-2.034594,0.5792609000000001
13.208105999999999,-2.034594,0.5792609000000001
13.0549135,-1.9771467,0.2441513
13.0549135,-1.9771467,0.2441513
13.0549135,-1.9771467,0.2441513
9.7899885,-0.37819514,-0.3111732
9.7899885,-0.37819514,-0.3111732
9.7899885,-0.37819514,-0.3111732
9.7899885,-0.37819514,-0.3111732
9.378282,0.512239,-1.4792696
9.378282,0.512239,-1.4792696
9.378282,0.512239,-1.4792696
9.378282,0.512239,-1.4792696
9.378282,0.512239,-1.4792696
9.253813000000001,0.25372586,-2.321831
9.253813000000001,0.25372586,-2.321831
9.253813000000001,0.25372586,-2.321831
8.181462,-0.42606795,-2.2643836
8.181462,-0.42606795,-2.2643836
8.181462,-0.42606795,-2.2643836
8.181462,-0.42606795,-2.2643836
8.056992999999999,-1.0005416,-1.8526775000000002
8.056992999999999,-1.0005416,-1.8526775000000002
8.056992999999999,-1.0005416,-1.8526775000000002
8.056992999999999,-1.0005416,-1.8526775000000002
8.315506,-1.2111819,-1.3260766000000002
8.315506,-1.2111819,-1.3260766000000002
8.315506,-1.2111819,-1.3260766000000002
8.315506,-1.2111819,-1.3260766000000002
8.765511,-1.383524,-0.6845810999999999
8.765511,-1.383524,-0.6845810999999999
8.765511,-1.383524,-0.6845810999999999
8.765511,-1.383524,-0.6845810999999999
9.3878565,-1.1250108,-0.09095833
9.3878565,-1.1250108,-0.09095833
9.3878565,-1.1250108,-0.09095833
9.3878565,-1.1250108,-0.09095833
10.230417999999998,-1.0196906,0.23457673
10.230417999999998,-1.0196906,0.23457673
10.230417999999998,-1.0196906,0.23457673
10.230417999999998,-1.0196906,0.23457673
10.230417999999998,-1.7282081999999999,-0.13883112
10.230417999999998,-1.7282081999999999,-0.13883112
10.230417999999998,-1.7282081999999999,-0.13883112
10.230417999999998,-1.7282081999999999,-0.13883112
9.713391,-2.168638,-0.50266445
9.713391,-2.168638,-0.50266445
9.713391,-2.168638,-0.50266445
9.713391,-2.168638,-0.50266445
10.977234,-1.1537346000000002,-0.751603
10.977234,-1.1537346000000002,-0.751603
10.977234,-1.1537346000000002,-0.751603
10.977234,-1.1537346000000002,-0.751603
10.19212,-0.37819514,-0.43564250000000004
10.19212,-0.37819514,-0.43564250000000004
10.19212,-0.37819514,-0.43564250000000004
9.85701,-1.3739493999999999,-0.7228793
9.85701,-1.3739493999999999,-0.7228793
9.85701,-1.3739493999999999,-0.7228793
9.85701,-1.3739493999999999,-0.7228793
9.85701,-1.3739493999999999,-0.7228793
9.98148,-1.2303311000000001,-0.48351530000000004
9.98148,-1.2303311000000001,-0.48351530000000004
9.98148,-1.2303311000000001,-0.48351530000000004
10.804892,-0.64628285,0.2441513
10.804892,-0.64628285,0.2441513
10.804892,-0.64628285,0.2441513
10.804892,-0.64628285,0.2441513
10.804892,-0.64628285,0.2441513
9.837861,-1.0579889,0.28244954
9.837861,-1.0579889,0.28244954
9.837861,-1.0579889,0.28244954
9.837861,-1.0579889,0.28244954
8.966576,-1.5462915000000002,-0.14840569
8.966576,-1.5462915000000002,-0.14840569
8.966576,-1.5462915000000002,-0.14840569
9.100619,-1.0867126,0.0718092
9.100619,-1.0867126,0.0718092
9.100619,-1.0867126,0.0718092
9.100619,-1.0867126,0.0718092
10.316589,-0.83777404,0.56968635
10.316589,-0.83777404,0.56968635
10.316589,-0.83777404,0.56968635
10.316589,-0.83777404,0.56968635
10.316589,-0.83777404,0.56968635
11.082554,-0.63670826,1.1058618
11.082554,-0.63670826,1.1058618
11.082554,-0.63670826,1.1058618
11.082554,-0.63670826,1.1058618
10.249566999999999,-1.4313968000000001,-0.30159867
10.249566999999999,-1.4313968000000001,-0.30159867
10.249566999999999,-1.4313968000000001,-0.30159867
9.512326,-1.7377827000000001,-0.54096264
9.512326,-1.7377827000000001,-0.54096264
9.512326,-1.7377827000000001,-0.54096264
9.512326,-1.7377827000000001,-0.54096264
9.052747,-1.8526775000000002,-0.512239
9.052747,-1.8526775000000002,-0.512239
9.052747,-1.8526775000000002,-0.512239
9.052747,-1.8526775000000002,-0.512239
9.454879,-1.5845897,-0.110107444
9.454879,-1.5845897,-0.110107444
9.454879,-1.5845897,-0.110107444
9.454879,-1.5845897,-0.110107444
10.259142,-1.5941644,-0.081383765
10.259142,-1.5941644,-0.081383765
10.259142,-1.5941644,-0.081383765
10.259142,-1.5941644,-0.081383765
10.565528,-1.5079931999999998,-0.062234644000000006
10.565528,-1.5079931999999998,-0.062234644000000006
10.565528,-1.5079931999999998,-0.062234644000000006
10.565528,-1.5079931999999998,-0.062234644000000006
9.5219,-1.5941644,0.10053288
9.5219,-1.5941644,0.10053288
9.5219,-1.5941644,0.10053288
9.378282,-1.5367169,0.3111732
9.378282,-1.5367169,0.3111732
9.378282,-1.5367169,0.3111732
9.378282,-1.5367169,0.3111732
9.876159,-1.5845897,0.28244954
9.876159,-1.5845897,0.28244954
9.876159,-1.5845897,0.28244954
9.876159,-1.5845897,0.28244954
10.105948,-1.8814011999999998,0.09095833
10.105948,-1.8814011999999998,0.09095833
10.105948,-1.8814011999999998,0.09095833
10.105948,-1.8814011999999998,0.09095833
10.182545,-1.8048046999999998,0.110107444
10.182545,-1.8048046999999998,0.110107444
10.182545,-1.8048046999999998,0.110107444
10.182545,-1.8048046999999998,0.110107444
10.278291000000001,-1.5558661,0.11968201
10.278291000000001,-1.5558661,0.11968201
10.278291000000001,-1.5558661,0.11968201
10.278291000000001,-1.5558661,0.11968201
10.000628,-1.4313968000000001,0.023936402000000002
10.000628,-1.4313968000000001,0.023936402000000002
10.000628,-1.4313968000000001,0.023936402000000002
10.000628,-1.4313968000000001,0.023936402000000002
9.722966,-1.3739493999999999,-0.13883112
9.722966,-1.3739493999999999,-0.13883112
9.722966,-1.3739493999999999,-0.13883112
9.675094,-1.4601203999999999,-0.25372586
9.675094,-1.4601203999999999,-0.25372586
9.675094,-1.4601203999999999,-0.25372586
9.675094,-1.4601203999999999,-0.25372586
9.675094,-1.4601203999999999,-0.25372586
9.780414,-1.5462915000000002,-0.23457673
9.780414,-1.5462915000000002,-0.23457673
9.780414,-1.5462915000000002,-0.23457673
10.038927000000001,-1.6133133999999998,-0.20585304
10.038927000000001,-1.6133133999999998,-0.20585304
10.038927000000001,-1.6133133999999998,-0.20585304
10.038927000000001,-1.6133133999999998,-0.20585304
9.991054,-1.5941644,-0.18670394
9.991054,-1.5941644,-0.18670394
9.991054,-1.5941644,-0.18670394
9.991054,-1.5941644,-0.18670394
9.847435,-1.5558661,-0.15798025
9.847435,-1.5558661,-0.15798025
9.847435,-1.5558661,-0.15798025
9.847435,-1.5558661,-0.15798025
9.742115,-1.5941644,-0.062234644000000006
9.742115,-1.5941644,-0.062234644000000006
9.742115,-1.5941644,-0.062234644000000006
9.742115,-1.5941644,-0.062234644000000006
9.924032,-1.6707608,0.00478728
9.924032,-1.6707608,0.00478728
9.924032,-1.6707608,0.00478728
9.924032,-1.6707608,0.00478728
9.96233,-1.6516117,0.081383765
9.96233,-1.6516117,0.081383765
9.96233,-1.6516117,0.081383765
9.96233,-1.6516117,0.081383765
9.828286,-1.6420371999999999,-0.043085523
9.828286,-1.6420371999999999,-0.043085523
9.828286,-1.6420371999999999,-0.043085523
9.885734,-1.6133133999999998,-0.20585304
9.885734,-1.6133133999999998,-0.20585304
9.885734,-1.6133133999999998,-0.20585304
9.885734,-1.6133133999999998,-0.20585304
9.952755999999999,-1.5941644,-0.20585304
9.952755999999999,-1.5941644,-0.20585304
9.952755999999999,-1.5941644,-0.20585304
9.952755999999999,-1.5941644,-0.20585304
9.933606,-1.4984187,-0.110107444
9.933606,-1.4984187,-0.110107444
9.933606,-1.4984187,-0.110107444
9.933606,-1.4984187,-0.110107444
9.885734,-1.5462915000000002,-0.11968201
9.885734,-1.5462915000000002,-0.11968201
9.885734,-1.5462915000000002,-0.11968201
9.885734,-1.5462915000000002,-0.11968201
9.684667999999999,-1.4984187,-0.023936402000000002
9.684667999999999,-1.4984187,-0.023936402000000002
9.684667999999999,-1.4984187,-0.023936402000000002
9.684667999999999,-1.4984187,-0.023936402000000002
9.722966,-1.4792696,-0.00478728
9.722966,-1.4792696,-0.00478728
9.722966,-1.4792696,-0.00478728
9.8953085,-1.6420371999999999,0.023936402000000002
9.8953085,-1.6420371999999999,0.023936402000000002
9.8953085,-1.6420371999999999,0.023936402000000002
9.8953085,-1.6420371999999999,0.023936402000000002
9.8953085,-1.6420371999999999,0.023936402000000002
9.7899885,-1.776081,0.12925656
9.7899885,-1.776081,0.12925656
9.7899885,-1.776081,0.12925656
9.98148,-1.7186337,0.16755481
9.98148,-1.7186337,0.16755481
9.98148,-1.7186337,0.16755481
9.98148,-1.7186337,0.16755481
10.000628,-1.7569318999999999,0.043085523
10.000628,-1.7569318999999999,0.043085523
10.000628,-1.7569318999999999,0.043085523
10.000628,-1.7569318999999999,0.043085523
10.038927000000001,-1.709059,-0.081383765
10.038927000000001,-1.709059,-0.081383765
10.038927000000001,-1.709059,-0.081383765
10.038927000000001,-1.709059,-0.081383765
9.8953085,-1.5654407,-0.09095833
9.8953085,-1.5654407,-0.09095833
9.8953085,-1.5654407,-0.09095833
9.8953085,-1.5654407,-0.09095833
9.933606,-1.5845897,-0.2154276
9.933606,-1.5845897,-0.2154276
9.933606,-1.5845897,-0.2154276
9.933606,-1.5845897,-0.2154276
9.933606,-1.5462915000000002,-0.2441513
9.933606,-1.5462915000000002,-0.2441513
9.933606,-1.5462915000000002,-0.2441513
9.933606,-1.5462915000000002,-0.2441513
9.847435,-1.5558661,-0.2920241
9.847435,-1.5558661,-0.2920241
9.847435,-1.5558661,-0.2920241
9.770839,-1.4313968000000001,-0.23457673
9.770839,-1.4313968000000001,-0.23457673
9.770839,-1.4313968000000001,-0.23457673
9.770839,-1.4313968000000001,-0.23457673
9.770839,-1.4313968000000001,-0.23457673
9.828286,-1.5462915000000002,-0.19627848
9.828286,-1.5462915000000002,-0.19627848
9.828286,-1.5462915000000002,-0.19627848
9.904882,-1.6707608,-0.13883112
9.904882,-1.6707608,-0.13883112
9.904882,-1.6707608,-0.13883112
9.904882,-1.6707608,-0.13883112
9.943181,-1.7282081999999999,-0.05266008
9.943181,-1.7282081999999999,-0.05266008
9.943181,-1.7282081999999999,-0.05266008
9.943181,-1.7282081999999999,-0.05266008
10.029352000000001,-1.7856555,-0.03351096
10.029352000000001,-1.7856555,-0.03351096
10.029352000000001,-1.7856555,-0.03351096
10.029352000000001,-1.7856555,-0.03351096
9.952755999999999,-1.7473572,-0.03351096
9.952755999999999,-1.7473572,-0.03351096
9.952755999999999,-1.7473572,-0.03351096
9.952755999999999,-1.7473572,-0.03351096
9.924032,-1.6899098999999997,-0.15798025
9.924032,-1.6899098999999997,-0.15798025
9.924032,-1.6899098999999997,-0.15798025
9.770839,-1.6420371999999999,-0.2441513
9.770839,-1.6420371999999999,-0.2441513
9.770839,-1.6420371999999999,-0.2441513
9.770839,-1.6420371999999999,-0.2441513
9.809137,-1.6707608,-0.25372586
9.809137,-1.6707608,-0.25372586
9.809137,-1.6707608,-0.25372586
9.809137,-1.6707608,-0.25372586
9.722966,-1.709059,-0.23457673
9.722966,-1.709059,-0.23457673
9.722966,-1.709059,-0.23457673
9.722966,-1.709059,-0.23457673
9.866585,-1.7473572,-0.2154276
9.866585,-1.7473572,-0.2154276
9.866585,-1.7473572,-0.2154276
9.866585,-1.7473572,-0.2154276
9.96233,-1.776081,-0.11968201
9.96233,-1.776081,-0.11968201
9.96233,-1.776081,-0.11968201
9.96233,-1.776081,-0.11968201
9.924032,-1.7377827000000001,-0.043085523
9.924032,-1.7377827000000001,-0.043085523
9.924032,-1.7377827000000001,-0.043085523
9.98148,-1.6133133999999998,-0.14840569
9.98148,-1.6133133999999998,-0.14840569
9.98148,-1.6133133999999998,-0.14840569
9.98148,-1.6133133999999998,-0.14840569
9.98148,-1.6133133999999998,-0.14840569
9.904882,-1.5367169,-0.2441513
9.904882,-1.5367169,-0.2441513
9.904882,-1.5367169,-0.2441513
9.904882,-1.5367169,-0.2441513
9.847435,-1.5271424,-0.33032233
9.847435,-1.5271424,-0.33032233
9.847435,-1.5271424,-0.33032233
9.847435,-1.5271424,-0.33032233
9.818711,-1.4792696,-0.32074776
9.818711,-1.4792696,-0.32074776
9.818711,-1.4792696,-0.32074776
9.818711,-1.4792696,-0.32074776
9.933606,-1.5462915000000002,-0.36862057
9.933606,-1.5462915000000002,-0.36862057
9.933606,-1.5462915000000002,-0.36862057
9.933606,-1.5654407,-0.3111732
9.933606,-1.5654407,-0.3111732
9.933606,-1.5654407,-0.3111732
9.933606,-1.5654407,-0.3111732
9.943181,-1.5462915000000002,-0.27287498
9.943181,-1.5462915000000002,-0.27287498
9.943181,-1.5462915000000002,-0.27287498
9.943181,-1.5462915000000002,-0.27287498
9.914457,-1.5367169,-0.30159867
9.914457,-1.5367169,-0.30159867
9.914457,-1.5367169,-0.30159867
9.914457,-1.5367169,-0.30159867
9.914457,-1.5271424,-0.25372586
9.914457,-1.5271424,-0.25372586
9.914457,-1.5271424,-0.25372586
9.914457,-1.5271424,-0.25372586
9.885734,-1.5462915000000002,-0.26330042
9.885734,-1.5462915000000002,-0.26330042
9.885734,-1.5462915000000002,-0.26330042
9.885734,-1.5462915000000002,-0.26330042
9.914457,-1.6037389,-0.2154276
9.914457,-1.6037389,-0.2154276
9.914457,-1.6037389,-0.2154276
9.914457,-1.6037389,-0.2154276
10.038927000000001,-1.6611862000000002,-0.15798025
10.038927000000001,-1.6611862000000002,-0.15798025
10.038927000000001,-1.6611862000000002,-0.15798025
9.933606,-1.6324625,-0.14840569
9.933606,-1.6324625,-0.14840569
9.933606,-1.6324625,-0.14840569
9.933606,-1.6324625,-0.14840569
9.933606,-1.6324625,-0.14840569
9.971905,-1.5462915000000002,-0.20585304
9.971905,-1.5462915000000002,-0.20585304
9.971905,-1.5462915000000002,-0.20585304
9.7899885,-1.4792696,-0.19627848
9.7899885,-1.4792696,-0.19627848
9.7899885,-1.4792696,-0.19627848
9.7899885,-1.4792696,-0.19627848
9.885734,-1.4888442,-0.16755481
9.885734,-1.4888442,-0.16755481
9.885734,-1.4888442,-0.16755481
9.885734,-1.4888442,-0.16755481
9.885734,-1.4888442,-0.16755481
9.943181,-1.4888442,-0.11968201
9.943181,-1.4888442,-0.11968201
9.943181,-1.4888442,-0.11968201
9.96233,-1.5558661,-0.0718092
9.96233,-1.5558661,-0.0718092
9.96233,-1.5558661,-0.0718092
9.96233,-1.5558661,-0.0718092
10.058076,-1.5750152,0.10053288
10.058076,-1.5750152,0.10053288
10.058076,-1.5750152,0.10053288
10.058076,-1.5750152,0.10053288
10.058076,-1.5750152,0.10053288
10.06765,-1.8239537000000001,0.40691882
10.06765,-1.8239537000000001,0.40691882
10.06765,-1.8239537000000001,0.40691882
10.06765,-1.8239537000000001,0.40691882
10.134672,-2.015445,0.56011176
10.134672,-2.015445,0.56011176
10.134672,-2.015445,0.56011176
9.770839,-1.9101248,0.59841
9.770839,-1.9101248,0.59841
9.770839,-1.9101248,0.59841
9.770839,-1.9101248,0.59841
9.770839,-2.647366,0.7228793
9.770839,-2.647366,0.7228793
9.770839,-2.647366,0.7228793
9.770839,-2.647366,0.7228793
9.770839,-2.647366,0.7228793
10.029352000000001,-3.5282254,1.3356511999999998
10.029352000000001,-3.5282254,1.3356511999999998
10.029352000000001,-3.5282254,1.3356511999999998
10.182545,-4.1409974,2.1590632999999997
10.182545,-4.1409974,2.1590632999999997
10.182545,-4.1409974,2.1590632999999997
10.182545,-4.1409974,2.1590632999999997
9.828286,-4.8782387,2.9154537
9.828286,-4.8782387,2.9154537
9.828286,-4.8782387,2.9154537
9.828286,-4.8782387,2.9154537
9.234664,-5.146326,3.777164
9.234664,-5.146326,3.777164
9.234664,-5.146326,3.777164
9.234664,-5.146326,3.777164
8.832532,-4.3803616,5.194199
8.832532,-4.3803616,5.194199
8.832532,-4.3803616,5.194199
8.832532,-4.3803616,5.194199
8.861256,-4.08355,5.787822
8.861256,-4.08355,5.787822
8.861256,-4.08355,5.787822
8.861256,-4.08355,5.787822
8.2676325,-3.6431203,6.0463347
8.2676325,-3.6431203,6.0463347
8.2676325,-3.6431203,6.0463347
8.2676325,-3.6431203,6.0463347
7.1665583,-2.666515,6.592085000000001
7.1665583,-2.666515,6.592085000000001
7.1665583,-2.666515,6.592085000000001
7.1665583,-2.666515,6.592085000000001
5.730374299999999,-1.9388485,6.821874
5.730374299999999,-1.9388485,6.821874
5.730374299999999,-1.9388485,6.821874
5.730374299999999,-1.9388485,6.821874
4.6388745,1.0388398,7.7601814
4.6388745,1.0388398,7.7601814
4.6388745,1.0388398,7.7601814
4.6388745,1.0388398,7.7601814
