accx,accy,accz
1.4792696,1.3165021000000001,8.124015
1.7665064,0.8856468000000001,9.359133
1.7665064,0.8856468000000001,9.359133
1.7665064,0.8856468000000001,9.359133
1.7665064,0.8856468000000001,9.359133
1.7665064,0.8856468000000001,9.359133
2.3888528,0.3398969,12.097457
2.3888528,0.3398969,12.097457
2.3888528,0.3398969,12.097457
2.8963046,0.5888355,12.758101
2.8963046,0.5888355,12.758101
2.8963046,0.5888355,12.758101
2.8963046,0.5888355,12.758101
1.6133133999999998,1.0388398,10.431483
1.6133133999999998,1.0388398,10.431483
1.6133133999999998,1.0388398,10.431483
1.6133133999999998,1.0388398,10.431483
1.3548003,1.2207563999999997,9.655944
1.3548003,1.2207563999999997,9.655944
1.3548003,1.2207563999999997,9.655944
1.3548003,1.2207563999999997,9.655944
1.5271424,1.4218222,9.5889225
1.5271424,1.4218222,9.5889225
1.5271424,1.4218222,9.5889225
1.5271424,1.4218222,9.5889225
1.5750152,1.3643749,9.263388
1.5750152,1.3643749,9.263388
1.5750152,1.3643749,9.263388
1.5750152,1.3643749,9.263388
1.4601203999999999,1.5558661,9.397431
1.4601203999999999,1.5558661,9.397431
1.4601203999999999,1.5558661,9.397431
1.4601203999999999,1.5558661,9.397431
1.4218222,1.2399056,9.5219
1.4218222,1.2399056,9.5219
1.4218222,1.2399056,9.5219
1.383524,1.469695,9.502751
1.383524,1.469695,9.502751
1.383524,1.469695,9.502751
1.383524,1.469695,9.502751
1.2399056,1.5941644,9.359133
1.2399056,1.5941644,9.359133
1.2399056,1.5941644,9.359133
1.2399056,1.5941644,9.359133
1.2973529,1.7377827000000001,9.110194
1.2973529,1.7377827000000001,9.110194
1.2973529,1.7377827000000001,9.110194
1.2973529,1.7377827000000001,9.110194
1.3452256999999999,1.709059,8.985725
1.3452256999999999,1.709059,8.985725
1.3452256999999999,1.709059,8.985725
1.3452256999999999,1.709059,8.985725
1.3452256999999999,1.709059,8.985725
1.6037389,1.6803354,9.138917999999999
1.6037389,1.6803354,9.138917999999999
1.6037389,1.6803354,9.138917999999999
1.7856555,1.6037389,9.177217
1.7856555,1.6037389,9.177217
1.7856555,1.6037389,9.177217
1.7856555,1.6037389,9.177217
1.7856555,1.6037389,9.177217
2.1399142999999996,1.4984187,9.2825365
2.1399142999999996,1.4984187,9.2825365
2.1399142999999996,1.4984187,9.2825365
2.1399142999999996,1.4984187,9.2825365
2.6952388,1.5750152,8.918703
2.6952388,1.5750152,8.918703
2.6952388,1.5750152,8.918703
3.1452432,1.7856555,8.765511
3.1452432,1.7856555,8.765511
3.1452432,1.7856555,8.765511
3.1452432,1.7856555,8.765511
3.1452432,1.7856555,8.765511
3.451629,1.5079931999999998,9.129342999999999
3.451629,1.5079931999999998,9.129342999999999
3.451629,1.5079931999999998,9.129342999999999
3.451629,1.5079931999999998,9.129342999999999
3.6239712,1.7282081999999999,9.033598
3.6239712,1.7282081999999999,9.033598
3.6239712,1.7282081999999999,9.033598
3.6239712,1.7282081999999999,9.033598
3.4133307999999998,1.6899098999999997,8.66019
3.4133307999999998,1.6899098999999997,8.66019
3.4133307999999998,1.6899098999999997,8.66019
3.1739669999999998,1.8143792,8.277207
3.1739669999999998,1.8143792,8.277207
3.1739669999999998,1.8143792,8.277207
3.1739669999999998,1.8143792,8.277207
3.451629,1.5175678999999997,8.813383
3.451629,1.5175678999999997,8.813383
3.451629,1.5175678999999997,8.813383
3.451629,1.5175678999999997,8.813383
3.8250370000000005,1.3165021000000001,9.0814705
3.8250370000000005,1.3165021000000001,9.0814705
3.8250370000000005,1.3165021000000001,9.0814705
3.8250370000000005,1.3165021000000001,9.0814705
3.3558834,1.5271424,8.621891999999999
3.3558834,1.5271424,8.621891999999999
3.3558834,1.5271424,8.621891999999999
3.3558834,1.5271424,8.621891999999999
3.2026904,1.469695,8.248484
3.2026904,1.469695,8.248484
3.2026904,1.469695,8.248484
3.2026904,1.469695,8.248484
3.3941817000000003,1.7952299999999999,8.526146
3.3941817000000003,1.7952299999999999,8.526146
3.3941817000000003,1.7952299999999999,8.526146
3.3941817000000003,1.7952299999999999,8.526146
3.6814184,1.2686293,8.937852000000001
3.6814184,1.2686293,8.937852000000001
3.6814184,1.2686293,8.937852000000001
3.6814184,1.2686293,8.937852000000001
3.8537605000000004,1.2016073,8.842107
3.8537605000000004,1.2016073,8.842107
3.8537605000000004,1.2016073,8.842107
3.8537605000000004,1.2016073,8.842107
3.604822,1.1824582000000001,8.736787
3.604822,1.1824582000000001,8.736787
3.604822,1.1824582000000001,8.736787
3.604822,1.1824582000000001,8.736787
3.5378,1.0196906,8.966576
3.5378,1.0196906,8.966576
3.5378,1.0196906,8.966576
3.5952474999999997,1.0101161,9.148492999999998
3.5952474999999997,1.0101161,9.148492999999998
3.5952474999999997,1.0101161,9.148492999999998
3.5952474999999997,1.0101161,9.148492999999998
3.5952474999999997,1.0101161,9.148492999999998
3.4229053999999994,0.9622433000000001,9.129342999999999
3.4229053999999994,0.9622433000000001,9.129342999999999
3.4229053999999994,0.9622433000000001,9.129342999999999
3.3941817000000003,1.0101161,9.225089
3.3941817000000003,1.0101161,9.225089
3.3941817000000003,1.0101161,9.225089
3.3941817000000003,1.0101161,9.225089
3.2409887000000004,0.8664976999999999,9.138917999999999
3.2409887000000004,0.8664976999999999,9.138917999999999
3.2409887000000004,0.8664976999999999,9.138917999999999
3.2409887000000004,0.8664976999999999,9.138917999999999
3.2409887000000004,0.8664976999999999,9.138917999999999
3.0016246,0.6558574,9.129342999999999
3.0016246,0.6558574,9.129342999999999
3.0016246,0.6558574,9.129342999999999
2.88673,0.5888355,9.0814705
2.88673,0.5888355,9.0814705
2.88673,0.5888355,9.0814705
2.88673,0.5888355,9.0814705
2.7718353,0.5218136,9.052747
2.7718353,0.5218136,9.052747
2.7718353,0.5218136,9.052747
2.7718353,0.5218136,9.052747
2.6186423,0.48351530000000004,9.158066999999999
2.6186423,0.48351530000000004,9.158066999999999
2.6186423,0.48351530000000004,9.158066999999999
2.6186423,0.48351530000000004,9.158066999999999
2.6569404999999997,0.42606795,9.512326
2.6569404999999997,0.42606795,9.512326
2.6569404999999997,0.42606795,9.512326
2.6569404999999997,0.42606795,9.512326
2.7048132000000003,0.48351530000000004,9.569773
2.7048132000000003,0.48351530000000004,9.569773
2.7048132000000003,0.48351530000000004,9.569773
2.7048132000000003,0.48351530000000004,9.569773
2.5994933,0.5888355,9.301685
2.5994933,0.5888355,9.301685
2.5994933,0.5888355,9.301685
2.5994933,0.5888355,9.301685
2.4463003,0.6750065,8.985725
2.4463003,0.6750065,8.985725
2.4463003,0.6750065,8.985725
2.6282167000000003,0.59841,9.071896
2.6282167000000003,0.59841,9.071896
2.6282167000000003,0.59841,9.071896
2.6282167000000003,0.59841,9.071896
2.6569404999999997,0.56011176,9.014449
2.6569404999999997,0.56011176,9.014449
2.6569404999999997,0.56011176,9.014449
2.6569404999999997,0.56011176,9.014449
2.4845984,0.7994758000000001,8.784659
2.4845984,0.7994758000000001,8.784659
2.4845984,0.7994758000000001,8.784659
2.4845984,0.7994758000000001,8.784659
2.4654493,1.0867126,8.11444
2.4654493,1.0867126,8.11444
2.4654493,1.0867126,8.11444
2.4654493,1.0867126,8.11444
3.059072,0.49308985,8.21976
3.059072,0.49308985,8.21976
3.059072,0.49308985,8.21976
3.059072,0.49308985,8.21976
3.5760984,0.98139244,8.104865
3.5760984,0.98139244,8.104865
3.5760984,0.98139244,8.104865
3.5760984,0.98139244,8.104865
4.1601467,2.2931072999999995,8.076141
4.1601467,2.2931072999999995,8.076141
4.1601467,2.2931072999999995,8.076141
4.1601467,2.2931072999999995,8.076141
4.8973875,1.7473572,8.612317
4.8973875,1.7473572,8.612317
4.8973875,1.7473572,8.612317
4.8973875,1.7473572,8.612317
5.414414,1.9962958,8.765511
5.414414,1.9962958,8.765511
5.414414,1.9962958,8.765511
5.414414,1.9962958,8.765511
5.6825019999999995,1.7377827000000001,8.822957
5.6825019999999995,1.7377827000000001,8.822957
5.6825019999999995,1.7377827000000001,8.822957
5.6825019999999995,1.7377827000000001,8.822957
5.6633525,1.5175678999999997,8.545295
5.6633525,1.5175678999999997,8.545295
5.6633525,1.5175678999999997,8.545295
5.6633525,1.5175678999999997,8.545295
5.529309,1.862252,8.286782
5.529309,1.862252,8.286782
5.529309,1.862252,8.286782
5.529309,1.862252,8.286782
5.5101595,1.6037389,8.028269
5.5101595,1.6037389,8.028269
5.5101595,1.6037389,8.028269
5.347392,1.6611862000000002,7.721883
5.347392,1.6611862000000002,7.721883
5.347392,1.6611862000000002,7.721883
5.347392,1.6611862000000002,7.721883
5.347392,1.6611862000000002,7.721883
5.309094,1.5367169,7.3389006
5.309094,1.5367169,7.3389006
5.309094,1.5367169,7.3389006
4.9069624,1.3069274,6.5154879999999995
4.9069624,1.3069274,6.5154879999999995
4.9069624,1.3069274,6.5154879999999995
4.9069624,1.3069274,6.5154879999999995
4.782493,0.76117754,5.586755999999999
4.782493,0.76117754,5.586755999999999
4.782493,0.76117754,5.586755999999999
4.782493,0.76117754,5.586755999999999
5.644203,-0.25372586,5.4335629999999995
5.644203,-0.25372586,5.4335629999999995
5.644203,-0.25372586,5.4335629999999995
5.644203,-0.25372586,5.4335629999999995
5.644203,-0.5505372,5.06973
5.644203,-0.5505372,5.06973
5.644203,-0.5505372,5.06973
5.644203,-0.5505372,5.06973
7.635712,-0.512239,5.950589
7.635712,-0.512239,5.950589
7.635712,-0.512239,5.950589
7.635712,-0.512239,5.950589
9.799562,0.05266008,5.653778
9.799562,0.05266008,5.653778
9.799562,0.05266008,5.653778
9.799562,0.05266008,5.653778
10.967659,-0.63670826,4.8782387
10.967659,-0.63670826,4.8782387
10.967659,-0.63670826,4.8782387
10.967659,-0.63670826,4.8782387
11.963413000000001,-0.85692316,4.581427
11.963413000000001,-0.85692316,4.581427
11.963413000000001,-0.85692316,4.581427
11.963413000000001,-0.85692316,4.581427
11.570856,0.40691882,4.456958
11.570856,0.40691882,4.456958
11.570856,0.40691882,4.456958
11.570856,0.40691882,4.456958
10.958084,0.081383765,3.7292912000000005
10.958084,0.081383765,3.7292912000000005
10.958084,0.081383765,3.7292912000000005
10.958084,0.081383765,3.7292912000000005
9.952755999999999,0.0,3.1356685
9.952755999999999,0.0,3.1356685
9.952755999999999,0.0,3.1356685
9.952755999999999,0.0,3.1356685
9.952755999999999,0.0,3.1356685
9.043172,0.11968201,3.0877957
9.043172,0.11968201,3.0877957
9.043172,0.11968201,3.0877957
9.828286,-0.22500217,2.3122563
9.828286,-0.22500217,2.3122563
9.828286,-0.22500217,2.3122563
9.828286,-0.22500217,2.3122563
9.828286,-0.22500217,2.3122563
10.19212,-1.0292653,2.800559
10.19212,-1.0292653,2.800559
10.19212,-1.0292653,2.800559
10.19212,-1.0292653,2.800559
7.271878699999999,-0.751603,2.5516202
7.271878699999999,-0.751603,2.5516202
7.271878699999999,-0.751603,2.5516202
5.309094,0.05266008,2.7239625
5.309094,0.05266008,2.7239625
5.309094,0.05266008,2.7239625
5.309094,0.05266008,2.7239625
5.309094,0.05266008,2.7239625
5.146326,0.37819514,2.494173
5.146326,0.37819514,2.494173
5.146326,0.37819514,2.494173
5.146326,0.37819514,2.494173
7.8367777,0.34947145,2.513322
7.8367777,0.34947145,2.513322
7.8367777,0.34947145,2.513322
7.8367777,0.34947145,2.513322
13.705982999999998,-0.91437054,3.0686467
13.705982999999998,-0.91437054,3.0686467
13.705982999999998,-0.91437054,3.0686467
14.069817,-1.9196993000000002,1.7569318999999999
14.069817,-1.9196993000000002,1.7569318999999999
14.069817,-1.9196993000000002,1.7569318999999999
14.069817,-1.9196993000000002,1.7569318999999999
13.188957,-1.7377827000000001,2.2739582
13.188957,-1.7377827000000001,2.2739582
13.188957,-1.7377827000000001,2.2739582
13.188957,-1.7377827000000001,2.2739582
9.502751,-1.862252,2.2643836
9.502751,-1.862252,2.2643836
9.502751,-1.862252,2.2643836
9.502751,-1.862252,2.2643836
5.232497,-0.8760723,2.8388572
5.232497,-0.8760723,2.8388572
5.232497,-0.8760723,2.8388572
5.232497,-0.8760723,2.8388572
3.7580150000000003,-0.3877697,2.5707695
3.7580150000000003,-0.3877697,2.5707695
3.7580150000000003,-0.3877697,2.5707695
3.7580150000000003,-0.3877697,2.5707695
6.3431463,-0.6558574,2.8388572
6.3431463,-0.6558574,2.8388572
6.3431463,-0.6558574,2.8388572
9.368708,-1.1920328000000002,2.3888528
9.368708,-1.1920328000000002,2.3888528
9.368708,-1.1920328000000002,2.3888528
9.368708,-1.1920328000000002,2.3888528
9.368708,-1.1920328000000002,2.3888528
18.253899,-2.8101335,3.4133307999999998
18.253899,-2.8101335,3.4133307999999998
18.253899,-2.8101335,3.4133307999999998
15.869833999999999,-2.6760897999999997,5.500585
15.869833999999999,-2.6760897999999997,5.500585
15.869833999999999,-2.6760897999999997,5.500585
15.869833999999999,-2.6760897999999997,5.500585
9.004874000000001,-0.5313880999999999,3.7963133
9.004874000000001,-0.5313880999999999,3.7963133
9.004874000000001,-0.5313880999999999,3.7963133
9.004874000000001,-0.5313880999999999,3.7963133
3.6526947,-0.54096264,3.0111992
3.6526947,-0.54096264,3.0111992
3.6526947,-0.54096264,3.0111992
3.6526947,-0.54096264,3.0111992
3.1452432,-0.90479594,1.9675721999999998
3.1452432,-0.90479594,1.9675721999999998
3.1452432,-0.90479594,1.9675721999999998
3.1452432,-0.90479594,1.9675721999999998
5.739949,-0.3877697,2.7048132000000003
5.739949,-0.3877697,2.7048132000000003
5.739949,-0.3877697,2.7048132000000003
9.952755999999999,-0.5792609000000001,3.078221
9.952755999999999,-0.5792609000000001,3.078221
9.952755999999999,-0.5792609000000001,3.078221
9.952755999999999,-0.5792609000000001,3.078221
9.952755999999999,-0.5792609000000001,3.078221
14.500670999999999,-2.0920415,2.015445
14.500670999999999,-2.0920415,2.015445
14.500670999999999,-2.0920415,2.015445
18.579435,-4.5239797,3.2888615
18.579435,-4.5239797,3.2888615
18.579435,-4.5239797,3.2888615
18.579435,-4.5239797,3.2888615
12.844273,-3.2888615,2.1399142999999996
12.844273,-3.2888615,2.1399142999999996
12.844273,-3.2888615,2.1399142999999996
12.844273,-3.2888615,2.1399142999999996
6.630383,-1.9962958,3.1452432
6.630383,-1.9962958,3.1452432
6.630383,-1.9962958,3.1452432
6.630383,-1.9962958,3.1452432
1.6228879999999999,-0.44521707,2.101616
1.6228879999999999,-0.44521707,2.101616
1.6228879999999999,-0.44521707,2.101616
1.6228879999999999,-0.44521707,2.101616
2.5420458,-0.359046,1.6516117
2.5420458,-0.359046,1.6516117
2.5420458,-0.359046,1.6516117
2.5420458,-0.359046,1.6516117
7.281453,-1.1920328000000002,2.6952388
7.281453,-1.1920328000000002,2.6952388
7.281453,-1.1920328000000002,2.6952388
7.281453,-1.1920328000000002,2.6952388
12.164479,-2.2643836,3.0494976
12.164479,-2.2643836,3.0494976
12.164479,-2.2643836,3.0494976
15.908133,-3.844186,4.1792955
15.908133,-3.844186,4.1792955
15.908133,-3.844186,4.1792955
15.908133,-3.844186,4.1792955
14.692163,-3.4133307999999998,5.605905
14.692163,-3.4133307999999998,5.605905
14.692163,-3.4133307999999998,5.605905
14.692163,-3.4133307999999998,5.605905
9.7899885,-1.1824582000000001,4.6293
9.7899885,-1.1824582000000001,4.6293
9.7899885,-1.1824582000000001,4.6293
9.7899885,-1.1824582000000001,4.6293
4.121848,-0.64628285,3.0016246
4.121848,-0.64628285,3.0016246
4.121848,-0.64628285,3.0016246
4.121848,-0.64628285,3.0016246
4.121848,-0.64628285,3.0016246
1.3930986,-0.22500217,1.2782038
1.3930986,-0.22500217,1.2782038
1.3930986,-0.22500217,1.2782038
6.869747,-0.5505372,2.9537517999999996
6.869747,-0.5505372,2.9537517999999996
6.869747,-0.5505372,2.9537517999999996
6.869747,-0.5505372,2.9537517999999996
6.869747,-0.5505372,2.9537517999999996
11.647452000000001,-1.2399056,2.1782124
11.647452000000001,-1.2399056,2.1782124
11.647452000000001,-1.2399056,2.1782124
11.647452000000001,-1.2399056,2.1782124
17.306019,-3.0111992,1.5079931999999998
17.306019,-3.0111992,1.5079931999999998
17.306019,-3.0111992,1.5079931999999998
17.03793,-3.9016335,2.0058703
17.03793,-3.9016335,2.0058703
17.03793,-3.9016335,2.0058703
17.03793,-3.9016335,2.0058703
17.03793,-3.9016335,2.0058703
11.130426,-2.7622607000000006,2.3026817000000004
11.130426,-2.7622607000000006,2.3026817000000004
11.130426,-2.7622607000000006,2.3026817000000004
11.130426,-2.7622607000000006,2.3026817000000004
3.9878044000000004,-1.3548003,2.5516202
3.9878044000000004,-1.3548003,2.5516202
3.9878044000000004,-1.3548003,2.5516202
3.9878044000000004,-1.3548003,2.5516202
2.0920415,-0.11968201,0.77075213
2.0920415,-0.11968201,0.77075213
2.0920415,-0.11968201,0.77075213
5.108028,-1.1058618,1.5750152
5.108028,-1.1058618,1.5750152
5.108028,-1.1058618,1.5750152
5.108028,-1.1058618,1.5750152
7.482519,-2.3984275,2.149489
7.482519,-2.3984275,2.149489
7.482519,-2.3984275,2.149489
7.482519,-2.3984275,2.149489
12.633633,-4.131423000000001,2.8771553
12.633633,-4.131423000000001,2.8771553
12.633633,-4.131423000000001,2.8771553
12.633633,-4.131423000000001,2.8771553
16.942184,-4.150572,5.6825019999999995
16.942184,-4.150572,5.6825019999999995
16.942184,-4.150572,5.6825019999999995
16.942184,-4.150572,5.6825019999999995
15.228338,-2.3984275,5.672927
15.228338,-2.3984275,5.672927
15.228338,-2.3984275,5.672927
15.228338,-2.3984275,5.672927
8.133589,-0.359046,4.476107
8.133589,-0.359046,4.476107
8.133589,-0.359046,4.476107
2.1111906000000005,-0.2441513,1.8718264999999998
2.1111906000000005,-0.2441513,1.8718264999999998
2.1111906000000005,-0.2441513,1.8718264999999998
2.1111906000000005,-0.2441513,1.8718264999999998
2.1111906000000005,-0.2441513,1.8718264999999998
3.0016246,-0.56968635,1.5558661
3.0016246,-0.56968635,1.5558661
3.0016246,-0.56968635,1.5558661
9.033598,-1.3930986,2.3505547000000004
9.033598,-1.3930986,2.3505547000000004
9.033598,-1.3930986,2.3505547000000004
9.033598,-1.3930986,2.3505547000000004
12.365545,-1.7473572,1.6707608
12.365545,-1.7473572,1.6707608
12.365545,-1.7473572,1.6707608
12.365545,-1.7473572,1.6707608
14.270883,-3.384607,1.469695
14.270883,-3.384607,1.469695
14.270883,-3.384607,1.469695
14.270883,-3.384607,1.469695
16.15707,-3.2697124,3.1835412999999995
16.15707,-3.2697124,3.1835412999999995
16.15707,-3.2697124,3.1835412999999995
16.15707,-3.2697124,3.1835412999999995
11.800646,-2.168638,2.714388
11.800646,-2.168638,2.714388
11.800646,-2.168638,2.714388
11.800646,-2.168638,2.714388
4.6005764000000005,-1.5367169,3.0973704
4.6005764000000005,-1.5367169,3.0973704
4.6005764000000005,-1.5367169,3.0973704
4.6005764000000005,-1.5367169,3.0973704
4.6005764000000005,-1.5367169,3.0973704
1.9101248,-0.15798025,2.5803439999999997
1.9101248,-0.15798025,2.5803439999999997
1.9101248,-0.15798025,2.5803439999999997
4.5527034,-0.71330476,1.6707608
4.5527034,-0.71330476,1.6707608
4.5527034,-0.71330476,1.6707608
4.5527034,-0.71330476,1.6707608
8.918703,-2.647366,2.0824668
8.918703,-2.647366,2.0824668
8.918703,-2.647366,2.0824668
8.918703,-2.647366,2.0824668
12.863422,-3.8920587999999996,2.7909843999999997
12.863422,-3.8920587999999996,2.7909843999999997
12.863422,-3.8920587999999996,2.7909843999999997
12.863422,-3.8920587999999996,2.7909843999999997
16.540052,-4.9069624,4.2175937
16.540052,-4.9069624,4.2175937
16.540052,-4.9069624,4.2175937
16.540052,-4.9069624,4.2175937
13.428320999999999,-2.0441686999999997,5.6633525
13.428320999999999,-2.0441686999999997,5.6633525
13.428320999999999,-2.0441686999999997,5.6633525
13.428320999999999,-2.0441686999999997,5.6633525
8.23891,-1.2399056,4.4952559999999995
8.23891,-1.2399056,4.4952559999999995
8.23891,-1.2399056,4.4952559999999995
8.23891,-1.2399056,4.4952559999999995
2.3697037999999995,-1.3452256999999999,2.2452345
2.3697037999999995,-1.3452256999999999,2.2452345
2.3697037999999995,-1.3452256999999999,2.2452345
1.709059,-0.16755481,1.4122477
1.709059,-0.16755481,1.4122477
1.709059,-0.16755481,1.4122477
1.709059,-0.16755481,1.4122477
7.683584700000001,-0.69415563,2.8580062
7.683584700000001,-0.69415563,2.8580062
7.683584700000001,-0.69415563,2.8580062
7.683584700000001,-0.69415563,2.8580062
14.998548499999998,-1.9101248,1.2686293
14.998548499999998,-1.9101248,1.2686293
14.998548499999998,-1.9101248,1.2686293
14.998548499999998,-1.9101248,1.2686293
16.5975,-4.3707867,-0.0718092
16.5975,-4.3707867,-0.0718092
16.5975,-4.3707867,-0.0718092
16.5975,-4.3707867,-0.0718092
16.080475,-4.9835587,2.867581
16.080475,-4.9835587,2.867581
16.080475,-4.9835587,2.867581
16.080475,-4.9835587,2.867581
8.363379,-1.8239537000000001,2.494173
8.363379,-1.8239537000000001,2.494173
8.363379,-1.8239537000000001,2.494173
2.8963046,-1.4218222,1.7665064
2.8963046,-1.4218222,1.7665064
2.8963046,-1.4218222,1.7665064
2.8963046,-1.4218222,1.7665064
2.8963046,-1.4218222,1.7665064
2.9537517999999996,-1.1250108,1.0388398
2.9537517999999996,-1.1250108,1.0388398
2.9537517999999996,-1.1250108,1.0388398
5.38569,-2.0441686999999997,1.383524
5.38569,-2.0441686999999997,1.383524
5.38569,-2.0441686999999997,1.383524
5.38569,-2.0441686999999997,1.383524
9.799562,-2.3697037999999995,1.4984187
9.799562,-2.3697037999999995,1.4984187
9.799562,-2.3697037999999995,1.4984187
9.799562,-2.3697037999999995,1.4984187
16.185795000000002,-3.193116,2.7048132000000003
16.185795000000002,-3.193116,2.7048132000000003
16.185795000000002,-3.193116,2.7048132000000003
16.185795000000002,-3.193116,2.7048132000000003
16.118773,-0.93351966,5.242071599999999
16.118773,-0.93351966,5.242071599999999
16.118773,-0.93351966,5.242071599999999
16.118773,-0.93351966,5.242071599999999
13.016615,-0.46436617,4.2080193
13.016615,-0.46436617,4.2080193
13.016615,-0.46436617,4.2080193
13.016615,-0.46436617,4.2080193
5.653778,-1.4505458999999998,2.88673
5.653778,-1.4505458999999998,2.88673
5.653778,-1.4505458999999998,2.88673
5.653778,-1.4505458999999998,2.88673
4.2654667,-1.6994845,1.5750152
4.2654667,-1.6994845,1.5750152
4.2654667,-1.6994845,1.5750152
5.605905,-2.561195,2.427151
5.605905,-2.561195,2.427151
5.605905,-2.561195,2.427151
5.605905,-2.561195,2.427151
5.605905,-2.561195,2.427151
10.29744,-2.4175766,2.9633265
10.29744,-2.4175766,2.9633265
10.29744,-2.4175766,2.9633265
17.535807000000002,-3.4229053999999994,3.0207740000000003
17.535807000000002,-3.4229053999999994,3.0207740000000003
17.535807000000002,-3.4229053999999994,3.0207740000000003
17.535807000000002,-3.4229053999999994,3.0207740000000003
13.543216000000001,-1.5750152,1.1345854
13.543216000000001,-1.5750152,1.1345854
13.543216000000001,-1.5750152,1.1345854
13.543216000000001,-1.5750152,1.1345854
12.557036,-3.844186,2.5899186000000003
12.557036,-3.844186,2.5899186000000003
12.557036,-3.844186,2.5899186000000003
12.557036,-3.844186,2.5899186000000003
8.372953,-2.149489,3.7101421
8.372953,-2.149489,3.7101421
8.372953,-2.149489,3.7101421
8.372953,-2.149489,3.7101421
7.176133,0.023936402000000002,2.6569404999999997
7.176133,0.023936402000000002,2.6569404999999997
7.176133,0.023936402000000002,2.6569404999999997
6.783575999999999,-1.4505458999999998,1.2590546999999999
6.783575999999999,-1.4505458999999998,1.2590546999999999
6.783575999999999,-1.4505458999999998,1.2590546999999999
6.783575999999999,-1.4505458999999998,1.2590546999999999
7.8272033,-2.561195,0.5313880999999999
7.8272033,-2.561195,0.5313880999999999
7.8272033,-2.561195,0.5313880999999999
7.8272033,-2.561195,0.5313880999999999
9.732541000000001,-2.972901,0.49308985
9.732541000000001,-2.972901,0.49308985
9.732541000000001,-2.972901,0.49308985
9.732541000000001,-2.972901,0.49308985
10.94851,-2.6760897999999997,-0.2154276
10.94851,-2.6760897999999997,-0.2154276
10.94851,-2.6760897999999997,-0.2154276
10.94851,-2.6760897999999997,-0.2154276
14.002794,-3.671844,1.1537346000000002
14.002794,-3.671844,1.1537346000000002
14.002794,-3.671844,1.1537346000000002
14.002794,-3.671844,1.1537346000000002
10.689997,-1.9771467,1.5750152
10.689997,-1.9771467,1.5750152
10.689997,-1.9771467,1.5750152
10.689997,-1.9771467,1.5750152
7.5399666,-1.5654407,2.5707695
7.5399666,-1.5654407,2.5707695
7.5399666,-1.5654407,2.5707695
7.5399666,-1.5654407,2.5707695
5.49101,-1.6420371999999999,2.1303396
5.49101,-1.6420371999999999,2.1303396
5.49101,-1.6420371999999999,2.1303396
6.706979799999999,-2.733537,2.6952388
6.706979799999999,-2.733537,2.6952388
6.706979799999999,-2.733537,2.6952388
6.706979799999999,-2.733537,2.6952388
8.909127999999999,-3.5665237999999997,2.9154537
8.909127999999999,-3.5665237999999997,2.9154537
8.909127999999999,-3.5665237999999997,2.9154537
8.909127999999999,-3.5665237999999997,2.9154537
13.485767999999998,-3.7101421,3.6431203
13.485767999999998,-3.7101421,3.6431203
13.485767999999998,-3.7101421,3.6431203
13.485767999999998,-3.7101421,3.6431203
14.558119,-2.9633265,3.690993
14.558119,-2.9633265,3.690993
14.558119,-2.9633265,3.690993
14.558119,-2.9633265,3.690993
10.795316999999999,-2.4845984,1.9005502
10.795316999999999,-2.4845984,1.9005502
10.795316999999999,-2.4845984,1.9005502
10.795316999999999,-2.4845984,1.9005502
13.418745999999999,-3.1165195,2.9346027
13.418745999999999,-3.1165195,2.9346027
13.418745999999999,-3.1165195,2.9346027
13.418745999999999,-3.1165195,2.9346027
8.583592999999999,-1.2686293,2.2165107999999996
8.583592999999999,-1.2686293,2.2165107999999996
8.583592999999999,-1.2686293,2.2165107999999996
7.128260000000001,-1.1728836,1.9867213
7.128260000000001,-1.1728836,1.9867213
7.128260000000001,-1.1728836,1.9867213
7.128260000000001,-1.1728836,1.9867213
7.128260000000001,-1.1728836,1.9867213
5.988887999999999,-0.8281995000000001,1.6420371999999999
5.988887999999999,-0.8281995000000001,1.6420371999999999
5.988887999999999,-0.8281995000000001,1.6420371999999999
7.214431299999999,-1.3548003,0.751603
7.214431299999999,-1.3548003,0.751603
7.214431299999999,-1.3548003,0.751603
7.214431299999999,-1.3548003,0.751603
8.765511,-1.7473572,-0.081383765
8.765511,-1.7473572,-0.081383765
8.765511,-1.7473572,-0.081383765
8.765511,-1.7473572,-0.081383765
13.34215,-4.1792955,1.2111819
13.34215,-4.1792955,1.2111819
13.34215,-4.1792955,1.2111819
13.34215,-4.1792955,1.2111819
12.719804,-3.6239712,2.2069361
12.719804,-3.6239712,2.2069361
12.719804,-3.6239712,2.2069361
12.719804,-3.6239712,2.2069361
8.851681,-2.6090677,3.4229053999999994
8.851681,-2.6090677,3.4229053999999994
8.851681,-2.6090677,3.4229053999999994
8.851681,-2.6090677,3.4229053999999994
4.993133,-1.9388485,2.9920502
4.993133,-1.9388485,2.9920502
4.993133,-1.9388485,2.9920502
3.6431203,-2.5994933,2.4654493
3.6431203,-2.5994933,2.4654493
3.6431203,-2.5994933,2.4654493
3.6431203,-2.5994933,2.4654493
4.9356860000000005,-2.666515,2.321831
4.9356860000000005,-2.666515,2.321831
4.9356860000000005,-2.666515,2.321831
4.9356860000000005,-2.666515,2.321831
10.268716,-2.972901,2.3122563
10.268716,-2.972901,2.3122563
10.268716,-2.972901,2.3122563
10.268716,-2.972901,2.3122563
18.301773,-4.715471,1.1537346000000002
18.301773,-4.715471,1.1537346000000002
18.301773,-4.715471,1.1537346000000002
18.301773,-4.715471,1.1537346000000002
14.988975,-3.8346114,0.6750065
14.988975,-3.8346114,0.6750065
14.988975,-3.8346114,0.6750065
14.988975,-3.8346114,0.6750065
9.579348,-1.5175678999999997,0.8760723
9.579348,-1.5175678999999997,0.8760723
9.579348,-1.5175678999999997,0.8760723
9.579348,-1.5175678999999997,0.8760723
3.8824842000000004,-0.32074776,0.7420284
3.8824842000000004,-0.32074776,0.7420284
3.8824842000000004,-0.32074776,0.7420284
4.1601467,-0.5313880999999999,1.5079931999999998
4.1601467,-0.5313880999999999,1.5079931999999998
4.1601467,-0.5313880999999999,1.5079931999999998
4.1601467,-0.5313880999999999,1.5079931999999998
5.979312999999999,-1.1728836,0.61755913
5.979312999999999,-1.1728836,0.61755913
5.979312999999999,-1.1728836,0.61755913
5.979312999999999,-1.1728836,0.61755913
13.514492,-2.494173,0.751603
13.514492,-2.494173,0.751603
13.514492,-2.494173,0.751603
13.514492,-2.494173,0.751603
19.53689,-4.1888704,2.3505547000000004
19.53689,-4.1888704,2.3505547000000004
19.53689,-4.1888704,2.3505547000000004
19.53689,-4.1888704,2.3505547000000004
13.380448000000001,-0.18670394,2.8101335
13.380448000000001,-0.18670394,2.8101335
13.380448000000001,-0.18670394,2.8101335
13.380448000000001,-0.18670394,2.8101335
8.545295,-1.0005416,4.437809
8.545295,-1.0005416,4.437809
8.545295,-1.0005416,4.437809
8.545295,-1.0005416,4.437809
2.3697037999999995,-1.4026731000000001,2.5994933
2.3697037999999995,-1.4026731000000001,2.5994933
2.3697037999999995,-1.4026731000000001,2.5994933
3.4324798999999997,-1.2399056,2.168638
3.4324798999999997,-1.2399056,2.168638
3.4324798999999997,-1.2399056,2.168638
3.4324798999999997,-1.2399056,2.168638
3.4324798999999997,-1.2399056,2.168638
7.6740103,-1.2973529,2.5324712000000003
7.6740103,-1.2973529,2.5324712000000003
7.6740103,-1.2973529,2.5324712000000003
11.934689500000001,-2.0633178,1.1537346000000002
11.934689500000001,-2.0633178,1.1537346000000002
11.934689500000001,-2.0633178,1.1537346000000002
11.934689500000001,-2.0633178,1.1537346000000002
18.627308,-4.0644007,0.14840569
18.627308,-4.0644007,0.14840569
18.627308,-4.0644007,0.14840569
18.627308,-4.0644007,0.14840569
13.112360999999998,-3.7484405,-0.00478728
13.112360999999998,-3.7484405,-0.00478728
13.112360999999998,-3.7484405,-0.00478728
13.112360999999998,-3.7484405,-0.00478728
8.32508,-2.8484317999999997,1.3356511999999998
8.32508,-2.8484317999999997,1.3356511999999998
8.32508,-2.8484317999999997,1.3356511999999998
8.32508,-2.8484317999999997,1.3356511999999998
2.6186423,-1.862252,1.7569318999999999
2.6186423,-1.862252,1.7569318999999999
2.6186423,-1.862252,1.7569318999999999
2.6186423,-1.862252,1.7569318999999999
3.7675896,-1.948423,1.9675721999999998
3.7675896,-1.948423,1.9675721999999998
3.7675896,-1.948423,1.9675721999999998
3.7675896,-1.948423,1.9675721999999998
6.6878304,-1.8526775000000002,2.3026817000000004
6.6878304,-1.8526775000000002,2.3026817000000004
6.6878304,-1.8526775000000002,2.3026817000000004
16.013453,-2.9537517999999996,1.5654407
16.013453,-2.9537517999999996,1.5654407
16.013453,-2.9537517999999996,1.5654407
16.013453,-2.9537517999999996,1.5654407
16.30069,-4.08355,3.4133307999999998
16.30069,-4.08355,3.4133307999999998
16.30069,-4.08355,3.4133307999999998
16.30069,-4.08355,3.4133307999999998
11.972988,-1.9962958,3.4803526
11.972988,-1.9962958,3.4803526
11.972988,-1.9962958,3.4803526
11.972988,-1.9962958,3.4803526
5.653778,-0.4164934,2.867581
5.653778,-0.4164934,2.867581
5.653778,-0.4164934,2.867581
5.653778,-0.4164934,2.867581
3.0686467,-1.2016073,1.6994845
3.0686467,-1.2016073,1.6994845
3.0686467,-1.2016073,1.6994845
3.0686467,-1.2016073,1.6994845
5.8931417,-1.8335283,1.4601203999999999
5.8931417,-1.8335283,1.4601203999999999
5.8931417,-1.8335283,1.4601203999999999
10.307014,-1.8143792,1.5941644
10.307014,-1.8143792,1.5941644
10.307014,-1.8143792,1.5941644
10.307014,-1.8143792,1.5941644
10.307014,-1.8143792,1.5941644
13.99322,-2.733537,1.6516117
13.99322,-2.733537,1.6516117
13.99322,-2.733537,1.6516117
15.055995999999999,-3.0973704,1.383524
15.055995999999999,-3.0973704,1.383524
15.055995999999999,-3.0973704,1.383524
15.055995999999999,-3.0973704,1.383524
12.805975,-2.7239625,2.0441686999999997
12.805975,-2.7239625,2.0441686999999997
12.805975,-2.7239625,2.0441686999999997
12.805975,-2.7239625,2.0441686999999997
8.124015,-2.5516202,2.5707695
8.124015,-2.5516202,2.5707695
8.124015,-2.5516202,2.5707695
8.124015,-2.5516202,2.5707695
2.3026817000000004,-1.6324625,2.3122563
2.3026817000000004,-1.6324625,2.3122563
2.3026817000000004,-1.6324625,2.3122563
2.3026817000000004,-1.6324625,2.3122563
5.376116000000001,-1.6324625,2.3984275
5.376116000000001,-1.6324625,2.3984275
5.376116000000001,-1.6324625,2.3984275
5.376116000000001,-1.6324625,2.3984275
8.621891999999999,-2.4367256,1.6899098999999997
8.621891999999999,-2.4367256,1.6899098999999997
8.621891999999999,-2.4367256,1.6899098999999997
8.621891999999999,-2.4367256,1.6899098999999997
13.696407999999998,-3.8633351,1.5175678999999997
13.696407999999998,-3.8633351,1.5175678999999997
13.696407999999998,-3.8633351,1.5175678999999997
12.135756,-3.8346114,1.4218222
12.135756,-3.8346114,1.4218222
12.135756,-3.8346114,1.4218222
12.135756,-3.8346114,1.4218222
12.135756,-3.8346114,1.4218222
10.575102000000001,-2.9154537,3.4420545
10.575102000000001,-2.9154537,3.4420545
10.575102000000001,-2.9154537,3.4420545
7.788905000000001,-1.4601203999999999,2.8580062
7.788905000000001,-1.4601203999999999,2.8580062
7.788905000000001,-1.4601203999999999,2.8580062
7.788905000000001,-1.4601203999999999,2.8580062
5.7495236,-1.6420371999999999,2.4558747000000003
5.7495236,-1.6420371999999999,2.4558747000000003
5.7495236,-1.6420371999999999,2.4558747000000003
5.7495236,-1.6420371999999999,2.4558747000000003
8.727212,-1.9292740000000002,2.7718353
8.727212,-1.9292740000000002,2.7718353
8.727212,-1.9292740000000002,2.7718353
8.727212,-1.9292740000000002,2.7718353
11.72405,-1.5558661,1.4888442
11.72405,-1.5558661,1.4888442
11.72405,-1.5558661,1.4888442
11.72405,-1.5558661,1.4888442
13.677259,-2.752686,0.751603
13.677259,-2.752686,0.751603
13.677259,-2.752686,0.751603
11.417664,-2.2643836,0.46436617
11.417664,-2.2643836,0.46436617
11.417664,-2.2643836,0.46436617
11.417664,-2.2643836,0.46436617
6.47719,-2.2356597999999996,0.512239
6.47719,-2.2356597999999996,0.512239
6.47719,-2.2356597999999996,0.512239
6.47719,-2.2356597999999996,0.512239
6.036760299999999,-2.149489,1.0962871
6.036760299999999,-2.149489,1.0962871
6.036760299999999,-2.149489,1.0962871
7.195282000000001,-1.8143792,2.2165107999999996
7.195282000000001,-1.8143792,2.2165107999999996
7.195282000000001,-1.8143792,2.2165107999999996
7.195282000000001,-1.8143792,2.2165107999999996
7.195282000000001,-1.8143792,2.2165107999999996
10.795316999999999,-2.034594,1.6994845
10.795316999999999,-2.034594,1.6994845
10.795316999999999,-2.034594,1.6994845
13.332576000000001,-3.7292912000000005,1.3739493999999999
13.332576000000001,-3.7292912000000005,1.3739493999999999
13.332576000000001,-3.7292912000000005,1.3739493999999999
13.332576000000001,-3.7292912000000005,1.3739493999999999
11.781497,-4.016528,3.9495062999999995
11.781497,-4.016528,3.9495062999999995
11.781497,-4.016528,3.9495062999999995
11.781497,-4.016528,3.9495062999999995
11.781497,-4.016528,3.9495062999999995
7.6740103,-0.6845810999999999,3.0973704
7.6740103,-0.6845810999999999,3.0973704
7.6740103,-0.6845810999999999,3.0973704
6.132505999999999,-1.3548003,2.6090677
6.132505999999999,-1.3548003,2.6090677
6.132505999999999,-1.3548003,2.6090677
6.132505999999999,-1.3548003,2.6090677
8.181462,-2.0633178,2.8484317999999997
8.181462,-2.0633178,2.8484317999999997
8.181462,-2.0633178,2.8484317999999997
8.181462,-2.0633178,2.8484317999999997
8.181462,-2.0633178,2.8484317999999997
12.327247,-1.469695,1.4792696
12.327247,-1.469695,1.4792696
12.327247,-1.469695,1.4792696
12.327247,-1.469695,1.4792696
12.624058,-1.9101248,-0.15798025
12.624058,-1.9101248,-0.15798025
12.624058,-1.9101248,-0.15798025
12.174053,-2.6090677,0.2154276
12.174053,-2.6090677,0.2154276
12.174053,-2.6090677,0.2154276
12.174053,-2.6090677,0.2154276
7.7027339999999995,-1.948423,0.014361841
7.7027339999999995,-1.948423,0.014361841
7.7027339999999995,-1.948423,0.014361841
7.7027339999999995,-1.948423,0.014361841
7.1857076,-2.34098,0.78032666
7.1857076,-2.34098,0.78032666
7.1857076,-2.34098,0.78032666
7.1857076,-2.34098,0.78032666
7.1857076,-1.6133133999999998,1.8048046999999998
7.1857076,-1.6133133999999998,1.8048046999999998
7.1857076,-1.6133133999999998,1.8048046999999998
7.1857076,-1.6133133999999998,1.8048046999999998
7.1857076,-1.6133133999999998,1.8048046999999998
11.657027000000001,-2.0537431,0.6079846
11.657027000000001,-2.0537431,0.6079846
11.657027000000001,-2.0537431,0.6079846
14.424075,-4.0548263,1.5654407
14.424075,-4.0548263,1.5654407
14.424075,-4.0548263,1.5654407
14.424075,-4.0548263,1.5654407
11.465536,-2.3984275,4.016528
11.465536,-2.3984275,4.016528
11.465536,-2.3984275,4.016528
11.465536,-2.3984275,4.016528
7.7506065,0.8856468000000001,2.0441686999999997
7.7506065,0.8856468000000001,2.0441686999999997
7.7506065,0.8856468000000001,2.0441686999999997
7.7506065,0.8856468000000001,2.0441686999999997
6.094208,-1.1345854,1.6899098999999997
6.094208,-1.1345854,1.6899098999999997
6.094208,-1.1345854,1.6899098999999997
6.094208,-1.1345854,1.6899098999999997
9.292110000000001,-1.776081,2.972901
9.292110000000001,-1.776081,2.972901
9.292110000000001,-1.776081,2.972901
9.292110000000001,-1.776081,2.972901
10.651698,-1.6037389,2.867581
10.651698,-1.6037389,2.867581
10.651698,-1.6037389,2.867581
10.651698,-1.6037389,2.867581
9.866585,-1.709059,2.8580062
9.866585,-1.709059,2.8580062
9.866585,-1.709059,2.8580062
10.144247,-1.862252,1.948423
10.144247,-1.862252,1.948423
10.144247,-1.862252,1.948423
10.144247,-1.862252,1.948423
17.631554,-5.1654754,1.6707608
17.631554,-5.1654754,1.6707608
17.631554,-5.1654754,1.6707608
17.631554,-5.1654754,1.6707608
11.025106,-3.5282254,3.2409887000000004
11.025106,-3.5282254,3.2409887000000004
11.025106,-3.5282254,3.2409887000000004
11.025106,-3.5282254,3.2409887000000004
9.244238000000001,0.7994758000000001,3.2792869
9.244238000000001,0.7994758000000001,3.2792869
9.244238000000001,0.7994758000000001,3.2792869
9.244238000000001,0.7994758000000001,3.2792869
6.285699,-0.6750065,2.2739582
6.285699,-0.6750065,2.2739582
6.285699,-0.6750065,2.2739582
6.285699,-0.6750065,2.2739582
5.3186684,-1.469695,1.5175678999999997
5.3186684,-1.469695,1.5175678999999997
5.3186684,-1.469695,1.5175678999999997
5.3186684,-1.469695,1.5175678999999997
6.831449,-2.5420458,1.9101248
6.831449,-2.5420458,1.9101248
6.831449,-2.5420458,1.9101248
6.831449,-2.5420458,1.9101248
12.9591675,-2.015445,0.665432
12.9591675,-2.015445,0.665432
12.9591675,-2.015445,0.665432
12.9591675,-2.015445,0.665432
17.210272,-3.7101421,0.8186249
17.210272,-3.7101421,0.8186249
17.210272,-3.7101421,0.8186249
17.210272,-3.7101421,0.8186249
13.571939000000002,-0.9526688,0.751603
13.571939000000002,-0.9526688,0.751603
13.571939000000002,-0.9526688,0.751603
6.697405000000001,-1.1633091,2.9920502
6.697405000000001,-1.1633091,2.9920502
6.697405000000001,-1.1633091,2.9920502
6.697405000000001,-1.1633091,2.9920502
6.697405000000001,-1.1633091,2.9920502
3.4707782,-2.9250283,1.7952299999999999
3.4707782,-2.9250283,1.7952299999999999
3.4707782,-2.9250283,1.7952299999999999
3.4707782,-2.9250283,1.7952299999999999
5.1367517,-4.3133397,2.149489
5.1367517,-4.3133397,2.149489
5.1367517,-4.3133397,2.149489
8.593167999999999,-5.538883,1.9388485
8.593167999999999,-5.538883,1.9388485
8.593167999999999,-5.538883,1.9388485
8.593167999999999,-5.538883,1.9388485
8.593167999999999,-5.538883,1.9388485
9.598496,-4.772918,2.3984275
9.598496,-4.772918,2.3984275
9.598496,-4.772918,2.3984275
9.598496,-4.772918,2.3984275
11.465536,-3.5665237999999997,2.2260852000000004
11.465536,-3.5665237999999997,2.2260852000000004
11.465536,-3.5665237999999997,2.2260852000000004
13.112360999999998,-3.8920587999999996,2.1973617
13.112360999999998,-3.8920587999999996,2.1973617
13.112360999999998,-3.8920587999999996,2.1973617
13.112360999999998,-3.8920587999999996,2.1973617
13.112360999999998,-3.8920587999999996,2.1973617
9.569773,-3.231414,1.9867213
9.569773,-3.231414,1.9867213
9.569773,-3.231414,1.9867213
10.728295,-2.2356597999999996,1.0867126
10.728295,-2.2356597999999996,1.0867126
10.728295,-2.2356597999999996,1.0867126
10.728295,-2.2356597999999996,1.0867126
10.153821,-2.0441686999999997,0.9718179
10.153821,-2.0441686999999997,0.9718179
10.153821,-2.0441686999999997,0.9718179
10.153821,-2.0441686999999997,0.9718179
10.153821,-2.0441686999999997,0.9718179
7.042089,-1.9292740000000002,0.023936402000000002
7.042089,-1.9292740000000002,0.023936402000000002
7.042089,-1.9292740000000002,0.023936402000000002
7.042089,-1.9292740000000002,0.023936402000000002
5.17505,-2.2739582,0.512239
5.17505,-2.2739582,0.512239
5.17505,-2.2739582,0.512239
5.6250544,-1.7377827000000001,1.0962871
5.6250544,-1.7377827000000001,1.0962871
5.6250544,-1.7377827000000001,1.0962871
5.6250544,-1.7377827000000001,1.0962871
5.6250544,-1.7377827000000001,1.0962871
7.080387599999999,-2.034594,1.2399056
7.080387599999999,-2.034594,1.2399056
7.080387599999999,-2.034594,1.2399056
7.080387599999999,-2.034594,1.2399056
8.545295,-2.5516202,1.3356511999999998
8.545295,-2.5516202,1.3356511999999998
8.545295,-2.5516202,1.3356511999999998
9.339984,-2.88673,1.5079931999999998
9.339984,-2.88673,1.5079931999999998
9.339984,-2.88673,1.5079931999999998
9.339984,-2.88673,1.5079931999999998
9.339984,-2.88673,1.5079931999999998
15.343232999999998,-4.7058964,1.4984187
15.343232999999998,-4.7058964,1.4984187
15.343232999999998,-4.7058964,1.4984187
11.408089,-4.3707867,3.6239712
11.408089,-4.3707867,3.6239712
11.408089,-4.3707867,3.6239712
11.408089,-4.3707867,3.6239712
8.880403999999999,-1.8335283,3.4803526
8.880403999999999,-1.8335283,3.4803526
8.880403999999999,-1.8335283,3.4803526
8.880403999999999,-1.8335283,3.4803526
5.5771812999999995,-1.6133133999999998,2.513322
5.5771812999999995,-1.6133133999999998,2.513322
5.5771812999999995,-1.6133133999999998,2.513322
5.5771812999999995,-1.6133133999999998,2.513322
6.5537868,-2.9824755,2.6856642
6.5537868,-2.9824755,2.6856642
6.5537868,-2.9824755,2.6856642
6.5537868,-2.9824755,2.6856642
11.36979,-2.408002,1.7282081999999999
11.36979,-2.408002,1.7282081999999999
11.36979,-2.408002,1.7282081999999999
11.36979,-2.408002,1.7282081999999999
16.760267000000002,-2.8292825,-0.023936402000000002
16.760267000000002,-2.8292825,-0.023936402000000002
16.760267000000002,-2.8292825,-0.023936402000000002
11.982562,-3.0303482999999996,0.56968635
11.982562,-3.0303482999999996,0.56968635
11.982562,-3.0303482999999996,0.56968635
11.982562,-3.0303482999999996,0.56968635
7.310177,-2.1782124,1.2303311000000001
7.310177,-2.1782124,1.2303311000000001
7.310177,-2.1782124,1.2303311000000001
7.310177,-2.1782124,1.2303311000000001
3.9878044000000004,-1.8431028999999999,1.3260766000000002
3.9878044000000004,-1.8431028999999999,1.3260766000000002
3.9878044000000004,-1.8431028999999999,1.3260766000000002
3.9878044000000004,-1.8431028999999999,1.3260766000000002
5.2037735000000005,-1.7377827000000001,1.8239537000000001
5.2037735000000005,-1.7377827000000001,1.8239537000000001
5.2037735000000005,-1.7377827000000001,1.8239537000000001
5.2037735000000005,-1.7377827000000001,1.8239537000000001
7.6069884000000005,-2.4654493,2.0920415
7.6069884000000005,-2.4654493,2.0920415
7.6069884000000005,-2.4654493,2.0920415
7.6069884000000005,-2.4654493,2.0920415
13.380448000000001,-3.8729098,1.4601203999999999
13.380448000000001,-3.8729098,1.4601203999999999
13.380448000000001,-3.8729098,1.4601203999999999
13.380448000000001,-3.8729098,1.4601203999999999
15.448553,-5.4431376,3.4803526
15.448553,-5.4431376,3.4803526
15.448553,-5.4431376,3.4803526
10.182545,-2.0633178,3.604822
10.182545,-2.0633178,3.604822
10.182545,-2.0633178,3.604822
10.182545,-2.0633178,3.604822
5.4718614,-0.8760723,4.1792955
5.4718614,-0.8760723,4.1792955
5.4718614,-0.8760723,4.1792955
5.4718614,-0.8760723,4.1792955
5.4718614,-0.8760723,4.1792955
3.384607,-1.7186337,1.3165021000000001
3.384607,-1.7186337,1.3165021000000001
3.384607,-1.7186337,1.3165021000000001
3.384607,-1.7186337,1.3165021000000001
9.119769,-2.7622607000000006,4.619725
9.119769,-2.7622607000000006,4.619725
9.119769,-2.7622607000000006,4.619725
14.835780999999999,-1.6037389,2.149489
14.835780999999999,-1.6037389,2.149489
14.835780999999999,-1.6037389,2.149489
14.835780999999999,-1.6037389,2.149489
14.510245999999999,-3.5856729,0.20585304
14.510245999999999,-3.5856729,0.20585304
14.510245999999999,-3.5856729,0.20585304
14.510245999999999,-3.5856729,0.20585304
11.360216000000001,-3.078221,1.6420371999999999
11.360216000000001,-3.078221,1.6420371999999999
11.360216000000001,-3.078221,1.6420371999999999
11.360216000000001,-3.078221,1.6420371999999999
6.1612295999999995,-1.1920328000000002,1.9005502
6.1612295999999995,-1.1920328000000002,1.9005502
6.1612295999999995,-1.1920328000000002,1.9005502
6.1612295999999995,-1.1920328000000002,1.9005502
5.2516465,-1.8718264999999998,1.1250108
5.2516465,-1.8718264999999998,1.1250108
5.2516465,-1.8718264999999998,1.1250108
5.2516465,-1.8718264999999998,1.1250108
4.772918,-2.1782124,2.5037475
4.772918,-2.1782124,2.5037475
4.772918,-2.1782124,2.5037475
9.62722,-1.2494801000000002,1.5175678999999997
9.62722,-1.2494801000000002,1.5175678999999997
9.62722,-1.2494801000000002,1.5175678999999997
9.62722,-1.2494801000000002,1.5175678999999997
9.62722,-1.2494801000000002,1.5175678999999997
16.741120000000002,-3.5760984,1.0388398
16.741120000000002,-3.5760984,1.0388398
16.741120000000002,-3.5760984,1.0388398
12.25065,-4.6293,4.5239797
12.25065,-4.6293,4.5239797
12.25065,-4.6293,4.5239797
12.25065,-4.6293,4.5239797
5.692076,0.6079846,3.1643922000000004
5.692076,0.6079846,3.1643922000000004
5.692076,0.6079846,3.1643922000000004
5.692076,0.6079846,3.1643922000000004
4.2271686,-0.5218136,1.8718264999999998
4.2271686,-0.5218136,1.8718264999999998
4.2271686,-0.5218136,1.8718264999999998
4.2271686,-0.5218136,1.8718264999999998
7.310177,-2.7622607000000006,2.9250283
7.310177,-2.7622607000000006,2.9250283
7.310177,-2.7622607000000006,2.9250283
7.310177,-2.7622607000000006,2.9250283
12.700654,-1.862252,1.9771467
12.700654,-1.862252,1.9771467
12.700654,-1.862252,1.9771467
12.700654,-1.862252,1.9771467
16.999632000000002,-3.4324798999999997,0.05266008
16.999632000000002,-3.4324798999999997,0.05266008
16.999632000000002,-3.4324798999999997,0.05266008
16.999632000000002,-3.4324798999999997,0.05266008
11.312344,-3.0973704,1.3165021000000001
11.312344,-3.0973704,1.3165021000000001
11.312344,-3.0973704,1.3165021000000001
7.482519,-1.5750152,1.4313968000000001
7.482519,-1.5750152,1.4313968000000001
7.482519,-1.5750152,1.4313968000000001
7.482519,-1.5750152,1.4313968000000001
7.482519,-1.5750152,1.4313968000000001
3.777164,-1.9292740000000002,1.0962871
3.777164,-1.9292740000000002,1.0962871
3.777164,-1.9292740000000002,1.0962871
6.5729356,-2.3314054,1.5845897
6.5729356,-2.3314054,1.5845897
6.5729356,-2.3314054,1.5845897
6.5729356,-2.3314054,1.5845897
10.182545,-1.9101248,1.8431028999999999
10.182545,-1.9101248,1.8431028999999999
10.182545,-1.9101248,1.8431028999999999
10.182545,-1.9101248,1.8431028999999999
14.261307999999998,-3.059072,1.0196906
14.261307999999998,-3.059072,1.0196906
14.261307999999998,-3.059072,1.0196906
14.261307999999998,-3.059072,1.0196906
13.581514000000002,-5.0505805,4.08355
13.581514000000002,-5.0505805,4.08355
13.581514000000002,-5.0505805,4.08355
13.581514000000002,-5.0505805,4.08355
7.9325233,-0.9718179,3.5090763999999997
7.9325233,-0.9718179,3.5090763999999997
7.9325233,-0.9718179,3.5090763999999997
7.9325233,-0.9718179,3.5090763999999997
4.6005764000000005,-0.98139244,1.9675721999999998
4.6005764000000005,-0.98139244,1.9675721999999998
4.6005764000000005,-0.98139244,1.9675721999999998
5.8165455,-2.8101335,2.3792782000000003
5.8165455,-2.8101335,2.3792782000000003
5.8165455,-2.8101335,2.3792782000000003
5.8165455,-2.8101335,2.3792782000000003
10.594251,-2.5899186000000003,2.6856642
10.594251,-2.5899186000000003,2.6856642
10.594251,-2.5899186000000003,2.6856642
10.594251,-2.5899186000000003,2.6856642
17.325167,-3.3175852,0.8281995000000001
17.325167,-3.3175852,0.8281995000000001
17.325167,-3.3175852,0.8281995000000001
17.325167,-3.3175852,0.8281995000000001
15.544298999999999,-3.039923,0.665432
15.544298999999999,-3.039923,0.665432
15.544298999999999,-3.039923,0.665432
15.544298999999999,-3.039923,0.665432
8.334655,-1.5079931999999998,1.2590546999999999
8.334655,-1.5079931999999998,1.2590546999999999
8.334655,-1.5079931999999998,1.2590546999999999
8.334655,-1.5079931999999998,1.2590546999999999
5.3186684,-1.4026731000000001,0.7228793
5.3186684,-1.4026731000000001,0.7228793
5.3186684,-1.4026731000000001,0.7228793
5.3186684,-1.4026731000000001,0.7228793
4.0739756,-1.6324625,1.3165021000000001
4.0739756,-1.6324625,1.3165021000000001
4.0739756,-1.6324625,1.3165021000000001
6.3527207,-0.91437054,1.4026731000000001
6.3527207,-0.91437054,1.4026731000000001
6.3527207,-0.91437054,1.4026731000000001
6.3527207,-0.91437054,1.4026731000000001
10.82404,-1.6611862000000002,0.9718179
10.82404,-1.6611862000000002,0.9718179
10.82404,-1.6611862000000002,0.9718179
10.82404,-1.6611862000000002,0.9718179
14.385777,-4.3133397,0.7420284
14.385777,-4.3133397,0.7420284
14.385777,-4.3133397,0.7420284
14.385777,-4.3133397,0.7420284
14.32833,-4.543129,4.1601467
14.32833,-4.543129,4.1601467
14.32833,-4.543129,4.1601467
14.32833,-4.543129,4.1601467
8.602742,-0.30159867,3.2984362000000003
8.602742,-0.30159867,3.2984362000000003
8.602742,-0.30159867,3.2984362000000003
8.602742,-0.30159867,3.2984362000000003
5.261221,-1.2399056,1.5845897
5.261221,-1.2399056,1.5845897
5.261221,-1.2399056,1.5845897
5.261221,-1.2399056,1.5845897
8.516571,-4.581427,3.5090763999999997
8.516571,-4.581427,3.5090763999999997
8.516571,-4.581427,3.5090763999999997
10.82404,-1.8239537000000001,3.1452432
10.82404,-1.8239537000000001,3.1452432
10.82404,-1.8239537000000001,3.1452432
10.82404,-1.8239537000000001,3.1452432
10.82404,-1.8239537000000001,3.1452432
14.031518,-3.0303482999999996,2.0250196
14.031518,-3.0303482999999996,2.0250196
14.031518,-3.0303482999999996,2.0250196
12.451715,-2.666515,1.5654407
12.451715,-2.666515,1.5654407
12.451715,-2.666515,1.5654407
12.451715,-2.666515,1.5654407
8.880403999999999,-1.5750152,1.1537346000000002
8.880403999999999,-1.5750152,1.1537346000000002
8.880403999999999,-1.5750152,1.1537346000000002
8.880403999999999,-1.5750152,1.1537346000000002
7.7984796,-2.1590632999999997,1.3356511999999998
7.7984796,-2.1590632999999997,1.3356511999999998
7.7984796,-2.1590632999999997,1.3356511999999998
7.7984796,-2.1590632999999997,1.3356511999999998
6.505913700000001,-1.4218222,1.2111819
6.505913700000001,-1.4218222,1.2111819
6.505913700000001,-1.4218222,1.2111819
6.505913700000001,-1.4218222,1.2111819
6.984642,-2.0250196,1.3643749
6.984642,-2.0250196,1.3643749
6.984642,-2.0250196,1.3643749
6.984642,-2.0250196,1.3643749
9.64637,-1.6516117,0.359046
9.64637,-1.6516117,0.359046
9.64637,-1.6516117,0.359046
18.244326,-4.610151,0.77075213
18.244326,-4.610151,0.77075213
18.244326,-4.610151,0.77075213
18.244326,-4.610151,0.77075213
15.343232999999998,-2.752686,2.7718353
15.343232999999998,-2.752686,2.7718353
15.343232999999998,-2.752686,2.7718353
15.343232999999998,-2.752686,2.7718353
8.698488000000001,-0.7324539000000001,2.6856642
8.698488000000001,-0.7324539000000001,2.6856642
8.698488000000001,-0.7324539000000001,2.6856642
8.698488000000001,-0.7324539000000001,2.6856642
5.3378177,-1.4984187,2.360129
5.3378177,-1.4984187,2.360129
5.3378177,-1.4984187,2.360129
5.3378177,-1.4984187,2.360129
5.6250544,-2.4654493,2.3026817000000004
5.6250544,-2.4654493,2.3026817000000004
5.6250544,-2.4654493,2.3026817000000004
5.6250544,-2.4654493,2.3026817000000004
8.535721,-3.0111992,2.2835326
8.535721,-3.0111992,2.2835326
8.535721,-3.0111992,2.2835326
8.535721,-3.0111992,2.2835326
10.977234,1.0867126,1.1250108
10.977234,1.0867126,1.1250108
10.977234,1.0867126,1.1250108
13.782579,-1.0292653,0.45479164
13.782579,-1.0292653,0.45479164
13.782579,-1.0292653,0.45479164
13.782579,-1.0292653,0.45479164
13.782579,-1.0292653,0.45479164
13.332576000000001,-2.3026817000000004,-0.7994758000000001
13.332576000000001,-2.3026817000000004,-0.7994758000000001
13.332576000000001,-2.3026817000000004,-0.7994758000000001
13.02619,-1.383524,-1.6516117
13.02619,-1.383524,-1.6516117
13.02619,-1.383524,-1.6516117
13.02619,-1.383524,-1.6516117
9.64637,-0.54096264,-0.8473485999999999
9.64637,-0.54096264,-0.8473485999999999
9.64637,-0.54096264,-0.8473485999999999
9.64637,-0.54096264,-0.8473485999999999
7.7027339999999995,-0.90479594,-0.751603
7.7027339999999995,-0.90479594,-0.751603
7.7027339999999995,-0.90479594,-0.751603
7.7027339999999995,-0.90479594,-0.751603
7.4442205,-0.63670826,0.45479164
7.4442205,-0.63670826,0.45479164
7.4442205,-0.63670826,0.45479164
7.4442205,-0.63670826,0.45479164
8.1623125,-1.3260766000000002,0.6271336999999999
8.1623125,-1.3260766000000002,0.6271336999999999
8.1623125,-1.3260766000000002,0.6271336999999999
8.1623125,-1.3260766000000002,0.6271336999999999
10.546378,-1.5750152,0.85692316
10.546378,-1.5750152,0.85692316
10.546378,-1.5750152,0.85692316
10.546378,-1.5750152,0.85692316
12.604909,-1.2973529,-0.59841
12.604909,-1.2973529,-0.59841
12.604909,-1.2973529,-0.59841
12.537887,-1.4409714,0.5792609000000001
12.537887,-1.4409714,0.5792609000000001
12.537887,-1.4409714,0.5792609000000001
12.537887,-1.4409714,0.5792609000000001
10.278291000000001,0.47394073,0.15798025
10.278291000000001,0.47394073,0.15798025
10.278291000000001,0.47394073,0.15798025
10.278291000000001,0.47394073,0.15798025
7.587839,-1.2590546999999999,0.5505372
7.587839,-1.2590546999999999,0.5505372
7.587839,-1.2590546999999999,0.5505372
7.587839,-1.2590546999999999,0.5505372
5.041005999999999,-0.2154276,0.83777404
5.041005999999999,-0.2154276,0.83777404
5.041005999999999,-0.2154276,0.83777404
5.041005999999999,-0.2154276,0.83777404
5.06973,-0.9718179,1.1633091
5.06973,-0.9718179,1.1633091
5.06973,-0.9718179,1.1633091
5.06973,-0.9718179,1.1633091
8.066567,-1.8048046999999998,2.0920415
8.066567,-1.8048046999999998,2.0920415
8.066567,-1.8048046999999998,2.0920415
8.066567,-1.8048046999999998,2.0920415
10.038927000000001,-1.3930986,2.0633178
10.038927000000001,-1.3930986,2.0633178
10.038927000000001,-1.3930986,2.0633178
10.766592999999999,-1.5654407,0.9430941999999999
10.766592999999999,-1.5654407,0.9430941999999999
10.766592999999999,-1.5654407,0.9430941999999999
10.766592999999999,-1.5654407,0.9430941999999999
16.61665,-3.3175852,0.2441513
16.61665,-3.3175852,0.2441513
16.61665,-3.3175852,0.2441513
16.61665,-3.3175852,0.2441513
13.121935,-1.2782038,-0.6845810999999999
13.121935,-1.2782038,-0.6845810999999999
13.121935,-1.2782038,-0.6845810999999999
13.121935,-1.2782038,-0.6845810999999999
9.397431,-1.5941644,-0.27287498
9.397431,-1.5941644,-0.27287498
9.397431,-1.5941644,-0.27287498
9.397431,-1.5941644,-0.27287498
4.169721,-2.0920415,0.47394073
4.169721,-2.0920415,0.47394073
4.169721,-2.0920415,0.47394073
4.169721,-2.0920415,0.47394073
5.041005999999999,-0.9622433000000001,0.59841
5.041005999999999,-0.9622433000000001,0.59841
5.041005999999999,-0.9622433000000001,0.59841
7.3676243,-1.9675721999999998,0.9526688
7.3676243,-1.9675721999999998,0.9526688
7.3676243,-1.9675721999999998,0.9526688
7.3676243,-1.9675721999999998,0.9526688
7.3676243,-1.9675721999999998,0.9526688
9.617646,-2.34098,1.3643749
9.617646,-2.34098,1.3643749
9.617646,-2.34098,1.3643749
15.113443,-3.7484405,1.3165021000000001
15.113443,-3.7484405,1.3165021000000001
15.113443,-3.7484405,1.3165021000000001
15.113443,-3.7484405,1.3165021000000001
15.027272,-4.275041000000001,4.255892299999999
15.027272,-4.275041000000001,4.255892299999999
15.027272,-4.275041000000001,4.255892299999999
15.027272,-4.275041000000001,4.255892299999999
11.101703,-0.6558574,3.8633351
11.101703,-0.6558574,3.8633351
11.101703,-0.6558574,3.8633351
11.101703,-0.6558574,3.8633351
2.5516202,0.59841,1.9962958
2.5516202,0.59841,1.9962958
2.5516202,0.59841,1.9962958
2.5516202,0.59841,1.9962958
2.9537517999999996,-2.408002,1.1345854
2.9537517999999996,-2.408002,1.1345854
2.9537517999999996,-2.408002,1.1345854
2.9537517999999996,-2.408002,1.1345854
7.6069884000000005,-2.4463003,1.9292740000000002
7.6069884000000005,-2.4463003,1.9292740000000002
7.6069884000000005,-2.4463003,1.9292740000000002
7.6069884000000005,-2.4463003,1.9292740000000002
13.725132,-1.6611862000000002,-0.12925656
13.725132,-1.6611862000000002,-0.12925656
13.725132,-1.6611862000000002,-0.12925656
19.211354999999998,-4.3803616,-0.5792609000000001
19.211354999999998,-4.3803616,-0.5792609000000001
19.211354999999998,-4.3803616,-0.5792609000000001
19.211354999999998,-4.3803616,-0.5792609000000001
19.211354999999998,-4.3803616,-0.5792609000000001
14.347479000000002,-3.4899273,-0.6079846
14.347479000000002,-3.4899273,-0.6079846
14.347479000000002,-3.4899273,-0.6079846
6.764427,-2.513322,1.5845897
6.764427,-2.513322,1.5845897
6.764427,-2.513322,1.5845897
6.764427,-2.513322,1.5845897
2.3792782000000003,-1.3069274,1.5462915000000002
2.3792782000000003,-1.3069274,1.5462915000000002
2.3792782000000003,-1.3069274,1.5462915000000002
2.3792782000000003,-1.3069274,1.5462915000000002
4.1601467,-1.7282081999999999,2.015445
4.1601467,-1.7282081999999999,2.015445
4.1601467,-1.7282081999999999,2.015445
4.1601467,-1.7282081999999999,2.015445
8.5740185,-1.776081,1.9196993000000002
8.5740185,-1.776081,1.9196993000000002
8.5740185,-1.776081,1.9196993000000002
8.5740185,-1.776081,1.9196993000000002
12.145328999999998,-3.2409887000000004,0.8856468000000001
12.145328999999998,-3.2409887000000004,0.8856468000000001
12.145328999999998,-3.2409887000000004,0.8856468000000001
12.145328999999998,-3.2409887000000004,0.8856468000000001
15.371957,-4.954835,1.14416
15.371957,-4.954835,1.14416
15.371957,-4.954835,1.14416
13.514492,-3.7292912000000005,2.8292825
13.514492,-3.7292912000000005,2.8292825
13.514492,-3.7292912000000005,2.8292825
13.514492,-3.7292912000000005,2.8292825
9.464453,-1.8143792,3.4037561000000003
9.464453,-1.8143792,3.4037561000000003
9.464453,-1.8143792,3.4037561000000003
9.464453,-1.8143792,3.4037561000000003
3.7197167999999996,-0.751603,2.360129
3.7197167999999996,-0.751603,2.360129
3.7197167999999996,-0.751603,2.360129
3.7197167999999996,-0.751603,2.360129
3.8633351,-1.776081,1.3356511999999998
3.8633351,-1.776081,1.3356511999999998
3.8633351,-1.776081,1.3356511999999998
3.8633351,-1.776081,1.3356511999999998
8.095291,-2.5707695,2.360129
8.095291,-2.5707695,2.360129
8.095291,-2.5707695,2.360129
8.095291,-2.5707695,2.360129
13.562365,-1.7952299999999999,1.383524
13.562365,-1.7952299999999999,1.383524
13.562365,-1.7952299999999999,1.383524
13.562365,-1.7952299999999999,1.383524
16.559202,-3.2505634,0.46436617
16.559202,-3.2505634,0.46436617
16.559202,-3.2505634,0.46436617
13.428320999999999,-3.2697124,0.7994758000000001
13.428320999999999,-3.2697124,0.7994758000000001
13.428320999999999,-3.2697124,0.7994758000000001
13.428320999999999,-3.2697124,0.7994758000000001
8.066567,-3.1069447999999995,1.9196993000000002
8.066567,-3.1069447999999995,1.9196993000000002
8.066567,-3.1069447999999995,1.9196993000000002
8.066567,-3.1069447999999995,1.9196993000000002
3.078221,-1.9005502,1.9675721999999998
3.078221,-1.9005502,1.9675721999999998
3.078221,-1.9005502,1.9675721999999998
3.078221,-1.9005502,1.9675721999999998
4.2080193,-1.6037389,1.862252
4.2080193,-1.6037389,1.862252
4.2080193,-1.6037389,1.862252
4.2080193,-1.6037389,1.862252
8.229335,-2.034594,2.168638
8.229335,-2.034594,2.168638
8.229335,-2.034594,2.168638
8.229335,-2.034594,2.168638
12.997466000000001,-2.9250283,1.0196906
12.997466000000001,-2.9250283,1.0196906
12.997466000000001,-2.9250283,1.0196906
12.997466000000001,-2.9250283,1.0196906
15.285785999999998,-4.9739842,0.9526688
15.285785999999998,-4.9739842,0.9526688
15.285785999999998,-4.9739842,0.9526688
13.610238,-5.1654754,4.169721
13.610238,-5.1654754,4.169721
13.610238,-5.1654754,4.169721
13.610238,-5.1654754,4.169721
13.610238,-5.1654754,4.169721
7.5782647,-2.168638,4.1888704
7.5782647,-2.168638,4.1888704
7.5782647,-2.168638,4.1888704
3.7388659,-1.4792696,3.193116
3.7388659,-1.4792696,3.193116
3.7388659,-1.4792696,3.193116
3.7388659,-1.4792696,3.193116
5.519734,-2.8388572,2.6186423
5.519734,-2.8388572,2.6186423
5.519734,-2.8388572,2.6186423
5.519734,-2.8388572,2.6186423
9.110194,-2.168638,2.9537517999999996
9.110194,-2.168638,2.9537517999999996
9.110194,-2.168638,2.9537517999999996
9.110194,-2.168638,2.9537517999999996
11.972988,-1.1058618,1.4792696
11.972988,-1.1058618,1.4792696
11.972988,-1.1058618,1.4792696
11.972988,-1.1058618,1.4792696
16.319838,-2.4175766,0.54096264
16.319838,-2.4175766,0.54096264
16.319838,-2.4175766,0.54096264
16.319838,-2.4175766,0.54096264
13.198531,-3.3271596,0.17712937
13.198531,-3.3271596,0.17712937
13.198531,-3.3271596,0.17712937
8.593167999999999,-2.8292825,0.5505372
8.593167999999999,-2.8292825,0.5505372
8.593167999999999,-2.8292825,0.5505372
8.593167999999999,-2.8292825,0.5505372
3.0877957,-2.714388,0.8760723
3.0877957,-2.714388,0.8760723
3.0877957,-2.714388,0.8760723
3.0877957,-2.714388,0.8760723
3.7963133,-1.7377827000000001,1.5271424
3.7963133,-1.7377827000000001,1.5271424
3.7963133,-1.7377827000000001,1.5271424
3.7963133,-1.7377827000000001,1.5271424
7.8176284,-1.7473572,2.0633178
7.8176284,-1.7473572,2.0633178
7.8176284,-1.7473572,2.0633178
7.8176284,-1.7473572,2.0633178
12.365545,-2.7622607000000006,1.5367169
12.365545,-2.7622607000000006,1.5367169
12.365545,-2.7622607000000006,1.5367169
12.365545,-2.7622607000000006,1.5367169
14.797482999999998,-5.5101595,2.4463003
14.797482999999998,-5.5101595,2.4463003
14.797482999999998,-5.5101595,2.4463003
14.797482999999998,-5.5101595,2.4463003
14.778334,-4.466532,5.0122824
14.778334,-4.466532,5.0122824
14.778334,-4.466532,5.0122824
9.263388,-0.359046,5.242071599999999
9.263388,-0.359046,5.242071599999999
9.263388,-0.359046,5.242071599999999
9.263388,-0.359046,5.242071599999999
9.263388,-0.359046,5.242071599999999
5.797396,-1.3739493999999999,2.7048132000000003
5.797396,-1.3739493999999999,2.7048132000000003
5.797396,-1.3739493999999999,2.7048132000000003
7.5112429999999994,-2.9154537,1.9867213
7.5112429999999994,-2.9154537,1.9867213
7.5112429999999994,-2.9154537,1.9867213
7.5112429999999994,-2.9154537,1.9867213
9.742115,-2.034594,1.948423
9.742115,-2.034594,1.948423
9.742115,-2.034594,1.948423
9.742115,-2.034594,1.948423
13.725132,-1.8526775000000002,0.63670826
13.725132,-1.8526775000000002,0.63670826
13.725132,-1.8526775000000002,0.63670826
13.725132,-1.8526775000000002,0.63670826
13.667685500000001,-2.88673,1.5271424
13.667685500000001,-2.88673,1.5271424
13.667685500000001,-2.88673,1.5271424
13.667685500000001,-2.88673,1.5271424
10.058076,-1.6899098999999997,0.77075213
10.058076,-1.6899098999999997,0.77075213
10.058076,-1.6899098999999997,0.77075213
10.058076,-1.6899098999999997,0.77075213
6.7548523000000005,-1.7569318999999999,2.494173
6.7548523000000005,-1.7569318999999999,2.494173
6.7548523000000005,-1.7569318999999999,2.494173
6.7548523000000005,-1.7569318999999999,2.494173
4.782493,-1.5367169,2.168638
4.782493,-1.5367169,2.168638
4.782493,-1.5367169,2.168638
4.456958,-1.6324625,2.6952388
4.456958,-1.6324625,2.6952388
4.456958,-1.6324625,2.6952388
4.456958,-1.6324625,2.6952388
8.200611,-1.7473572,1.7282081999999999
8.200611,-1.7473572,1.7282081999999999
8.200611,-1.7473572,1.7282081999999999
8.200611,-1.7473572,1.7282081999999999
14.634716000000001,-3.4133307999999998,0.2154276
14.634716000000001,-3.4133307999999998,0.2154276
14.634716000000001,-3.4133307999999998,0.2154276
14.634716000000001,-3.4133307999999998,0.2154276
13.112360999999998,-5.0793040000000005,1.9388485
13.112360999999998,-5.0793040000000005,1.9388485
13.112360999999998,-5.0793040000000005,1.9388485
13.112360999999998,-5.0793040000000005,1.9388485
11.781497,-2.6952388,3.997379
11.781497,-2.6952388,3.997379
11.781497,-2.6952388,3.997379
11.781497,-2.6952388,3.997379
9.024023,0.27287498,4.246317400000001
9.024023,0.27287498,4.246317400000001
9.024023,0.27287498,4.246317400000001
9.024023,0.27287498,4.246317400000001
7.865501400000001,-0.92394507,3.0303482999999996
7.865501400000001,-0.92394507,3.0303482999999996
7.865501400000001,-0.92394507,3.0303482999999996
8.23891,-2.1973617,3.2697124
8.23891,-2.1973617,3.2697124
8.23891,-2.1973617,3.2697124
8.23891,-2.1973617,3.2697124
8.516571,-2.666515,2.972901
8.516571,-2.666515,2.972901
8.516571,-2.666515,2.972901
8.516571,-2.666515,2.972901
8.803808,-3.2888615,3.212265
8.803808,-3.2888615,3.212265
8.803808,-3.2888615,3.212265
8.803808,-3.2888615,3.212265
15.467703,-4.6675982000000005,2.0537431
15.467703,-4.6675982000000005,2.0537431
15.467703,-4.6675982000000005,2.0537431
15.467703,-4.6675982000000005,2.0537431
12.518738,-5.1271772,1.9962958
12.518738,-5.1271772,1.9962958
12.518738,-5.1271772,1.9962958
12.518738,-5.1271772,1.9962958
13.198531,-3.4324798999999997,3.384607
13.198531,-3.4324798999999997,3.384607
13.198531,-3.4324798999999997,3.384607
9.100619,-0.8186249,3.9782297999999994
9.100619,-0.8186249,3.9782297999999994
9.100619,-0.8186249,3.9782297999999994
9.100619,-0.8186249,3.9782297999999994
9.100619,-0.8186249,3.9782297999999994
7.0037910000000005,0.27287498,2.7239625
7.0037910000000005,0.27287498,2.7239625
7.0037910000000005,0.27287498,2.7239625
6.256975,-0.8952214,1.7952299999999999
6.256975,-0.8952214,1.7952299999999999
6.256975,-0.8952214,1.7952299999999999
6.256975,-0.8952214,1.7952299999999999
7.319751299999999,-1.5367169,1.4409714
7.319751299999999,-1.5367169,1.4409714
7.319751299999999,-1.5367169,1.4409714
7.319751299999999,-1.5367169,1.4409714
9.483603,-2.1973617,0.8664976999999999
9.483603,-2.1973617,0.8664976999999999
9.483603,-2.1973617,0.8664976999999999
9.483603,-2.1973617,0.8664976999999999
15.027272,-4.131423000000001,-1.1920328000000002
15.027272,-4.131423000000001,-1.1920328000000002
15.027272,-4.131423000000001,-1.1920328000000002
15.027272,-4.131423000000001,-1.1920328000000002
13.552791000000001,-5.261221,0.15798025
13.552791000000001,-5.261221,0.15798025
13.552791000000001,-5.261221,0.15798025
13.552791000000001,-5.261221,0.15798025
10.958084,-3.2984362000000003,2.0824668
10.958084,-3.2984362000000003,2.0824668
10.958084,-3.2984362000000003,2.0824668
10.958084,-3.2984362000000003,2.0824668
5.778247400000001,-2.015445,2.1207652
5.778247400000001,-2.015445,2.1207652
5.778247400000001,-2.015445,2.1207652
5.778247400000001,-2.015445,2.1207652
7.310177,-4.150572,2.2931072999999995
7.310177,-4.150572,2.2931072999999995
7.310177,-4.150572,2.2931072999999995
7.310177,-4.150572,2.2931072999999995
9.043172,-5.366541000000001,2.5420458
9.043172,-5.366541000000001,2.5420458
9.043172,-5.366541000000001,2.5420458
9.043172,-5.366541000000001,2.5420458
9.234664,-4.322914,2.7909843999999997
9.234664,-4.322914,2.7909843999999997
9.234664,-4.322914,2.7909843999999997
9.234664,-4.322914,2.7909843999999997
9.004874000000001,-3.3750327000000007,3.4612036
9.004874000000001,-3.3750327000000007,3.4612036
9.004874000000001,-3.3750327000000007,3.4612036
9.004874000000001,-3.3750327000000007,3.4612036
12.308098,-3.8633351,3.0494976
12.308098,-3.8633351,3.0494976
12.308098,-3.8633351,3.0494976
12.308098,-3.8633351,3.0494976
13.102786,-3.8537605000000004,3.3175852
13.102786,-3.8537605000000004,3.3175852
13.102786,-3.8537605000000004,3.3175852
13.102786,-3.8537605000000004,3.3175852
14.069817,-3.3941817000000003,2.7718353
14.069817,-3.3941817000000003,2.7718353
14.069817,-3.3941817000000003,2.7718353
14.069817,-3.3941817000000003,2.7718353
13.409172,-1.5941644,2.5707695
13.409172,-1.5941644,2.5707695
13.409172,-1.5941644,2.5707695
9.359133,-0.665432,1.0101161
9.359133,-0.665432,1.0101161
9.359133,-0.665432,1.0101161
9.359133,-0.665432,1.0101161
7.070812700000001,-1.5941644,-0.05266008
7.070812700000001,-1.5941644,-0.05266008
7.070812700000001,-1.5941644,-0.05266008
7.070812700000001,-1.5941644,-0.05266008
4.849515,0.32074776,-0.49308985
4.849515,0.32074776,-0.49308985
4.849515,0.32074776,-0.49308985
4.849515,0.32074776,-0.49308985
2.494173,2.2739582,-0.5505372
2.494173,2.2739582,-0.5505372
2.494173,2.2739582,-0.5505372
2.494173,2.2739582,-0.5505372
3.6814184,0.043085523,-0.56011176
3.6814184,0.043085523,-0.56011176
3.6814184,0.043085523,-0.56011176
3.6814184,0.043085523,-0.56011176
6.094208,-2.1973617,0.0
6.094208,-2.1973617,0.0
6.094208,-2.1973617,0.0
6.094208,-2.1973617,0.0
14.232584,-5.002708,-0.22500217
14.232584,-5.002708,-0.22500217
14.232584,-5.002708,-0.22500217
14.232584,-5.002708,-0.22500217
19.594337,-11.293194,2.7239625
19.594337,-11.293194,2.7239625
19.594337,-11.293194,2.7239625
19.594337,-11.293194,2.7239625
12.068733,-7.7984796,6.592085000000001
12.068733,-7.7984796,6.592085000000001
12.068733,-7.7984796,6.592085000000001
12.068733,-7.7984796,6.592085000000001
4.504830999999999,-2.360129,5.912291000000001
4.504830999999999,-2.360129,5.912291000000001
4.504830999999999,-2.360129,5.912291000000001
4.504830999999999,-2.360129,5.912291000000001
0.90479594,-2.9250283,3.0494976
0.90479594,-2.9250283,3.0494976
0.90479594,-2.9250283,3.0494976
0.90479594,-2.9250283,3.0494976
5.711225499999999,-4.456958,2.800559
5.711225499999999,-4.456958,2.800559
5.711225499999999,-4.456958,2.800559
5.711225499999999,-4.456958,2.800559
11.992137,-3.5473747,1.6133133999999998
11.992137,-3.5473747,1.6133133999999998
11.992137,-3.5473747,1.6133133999999998
11.992137,-3.5473747,1.6133133999999998
19.594337,-4.016528,0.14840569
19.594337,-4.016528,0.14840569
19.594337,-4.016528,0.14840569
17.26772,-3.9016335,-0.9526688
17.26772,-3.9016335,-0.9526688
17.26772,-3.9016335,-0.9526688
17.26772,-3.9016335,-0.9526688
17.26772,-3.9016335,-0.9526688
10.29744,-2.7909843999999997,0.27287498
10.29744,-2.7909843999999997,0.27287498
10.29744,-2.7909843999999997,0.27287498
2.5516202,-2.427151,1.2016073
2.5516202,-2.427151,1.2016073
2.5516202,-2.427151,1.2016073
2.5516202,-2.427151,1.2016073
3.7197167999999996,-0.42606795,0.77075213
3.7197167999999996,-0.42606795,0.77075213
3.7197167999999996,-0.42606795,0.77075213
3.7197167999999996,-0.42606795,0.77075213
4.7250457,-0.512239,1.3165021000000001
4.7250457,-0.512239,1.3165021000000001
4.7250457,-0.512239,1.3165021000000001
4.7250457,-0.512239,1.3165021000000001
4.0739756,-0.42606795,0.78990126
4.0739756,-0.42606795,0.78990126
4.0739756,-0.42606795,0.78990126
4.0739756,-0.42606795,0.78990126
7.894225,-2.321831,1.2016073
7.894225,-2.321831,1.2016073
7.894225,-2.321831,1.2016073
7.894225,-2.321831,1.2016073
16.386860000000002,-6.6016593,3.0686467
16.386860000000002,-6.6016593,3.0686467
16.386860000000002,-6.6016593,3.0686467
16.233667,-8.832532,6.391019
16.233667,-8.832532,6.391019
16.233667,-8.832532,6.391019
16.233667,-8.832532,6.391019
7.6069884000000005,-5.4431376,4.648448999999999
7.6069884000000005,-5.4431376,4.648448999999999
7.6069884000000005,-5.4431376,4.648448999999999
7.6069884000000005,-5.4431376,4.648448999999999
2.6282167000000003,-2.5037475,2.800559
2.6282167000000003,-2.5037475,2.800559
2.6282167000000003,-2.5037475,2.800559
2.6282167000000003,-2.5037475,2.800559
3.9399316,-3.9207826,2.427151
3.9399316,-3.9207826,2.427151
3.9399316,-3.9207826,2.427151
3.9399316,-3.9207826,2.427151
9.512326,-3.0111992,2.8771553
9.512326,-3.0111992,2.8771553
9.512326,-3.0111992,2.8771553
9.512326,-3.0111992,2.8771553
9.512326,-3.0111992,2.8771553
18.100706,-3.2026904,1.4026731000000001
18.100706,-3.2026904,1.4026731000000001
18.100706,-3.2026904,1.4026731000000001
19.354975,-5.4718614,1.1633091
19.354975,-5.4718614,1.1633091
19.354975,-5.4718614,1.1633091
19.354975,-5.4718614,1.1633091
14.088965,-2.9346027,0.8186249
14.088965,-2.9346027,0.8186249
14.088965,-2.9346027,0.8186249
14.088965,-2.9346027,0.8186249
6.764427,-1.8526775000000002,0.8090504
6.764427,-1.8526775000000002,0.8090504
6.764427,-1.8526775000000002,0.8090504
6.764427,-1.8526775000000002,0.8090504
3.4133307999999998,-1.1633091,0.36862057
3.4133307999999998,-1.1633091,0.36862057
3.4133307999999998,-1.1633091,0.36862057
3.4133307999999998,-1.1633091,0.36862057
3.5090763999999997,-0.5313880999999999,0.33032233
3.5090763999999997,-0.5313880999999999,0.33032233
3.5090763999999997,-0.5313880999999999,0.33032233
3.5090763999999997,-0.5313880999999999,0.33032233
3.8058877,-0.8186249,1.0101161
3.8058877,-0.8186249,1.0101161
3.8058877,-0.8186249,1.0101161
3.8058877,-0.8186249,1.0101161
7.7506065,-1.9005502,0.8473485999999999
7.7506065,-1.9005502,0.8473485999999999
7.7506065,-1.9005502,0.8473485999999999
7.7506065,-1.9005502,0.8473485999999999
14.988975,-4.772918,2.8771553
14.988975,-4.772918,2.8771553
14.988975,-4.772918,2.8771553
14.988975,-4.772918,2.8771553
16.836864000000002,-3.8824842000000004,6.8027253
16.836864000000002,-3.8824842000000004,6.8027253
16.836864000000002,-3.8824842000000004,6.8027253
16.836864000000002,-3.8824842000000004,6.8027253
8.880403999999999,-2.3697037999999995,4.246317400000001
8.880403999999999,-2.3697037999999995,4.246317400000001
8.880403999999999,-2.3697037999999995,4.246317400000001
8.880403999999999,-2.3697037999999995,4.246317400000001
4.7250457,-3.4899273,3.193116
4.7250457,-3.4899273,3.193116
4.7250457,-3.4899273,3.193116
3.844186,-4.73462,1.9005502
3.844186,-4.73462,1.9005502
3.844186,-4.73462,1.9005502
3.844186,-4.73462,1.9005502
3.844186,-4.73462,1.9005502
9.158066999999999,-4.868664,2.4367256
9.158066999999999,-4.868664,2.4367256
9.158066999999999,-4.868664,2.4367256
17.564531,-2.8580062,2.4175766
17.564531,-2.8580062,2.4175766
17.564531,-2.8580062,2.4175766
17.564531,-2.8580062,2.4175766
19.53689,-3.8250370000000005,-0.10053288
19.53689,-3.8250370000000005,-0.10053288
19.53689,-3.8250370000000005,-0.10053288
19.53689,-3.8250370000000005,-0.10053288
13.648535999999998,-3.8537605000000004,-0.27287498
13.648535999999998,-3.8537605000000004,-0.27287498
13.648535999999998,-3.8537605000000004,-0.27287498
13.648535999999998,-3.8537605000000004,-0.27287498
6.592085000000001,-2.5803439999999997,1.3452256999999999
6.592085000000001,-2.5803439999999997,1.3452256999999999
6.592085000000001,-2.5803439999999997,1.3452256999999999
6.592085000000001,-2.5803439999999997,1.3452256999999999
3.9112080000000002,-1.1728836,0.7994758000000001
3.9112080000000002,-1.1728836,0.7994758000000001
3.9112080000000002,-1.1728836,0.7994758000000001
3.9112080000000002,-1.1728836,0.7994758000000001
4.5910015,-0.18670394,0.6750065
4.5910015,-0.18670394,0.6750065
4.5910015,-0.18670394,0.6750065
4.5910015,-0.18670394,0.6750065
5.653778,-1.4313968000000001,1.4026731000000001
5.653778,-1.4313968000000001,1.4026731000000001
5.653778,-1.4313968000000001,1.4026731000000001
5.653778,-1.4313968000000001,1.4026731000000001
9.397431,-3.2984362000000003,2.752686
9.397431,-3.2984362000000003,2.752686
9.397431,-3.2984362000000003,2.752686
9.397431,-3.2984362000000003,2.752686
14.251732999999998,-3.9207826,2.1111906000000005
14.251732999999998,-3.9207826,2.1111906000000005
14.251732999999998,-3.9207826,2.1111906000000005
14.251732999999998,-3.9207826,2.1111906000000005
13.00704,-3.5952474999999997,5.041005999999999
13.00704,-3.5952474999999997,5.041005999999999
13.00704,-3.5952474999999997,5.041005999999999
7.7601814,-2.733537,4.2080193
7.7601814,-2.733537,4.2080193
7.7601814,-2.733537,4.2080193
7.7601814,-2.733537,4.2080193
7.7601814,-2.733537,4.2080193
3.5473747,-3.2601378,3.2026904
3.5473747,-3.2601378,3.2026904
3.5473747,-3.2601378,3.2026904
5.452712,-3.930357,2.561195
5.452712,-3.930357,2.561195
5.452712,-3.930357,2.561195
5.452712,-3.930357,2.561195
5.452712,-3.930357,2.561195
9.828286,-2.7814097,2.4750240000000003
9.828286,-2.7814097,2.4750240000000003
9.828286,-2.7814097,2.4750240000000003
9.828286,-2.7814097,2.4750240000000003
19.268803,-2.6282167000000003,1.8431028999999999
19.268803,-2.6282167000000003,1.8431028999999999
19.268803,-2.6282167000000003,1.8431028999999999
17.583681,-3.518651,-0.5888355
17.583681,-3.518651,-0.5888355
17.583681,-3.518651,-0.5888355
17.583681,-3.518651,-0.5888355
11.140001,-3.7963133,1.709059
11.140001,-3.7963133,1.709059
11.140001,-3.7963133,1.709059
11.140001,-3.7963133,1.709059
3.5282254,-1.776081,2.6090677
3.5282254,-1.776081,2.6090677
3.5282254,-1.776081,2.6090677
3.5282254,-1.776081,2.6090677
2.0633178,-1.4313968000000001,1.2494801000000002
2.0633178,-1.4313968000000001,1.2494801000000002
2.0633178,-1.4313968000000001,1.2494801000000002
2.0633178,-1.4313968000000001,1.2494801000000002
4.0069537,-0.9526688,1.3452256999999999
4.0069537,-0.9526688,1.3452256999999999
4.0069537,-0.9526688,1.3452256999999999
4.0069537,-0.9526688,1.3452256999999999
13.504917,-1.3260766000000002,0.22500217
13.504917,-1.3260766000000002,0.22500217
13.504917,-1.3260766000000002,0.22500217
13.504917,-1.3260766000000002,0.22500217
15.333657999999998,-4.389936,1.0005416
15.333657999999998,-4.389936,1.0005416
15.333657999999998,-4.389936,1.0005416
17.133677,-4.0644007,3.1165195
17.133677,-4.0644007,3.1165195
17.133677,-4.0644007,3.1165195
17.133677,-4.0644007,3.1165195
17.133677,-4.0644007,3.1165195
8.842107,-1.8431028999999999,3.8250370000000005
8.842107,-1.8431028999999999,3.8250370000000005
8.842107,-1.8431028999999999,3.8250370000000005
2.34098,-0.70373017,2.6090677
2.34098,-0.70373017,2.6090677
2.34098,-0.70373017,2.6090677
2.34098,-0.70373017,2.6090677
1.7473572,-2.2643836,2.1111906000000005
1.7473572,-2.2643836,2.1111906000000005
1.7473572,-2.2643836,2.1111906000000005
1.7473572,-2.2643836,2.1111906000000005
4.1792955,-2.3984275,3.4995019999999997
4.1792955,-2.3984275,3.4995019999999997
4.1792955,-2.3984275,3.4995019999999997
4.1792955,-2.3984275,3.4995019999999997
14.759185,-1.8909756999999998,2.8388572
14.759185,-1.8909756999999998,2.8388572
14.759185,-1.8909756999999998,2.8388572
14.759185,-1.8909756999999998,2.8388572
19.594337,-5.0793040000000005,0.5888355
19.594337,-5.0793040000000005,0.5888355
19.594337,-5.0793040000000005,0.5888355
19.594337,-5.0793040000000005,0.5888355
15.391106,-4.466532,0.359046
15.391106,-4.466532,0.359046
15.391106,-4.466532,0.359046
15.391106,-4.466532,0.359046
9.569773,-2.0728923999999997,0.83777404
9.569773,-2.0728923999999997,0.83777404
9.569773,-2.0728923999999997,0.83777404
5.328243,-1.8048046999999998,0.90479594
5.328243,-1.8048046999999998,0.90479594
5.328243,-1.8048046999999998,0.90479594
5.328243,-1.8048046999999998,0.90479594
4.9739842,-0.59841,1.3165021000000001
4.9739842,-0.59841,1.3165021000000001
4.9739842,-0.59841,1.3165021000000001
4.9739842,-0.59841,1.3165021000000001
4.8590894,-0.92394507,1.2877783999999999
4.8590894,-0.92394507,1.2877783999999999
4.8590894,-0.92394507,1.2877783999999999
4.8590894,-0.92394507,1.2877783999999999
4.9739842,-1.2494801000000002,0.5505372
4.9739842,-1.2494801000000002,0.5505372
4.9739842,-1.2494801000000002,0.5505372
4.9739842,-1.2494801000000002,0.5505372
6.113357,-1.3165021000000001,-0.69415563
6.113357,-1.3165021000000001,-0.69415563
6.113357,-1.3165021000000001,-0.69415563
6.113357,-1.3165021000000001,-0.69415563
18.206026,-6.0846334,1.4122477
18.206026,-6.0846334,1.4122477
18.206026,-6.0846334,1.4122477
18.44539,-3.4995019999999997,7.4920936000000005
18.44539,-3.4995019999999997,7.4920936000000005
18.44539,-3.4995019999999997,7.4920936000000005
18.44539,-3.4995019999999997,7.4920936000000005
13.753855999999999,1.3069274,6.1995277
13.753855999999999,1.3069274,6.1995277
13.753855999999999,1.3069274,6.1995277
13.753855999999999,1.3069274,6.1995277
6.6591067,-1.2303311000000001,2.88673
6.6591067,-1.2303311000000001,2.88673
6.6591067,-1.2303311000000001,2.88673
6.6591067,-1.2303311000000001,2.88673
6.2665496,-4.0548263,1.2973529
6.2665496,-4.0548263,1.2973529
6.2665496,-4.0548263,1.2973529
6.2665496,-4.0548263,1.2973529
8.229335,-3.1452432,1.0962871
8.229335,-3.1452432,1.0962871
8.229335,-3.1452432,1.0962871
8.229335,-3.1452432,1.0962871
9.5219,-2.9441773999999996,1.1345854
9.5219,-2.9441773999999996,1.1345854
9.5219,-2.9441773999999996,1.1345854
9.5219,-2.9441773999999996,1.1345854
10.881488000000001,-2.6760897999999997,1.8909756999999998
10.881488000000001,-2.6760897999999997,1.8909756999999998
10.881488000000001,-2.6760897999999997,1.8909756999999998
11.7049,-2.0058703,3.0973704
11.7049,-2.0058703,3.0973704
11.7049,-2.0058703,3.0973704
11.7049,-2.0058703,3.0973704
11.7049,-2.0058703,3.0973704
8.918703,-0.512239,1.8909756999999998
8.918703,-0.512239,1.8909756999999998
8.918703,-0.512239,1.8909756999999998
9.272962,-1.8814011999999998,1.5271424
9.272962,-1.8814011999999998,1.5271424
9.272962,-1.8814011999999998,1.5271424
9.272962,-1.8814011999999998,1.5271424
8.133589,-2.101616,2.7718353
8.133589,-2.101616,2.7718353
8.133589,-2.101616,2.7718353
8.133589,-2.101616,2.7718353
8.143164,-1.6994845,1.9771467
8.143164,-1.6994845,1.9771467
8.143164,-1.6994845,1.9771467
8.143164,-1.6994845,1.9771467
9.8953085,-2.2260852000000004,1.8335283
9.8953085,-2.2260852000000004,1.8335283
9.8953085,-2.2260852000000004,1.8335283
9.8953085,-2.2260852000000004,1.8335283
9.952755999999999,-2.4175766,2.015445
9.952755999999999,-2.4175766,2.015445
9.952755999999999,-2.4175766,2.015445
9.952755999999999,-2.4175766,2.015445
9.971905,-2.7718353,1.8143792
9.971905,-2.7718353,1.8143792
9.971905,-2.7718353,1.8143792
9.971905,-2.7718353,1.8143792
10.278291000000001,-3.0877957,1.8909756999999998
10.278291000000001,-3.0877957,1.8909756999999998
10.278291000000001,-3.0877957,1.8909756999999998
10.230417999999998,-2.9441773999999996,2.149489
10.230417999999998,-2.9441773999999996,2.149489
10.230417999999998,-2.9441773999999996,2.149489
10.230417999999998,-2.9441773999999996,2.149489
9.847435,-3.384607,1.9867213
9.847435,-3.384607,1.9867213
9.847435,-3.384607,1.9867213
9.847435,-3.384607,1.9867213
9.349558,-3.2601378,2.3505547000000004
9.349558,-3.2601378,2.3505547000000004
9.349558,-3.2601378,2.3505547000000004
9.349558,-3.2601378,2.3505547000000004
9.8953085,-2.2165107999999996,2.733537
9.8953085,-2.2165107999999996,2.733537
9.8953085,-2.2165107999999996,2.733537
9.8953085,-2.2165107999999996,2.733537
10.182545,-2.4845984,2.2452345
10.182545,-2.4845984,2.2452345
10.182545,-2.4845984,2.2452345
10.182545,-2.4845984,2.2452345
9.684667999999999,-2.4367256,1.9101248
9.684667999999999,-2.4367256,1.9101248
9.684667999999999,-2.4367256,1.9101248
9.684667999999999,-2.4367256,1.9101248
9.502751,-2.0920415,1.6803354
9.502751,-2.0920415,1.6803354
9.502751,-2.0920415,1.6803354
9.502751,-2.0920415,1.6803354
9.004874000000001,-2.0441686999999997,1.4313968000000001
9.004874000000001,-2.0441686999999997,1.4313968000000001
9.004874000000001,-2.0441686999999997,1.4313968000000001
9.091045,-2.2452345,1.3739493999999999
9.091045,-2.2452345,1.3739493999999999
9.091045,-2.2452345,1.3739493999999999
9.091045,-2.2452345,1.3739493999999999
9.5219,-2.321831,1.5079931999999998
9.5219,-2.321831,1.5079931999999998
9.5219,-2.321831,1.5079931999999998
9.5219,-2.321831,1.5079931999999998
9.636795,-2.1207652,2.015445
9.636795,-2.1207652,2.015445
9.636795,-2.1207652,2.015445
9.636795,-2.1207652,2.015445
9.052747,-1.9005502,2.0920415
9.052747,-1.9005502,2.0920415
9.052747,-1.9005502,2.0920415
9.052747,-1.9005502,2.0920415
8.995299000000001,-2.1877869999999997,1.9867213
8.995299000000001,-2.1877869999999997,1.9867213
8.995299000000001,-2.1877869999999997,1.9867213
9.703816999999999,-2.5037475,2.0633178
9.703816999999999,-2.5037475,2.0633178
9.703816999999999,-2.5037475,2.0633178
9.703816999999999,-2.5037475,2.0633178
9.703816999999999,-2.5037475,2.0633178
9.655944,-2.5707695,2.1973617
9.655944,-2.5707695,2.1973617
9.655944,-2.5707695,2.1973617
9.608071,-2.513322,2.0824668
9.608071,-2.513322,2.0824668
9.608071,-2.513322,2.0824668
9.608071,-2.513322,2.0824668
9.847435,-2.5228968,2.3314054
9.847435,-2.5228968,2.3314054
9.847435,-2.5228968,2.3314054
9.847435,-2.5228968,2.3314054
10.5080805,-4.658024,5.6154795
10.5080805,-4.658024,5.6154795
10.5080805,-4.658024,5.6154795
10.5080805,-4.658024,5.6154795
12.202777000000001,-5.988887999999999,8.210186
12.202777000000001,-5.988887999999999,8.210186
12.202777000000001,-5.988887999999999,8.210186
12.202777000000001,-5.988887999999999,8.210186
11.063405,-6.2952733,5.28037
11.063405,-6.2952733,5.28037
11.063405,-6.2952733,5.28037
11.063405,-6.2952733,5.28037
9.5889225,-6.3431463,3.2505634
9.5889225,-6.3431463,3.2505634
9.5889225,-6.3431463,3.2505634
9.5889225,-6.3431463,3.2505634
8.047417999999999,-6.8793216,2.2356597999999996
8.047417999999999,-6.8793216,2.2356597999999996
8.047417999999999,-6.8793216,2.2356597999999996
8.047417999999999,-6.8793216,2.2356597999999996
6.9080452999999995,-5.7016506,3.4707782
6.9080452999999995,-5.7016506,3.4707782
6.9080452999999995,-5.7016506,3.4707782
6.9080452999999995,-5.7016506,3.4707782
6.525062999999999,-4.9739842,4.284616000000001
6.525062999999999,-4.9739842,4.284616000000001
6.525062999999999,-4.9739842,4.284616000000001
6.525062999999999,-4.9739842,4.284616000000001
5.1271772,-3.2505634,5.1271772
5.1271772,-3.2505634,5.1271772
5.1271772,-3.2505634,5.1271772
3.5760984,-1.9292740000000002,5.787822
3.5760984,-1.9292740000000002,5.787822
3.5760984,-1.9292740000000002,5.787822
3.5760984,-1.9292740000000002,5.787822
3.5760984,-1.9292740000000002,5.787822
2.8101335,-2.561195,6.592085000000001
2.8101335,-2.561195,6.592085000000001
2.8101335,-2.561195,6.592085000000001
2.6282167000000003,-3.5952474999999997,7.7506065
2.6282167000000003,-3.5952474999999997,7.7506065
2.6282167000000003,-3.5952474999999997,7.7506065
2.6282167000000003,-3.5952474999999997,7.7506065
2.8580062,-4.016528,8.631466
2.8580062,-4.016528,8.631466
2.8580062,-4.016528,8.631466
2.8580062,-4.016528,8.631466
3.2984362000000003,-0.15798025,9.914457
3.2984362000000003,-0.15798025,9.914457
3.2984362000000003,-0.15798025,9.914457
3.2984362000000003,-0.15798025,9.914457
3.231414,4.3612123,10.144247
3.231414,4.3612123,10.144247
3.231414,4.3612123,10.144247
3.231414,4.3612123,10.144247
1.7569318999999999,1.8048046999999998,8.679339
1.7569318999999999,1.8048046999999998,8.679339
1.7569318999999999,1.8048046999999998,8.679339
1.7569318999999999,1.8048046999999998,8.679339
0.9718179,1.4792696,8.191036
0.9718179,1.4792696,8.191036
0.9718179,1.4792696,8.191036
0.9718179,1.4792696,8.191036
1.3356511999999998,2.0728923999999997,8.191036
1.3356511999999998,2.0728923999999997,8.191036
1.3356511999999998,2.0728923999999997,8.191036
1.3356511999999998,2.0728923999999997,8.191036
1.2877783999999999,2.4558747000000003,8.842107
1.2877783999999999,2.4558747000000003,8.842107
1.2877783999999999,2.4558747000000003,8.842107
1.2877783999999999,2.4558747000000003,8.842107
1.3643749,1.5271424,9.531475
1.3643749,1.5271424,9.531475
1.3643749,1.5271424,9.531475
1.3643749,1.5271424,9.531475
1.6037389,0.39734426,9.359133
1.6037389,0.39734426,9.359133
1.6037389,0.39734426,9.359133
1.7186337,0.8186249,9.272962
1.7186337,0.8186249,9.272962
1.7186337,0.8186249,9.272962
1.7186337,0.8186249,9.272962
1.7186337,0.8186249,9.272962
1.6994845,0.8952214,9.368708
1.6994845,0.8952214,9.368708
1.6994845,0.8952214,9.368708
1.6994845,0.8952214,9.368708
6.7165539999999995,-2.8101335,6.9559183
8.248484,-4.6005764000000005,5.806971
8.248484,-4.6005764000000005,5.806971
8.248484,-4.6005764000000005,5.806971
8.248484,-4.6005764000000005,5.806971
9.837861,-4.763344,6.180379
9.837861,-4.763344,6.180379
9.837861,-4.763344,6.180379
9.837861,-4.763344,6.180379
10.019777000000001,-5.912291000000001,5.500585
10.019777000000001,-5.912291000000001,5.500585
10.019777000000001,-5.912291000000001,5.500585
10.019777000000001,-5.912291000000001,5.500585
10.115523,-4.916537,4.5527034
10.115523,-4.916537,4.5527034
10.115523,-4.916537,4.5527034
10.115523,-4.916537,4.5527034
9.780414,-4.7250457,3.8346114
9.780414,-4.7250457,3.8346114
9.780414,-4.7250457,3.8346114
9.780414,-4.7250457,3.8346114
10.182545,-5.4239883,2.3314054
10.182545,-5.4239883,2.3314054
10.182545,-5.4239883,2.3314054
10.182545,-5.4239883,2.3314054
9.54105,-4.1984449999999995,1.9771467
9.54105,-4.1984449999999995,1.9771467
9.54105,-4.1984449999999995,1.9771467
9.54105,-4.1984449999999995,1.9771467
9.033598,-3.518651,0.91437054
9.033598,-3.518651,0.91437054
9.033598,-3.518651,0.91437054
9.033598,-3.518651,0.91437054
9.062322,-3.1739669999999998,1.0771381000000002
9.062322,-3.1739669999999998,1.0771381000000002
9.062322,-3.1739669999999998,1.0771381000000002
9.64637,-3.451629,0.98139244
9.64637,-3.451629,0.98139244
9.64637,-3.451629,0.98139244
9.64637,-3.451629,0.98139244
9.64637,-3.451629,0.98139244
9.598496,-2.752686,1.6420371999999999
9.598496,-2.752686,1.6420371999999999
9.598496,-2.752686,1.6420371999999999
9.608071,-2.7718353,1.3260766000000002
9.608071,-2.7718353,1.3260766000000002
9.608071,-2.7718353,1.3260766000000002
9.608071,-2.7718353,1.3260766000000002
9.732541000000001,-2.6090677,1.6803354
9.732541000000001,-2.6090677,1.6803354
9.732541000000001,-2.6090677,1.6803354
9.732541000000001,-2.6090677,1.6803354
9.770839,-2.2452345,1.6803354
9.770839,-2.2452345,1.6803354
9.770839,-2.2452345,1.6803354
9.770839,-2.2452345,1.6803354
9.761265,-2.513322,1.4505458999999998
9.761265,-2.513322,1.4505458999999998
9.761265,-2.513322,1.4505458999999998
9.761265,-2.513322,1.4505458999999998
9.722966,-2.5707695,1.1920328000000002
9.722966,-2.5707695,1.1920328000000002
9.722966,-2.5707695,1.1920328000000002
9.722966,-2.5707695,1.1920328000000002
9.464453,-2.513322,0.8952214
9.464453,-2.513322,0.8952214
9.464453,-2.513322,0.8952214
9.483603,-2.4750240000000003,0.83777404
9.483603,-2.4750240000000003,0.83777404
9.483603,-2.4750240000000003,0.83777404
9.483603,-2.4750240000000003,0.83777404
9.64637,-2.4654493,1.1728836
9.64637,-2.4654493,1.1728836
9.64637,-2.4654493,1.1728836
9.64637,-2.4654493,1.1728836
9.617646,-2.3697037999999995,1.2494801000000002
9.617646,-2.3697037999999995,1.2494801000000002
9.617646,-2.3697037999999995,1.2494801000000002
9.617646,-2.3697037999999995,1.2494801000000002
9.608071,-2.4175766,1.1920328000000002
9.608071,-2.4175766,1.1920328000000002
9.608071,-2.4175766,1.1920328000000002
9.608071,-2.4175766,1.1920328000000002
9.608071,-2.4367256,1.0579889
9.608071,-2.4367256,1.0579889
9.608071,-2.4367256,1.0579889
9.608071,-2.4367256,1.0579889
9.64637,-2.427151,1.1154363
9.64637,-2.427151,1.1154363
9.64637,-2.427151,1.1154363
9.64637,-2.427151,1.1154363
9.6942425,-2.4750240000000003,1.2016073
9.6942425,-2.4750240000000003,1.2016073
9.6942425,-2.4750240000000003,1.2016073
9.64637,-2.2643836,1.14416
9.64637,-2.2643836,1.14416
9.64637,-2.2643836,1.14416
9.64637,-2.2643836,1.14416
9.703816999999999,-2.2739582,1.0867126
9.703816999999999,-2.2739582,1.0867126
9.703816999999999,-2.2739582,1.0867126
9.703816999999999,-2.2739582,1.0867126
9.722966,-2.2835326,1.1537346000000002
9.722966,-2.2835326,1.1537346000000002
9.722966,-2.2835326,1.1537346000000002
9.722966,-2.2835326,1.1537346000000002
9.64637,-2.5899186000000003,1.2590546999999999
9.64637,-2.5899186000000003,1.2590546999999999
9.64637,-2.5899186000000003,1.2590546999999999
9.64637,-2.5899186000000003,1.2590546999999999
9.636795,-2.5707695,1.2877783999999999
9.636795,-2.5707695,1.2877783999999999
9.636795,-2.5707695,1.2877783999999999
9.636795,-2.5707695,1.2877783999999999
9.569773,-2.408002,1.1250108
9.569773,-2.408002,1.1250108
9.569773,-2.408002,1.1250108
9.569773,-2.408002,1.1250108
9.703816999999999,-2.3505547000000004,1.0484143
9.703816999999999,-2.3505547000000004,1.0484143
9.703816999999999,-2.3505547000000004,1.0484143
9.5889225,-2.1973617,0.85692316
9.5889225,-2.1973617,0.85692316
9.5889225,-2.1973617,0.85692316
9.5889225,-2.1973617,0.85692316
9.5889225,-2.1973617,0.85692316
9.761265,-2.1303396,0.99096704
9.761265,-2.1303396,0.99096704
9.761265,-2.1303396,0.99096704
9.62722,-2.2069361,1.14416
9.62722,-2.2069361,1.14416
9.62722,-2.2069361,1.14416
9.62722,-2.2069361,1.14416
9.713391,-2.494173,1.14416
9.713391,-2.494173,1.14416
9.713391,-2.494173,1.14416
9.713391,-2.494173,1.14416
9.665519,-2.5803439999999997,1.2111819
9.665519,-2.5803439999999997,1.2111819
9.665519,-2.5803439999999997,1.2111819
9.665519,-2.5803439999999997,1.2111819
9.655944,-2.3314054,1.0484143
9.655944,-2.3314054,1.0484143
9.655944,-2.3314054,1.0484143
9.655944,-2.3314054,1.0484143
9.665519,-2.101616,0.9430941999999999
9.665519,-2.101616,0.9430941999999999
9.665519,-2.101616,0.9430941999999999
9.665519,-2.101616,0.9430941999999999
9.684667999999999,-2.2739582,1.1058618
9.684667999999999,-2.2739582,1.1058618
9.684667999999999,-2.2739582,1.1058618
9.684667999999999,-2.2739582,1.1058618
9.617646,-2.321831,1.0292653
9.617646,-2.321831,1.0292653
9.617646,-2.321831,1.0292653
9.713391,-2.360129,1.0867126
9.713391,-2.360129,1.0867126
9.713391,-2.360129,1.0867126
9.713391,-2.360129,1.0867126
9.6942425,-2.3026817000000004,1.0484143
9.6942425,-2.3026817000000004,1.0484143
9.6942425,-2.3026817000000004,1.0484143
9.6942425,-2.3026817000000004,1.0484143
9.675094,-2.2835326,1.0962871
9.675094,-2.2835326,1.0962871
9.675094,-2.2835326,1.0962871
9.675094,-2.2835326,1.0962871
9.665519,-2.3122563,1.0101161
9.665519,-2.3122563,1.0101161
9.665519,-2.3122563,1.0101161
9.665519,-2.3122563,1.0101161
9.7899885,-2.3697037999999995,1.1728836
9.7899885,-2.3697037999999995,1.1728836
9.7899885,-2.3697037999999995,1.1728836
9.7899885,-2.3697037999999995,1.1728836
9.512326,-2.254809,1.0484143
9.512326,-2.254809,1.0484143
9.512326,-2.254809,1.0484143
9.675094,-2.321831,0.9526688
9.675094,-2.321831,0.9526688
9.675094,-2.321831,0.9526688
9.675094,-2.321831,0.9526688
9.675094,-2.321831,0.9526688
9.75169,-2.3314054,1.0867126
9.75169,-2.3314054,1.0867126
9.75169,-2.3314054,1.0867126
9.608071,-2.2835326,1.0771381000000002
9.608071,-2.2835326,1.0771381000000002
9.608071,-2.2835326,1.0771381000000002
9.608071,-2.2835326,1.0771381000000002
9.761265,-2.4175766,1.0962871
9.761265,-2.4175766,1.0962871
9.761265,-2.4175766,1.0962871
9.761265,-2.4175766,1.0962871
9.598496,-2.2356597999999996,0.8856468000000001
9.598496,-2.2356597999999996,0.8856468000000001
9.598496,-2.2356597999999996,0.8856468000000001
9.598496,-2.2356597999999996,0.8856468000000001
9.742115,-2.1877869999999997,0.9526688
9.742115,-2.1877869999999997,0.9526688
9.742115,-2.1877869999999997,0.9526688
9.742115,-2.1877869999999997,0.9526688
9.703816999999999,-2.2739582,0.9526688
9.703816999999999,-2.2739582,0.9526688
9.703816999999999,-2.2739582,0.9526688
9.703816999999999,-2.2739582,0.9526688
9.713391,-2.3792782000000003,1.0388398
9.713391,-2.3792782000000003,1.0388398
9.713391,-2.3792782000000003,1.0388398
9.713391,-2.3792782000000003,1.0388398
9.617646,-2.3697037999999995,1.0005416
9.617646,-2.3697037999999995,1.0005416
9.617646,-2.3697037999999995,1.0005416
9.742115,-2.2931072999999995,0.99096704
9.742115,-2.2931072999999995,0.99096704
9.742115,-2.2931072999999995,0.99096704
9.742115,-2.2931072999999995,0.99096704
9.665519,-2.3792782000000003,1.0388398
9.665519,-2.3792782000000003,1.0388398
9.665519,-2.3792782000000003,1.0388398
9.665519,-2.3792782000000003,1.0388398
9.608071,-2.3697037999999995,1.0388398
9.608071,-2.3697037999999995,1.0388398
9.608071,-2.3697037999999995,1.0388398
9.608071,-2.3697037999999995,1.0388398
9.780414,-2.4654493,1.0867126
9.780414,-2.4654493,1.0867126
9.780414,-2.4654493,1.0867126
9.780414,-2.4654493,1.0867126
9.569773,-2.3792782000000003,1.0388398
9.569773,-2.3792782000000003,1.0388398
9.569773,-2.3792782000000003,1.0388398
9.569773,-2.3792782000000003,1.0388398
9.464453,-2.3792782000000003,0.9430941999999999
9.464453,-2.3792782000000003,0.9430941999999999
9.464453,-2.3792782000000003,0.9430941999999999
9.464453,-2.3792782000000003,0.9430941999999999
9.761265,-2.427151,1.1345854
9.761265,-2.427151,1.1345854
9.761265,-2.427151,1.1345854
9.703816999999999,-2.3984275,1.14416
9.703816999999999,-2.3984275,1.14416
9.703816999999999,-2.3984275,1.14416
9.703816999999999,-2.3984275,1.14416
9.608071,-2.5707695,1.0962871
9.608071,-2.5707695,1.0962871
9.608071,-2.5707695,1.0962871
9.608071,-2.5707695,1.0962871
9.665519,-2.3505547000000004,1.0292653
9.665519,-2.3505547000000004,1.0292653
9.665519,-2.3505547000000004,1.0292653
9.665519,-2.3505547000000004,1.0292653
9.713391,-2.4175766,1.14416
9.713391,-2.4175766,1.14416
9.713391,-2.4175766,1.14416
9.713391,-2.4175766,1.14416
9.579348,-2.4463003,1.14416
9.579348,-2.4463003,1.14416
9.579348,-2.4463003,1.14416
9.579348,-2.4463003,1.14416
9.722966,-2.6282167000000003,1.3069274
9.722966,-2.6282167000000003,1.3069274
9.722966,-2.6282167000000003,1.3069274
9.54105,-2.3505547000000004,1.3260766000000002
9.54105,-2.3505547000000004,1.3260766000000002
9.54105,-2.3505547000000004,1.3260766000000002
9.54105,-2.3505547000000004,1.3260766000000002
9.54105,-2.3505547000000004,1.3260766000000002
9.713391,-2.0441686999999997,0.92394507
9.713391,-2.0441686999999997,0.92394507
9.713391,-2.0441686999999997,0.92394507
9.378282,-1.5558661,0.9526688
9.378282,-1.5558661,0.9526688
9.378282,-1.5558661,0.9526688
9.378282,-1.5558661,0.9526688
9.3878565,-2.168638,0.90479594
9.3878565,-2.168638,0.90479594
9.3878565,-2.168638,0.90479594
9.3878565,-2.168638,0.90479594
7.4537954,-2.647366,1.1728836
7.4537954,-2.647366,1.1728836
7.4537954,-2.647366,1.1728836
7.4537954,-2.647366,1.1728836
10.19212,-4.246317400000001,0.359046
10.19212,-4.246317400000001,0.359046
10.19212,-4.246317400000001,0.359046
10.19212,-4.246317400000001,0.359046
12.078308,-4.6388745,1.4792696
12.078308,-4.6388745,1.4792696
12.078308,-4.6388745,1.4792696
12.078308,-4.6388745,1.4792696
9.703816999999999,-3.4420545,2.714388
9.703816999999999,-3.4420545,2.714388
9.703816999999999,-3.4420545,2.714388
9.703816999999999,-3.4420545,2.714388
7.626137299999999,-2.2069361,2.34098
7.626137299999999,-2.2069361,2.34098
7.626137299999999,-2.2069361,2.34098
7.0133657000000005,-2.561195,1.5654407
7.0133657000000005,-2.561195,1.5654407
7.0133657000000005,-2.561195,1.5654407
7.0133657000000005,-2.561195,1.5654407
7.0133657000000005,-2.561195,1.5654407
5.644203,-2.5324712000000003,0.93351966
5.644203,-2.5324712000000003,0.93351966
5.644203,-2.5324712000000003,0.93351966
8.21976,-2.5516202,0.7994758000000001
8.21976,-2.5516202,0.7994758000000001
8.21976,-2.5516202,0.7994758000000001
8.21976,-2.5516202,0.7994758000000001
7.482519,-2.408002,0.59841
7.482519,-2.408002,0.59841
7.482519,-2.408002,0.59841
7.482519,-2.408002,0.59841
9.655944,-3.0973704,0.3877697
9.655944,-3.0973704,0.3877697
9.655944,-3.0973704,0.3877697
9.655944,-3.0973704,0.3877697
16.214517999999998,-4.437809,1.2494801000000002
16.214517999999998,-4.437809,1.2494801000000002
16.214517999999998,-4.437809,1.2494801000000002
16.214517999999998,-4.437809,1.2494801000000002
16.310265,-3.9016335,3.1165195
16.310265,-3.9016335,3.1165195
16.310265,-3.9016335,3.1165195
16.310265,-3.9016335,3.1165195
10.096374,-0.28244954,3.2601378
10.096374,-0.28244954,3.2601378
10.096374,-0.28244954,3.2601378
3.6335455999999997,-0.20585304,2.3505547000000004
3.6335455999999997,-0.20585304,2.3505547000000004
3.6335455999999997,-0.20585304,2.3505547000000004
3.6335455999999997,-0.20585304,2.3505547000000004
2.3697037999999995,-2.0920415,1.4984187
2.3697037999999995,-2.0920415,1.4984187
2.3697037999999995,-2.0920415,1.4984187
2.3697037999999995,-2.0920415,1.4984187
5.960164,-2.8963046,1.9101248
5.960164,-2.8963046,1.9101248
5.960164,-2.8963046,1.9101248
5.960164,-2.8963046,1.9101248
10.249566999999999,-2.5037475,2.0920415
10.249566999999999,-2.5037475,2.0920415
10.249566999999999,-2.5037475,2.0920415
10.249566999999999,-2.5037475,2.0920415
15.170891000000001,-2.513322,0.9718179
15.170891000000001,-2.513322,0.9718179
15.170891000000001,-2.513322,0.9718179
15.170891000000001,-2.513322,0.9718179
15.170891000000001,-2.513322,0.9718179
15.170891000000001,-2.513322,0.9718179
15.170891000000001,-2.513322,0.9718179
10.115523,-3.1739669999999998,1.0101161
10.115523,-3.1739669999999998,1.0101161
10.115523,-3.1739669999999998,1.0101161
10.115523,-3.1739669999999998,1.0101161
5.3569665,-1.8814011999999998,2.015445
5.3569665,-1.8814011999999998,2.015445
5.3569665,-1.8814011999999998,2.015445
5.3569665,-1.8814011999999998,2.015445
4.6675982000000005,-1.948423,1.4122477
4.6675982000000005,-1.948423,1.4122477
4.6675982000000005,-1.948423,1.4122477
4.6675982000000005,-1.948423,1.4122477
7.434646000000001,-2.5324712000000003,1.5079931999999998
7.434646000000001,-2.5324712000000003,1.5079931999999998
7.434646000000001,-2.5324712000000003,1.5079931999999998
7.434646000000001,-2.5324712000000003,1.5079931999999998
8.430401,-3.1452432,1.1824582000000001
8.430401,-3.1452432,1.1824582000000001
8.430401,-3.1452432,1.1824582000000001
15.132593,-4.294190400000001,0.91437054
15.132593,-4.294190400000001,0.91437054
15.132593,-4.294190400000001,0.91437054
15.132593,-4.294190400000001,0.91437054
15.525148999999999,-6.630383,3.6239712
15.525148999999999,-6.630383,3.6239712
15.525148999999999,-6.630383,3.6239712
15.525148999999999,-6.630383,3.6239712
7.1091112999999995,-3.2505634,4.409085299999999
7.1091112999999995,-3.2505634,4.409085299999999
7.1091112999999995,-3.2505634,4.409085299999999
7.1091112999999995,-3.2505634,4.409085299999999
4.322914,-1.4984187,4.236743
4.322914,-1.4984187,4.236743
4.322914,-1.4984187,4.236743
4.322914,-1.4984187,4.236743
4.1409974,-2.5516202,2.7239625
4.1409974,-2.5516202,2.7239625
4.1409974,-2.5516202,2.7239625
4.1409974,-2.5516202,2.7239625
9.560199,-3.8920587999999996,2.88673
9.560199,-3.8920587999999996,2.88673
9.560199,-3.8920587999999996,2.88673
9.560199,-3.8920587999999996,2.88673
12.336822,-1.9005502,1.7665064
12.336822,-1.9005502,1.7665064
12.336822,-1.9005502,1.7665064
12.336822,-1.9005502,1.7665064
14.395351000000002,-2.3026817000000004,0.3111732
14.395351000000002,-2.3026817000000004,0.3111732
14.395351000000002,-2.3026817000000004,0.3111732
14.395351000000002,-2.3026817000000004,0.3111732
11.063405,-3.231414,0.56968635
11.063405,-3.231414,0.56968635
11.063405,-3.231414,0.56968635
11.063405,-3.231414,0.56968635
7.9420977,-2.2931072999999995,1.0196906
7.9420977,-2.2931072999999995,1.0196906
7.9420977,-2.2931072999999995,1.0196906
7.9420977,-2.2931072999999995,1.0196906
5.0505805,-2.1303396,1.14416
5.0505805,-2.1303396,1.14416
5.0505805,-2.1303396,1.14416
5.0505805,-2.1303396,1.14416
6.2665496,-2.3314054,1.948423
6.2665496,-2.3314054,1.948423
6.2665496,-2.3314054,1.948423
8.487848,-2.5228968,2.2643836
8.487848,-2.5228968,2.2643836
8.487848,-2.5228968,2.2643836
8.487848,-2.5228968,2.2643836
12.509163000000001,-3.4707782,0.71330476
12.509163000000001,-3.4707782,0.71330476
12.509163000000001,-3.4707782,0.71330476
12.509163000000001,-3.4707782,0.71330476
16.137922,-6.620808599999999,3.3558834
16.137922,-6.620808599999999,3.3558834
16.137922,-6.620808599999999,3.3558834
16.137922,-6.620808599999999,3.3558834
8.152739,-2.4654493,4.131423000000001
8.152739,-2.4654493,4.131423000000001
8.152739,-2.4654493,4.131423000000001
8.152739,-2.4654493,4.131423000000001
5.232497,-1.1345854,3.6335455999999997
5.232497,-1.1345854,3.6335455999999997
5.232497,-1.1345854,3.6335455999999997
5.232497,-1.1345854,3.6335455999999997
4.6388745,-2.4463003,2.6856642
4.6388745,-2.4463003,2.6856642
4.6388745,-2.4463003,2.6856642
8.995299000000001,-3.5856729,2.8771553
8.995299000000001,-3.5856729,2.8771553
8.995299000000001,-3.5856729,2.8771553
8.995299000000001,-3.5856729,2.8771553
8.995299000000001,-3.5856729,2.8771553
12.987891000000001,-2.0633178,1.5845897
12.987891000000001,-2.0633178,1.5845897
12.987891000000001,-2.0633178,1.5845897
13.667685500000001,-2.2739582,0.11968201
13.667685500000001,-2.2739582,0.11968201
13.667685500000001,-2.2739582,0.11968201
13.667685500000001,-2.2739582,0.11968201
10.6134,-3.0303482999999996,0.13883112
10.6134,-3.0303482999999996,0.13883112
10.6134,-3.0303482999999996,0.13883112
10.6134,-3.0303482999999996,0.13883112
7.5399666,-2.752686,0.2920241
7.5399666,-2.752686,0.2920241
7.5399666,-2.752686,0.2920241
7.5399666,-2.752686,0.2920241
6.2761245,-2.714388,1.2207563999999997
6.2761245,-2.714388,1.2207563999999997
6.2761245,-2.714388,1.2207563999999997
6.2761245,-2.714388,1.2207563999999997
6.2378263,-1.862252,2.1877869999999997
6.2378263,-1.862252,2.1877869999999997
6.2378263,-1.862252,2.1877869999999997
9.655944,-1.6420371999999999,1.3260766000000002
9.655944,-1.6420371999999999,1.3260766000000002
9.655944,-1.6420371999999999,1.3260766000000002
9.655944,-1.6420371999999999,1.3260766000000002
9.655944,-1.6420371999999999,1.3260766000000002
17.114527,-5.3378177,2.0728923999999997
17.114527,-5.3378177,2.0728923999999997
17.114527,-5.3378177,2.0728923999999997
10.096374,-3.1548176,3.4612036
10.096374,-3.1548176,3.4612036
10.096374,-3.1548176,3.4612036
10.096374,-3.1548176,3.4612036
8.037844,-1.1058618,3.1452432
8.037844,-1.1058618,3.1452432
8.037844,-1.1058618,3.1452432
8.037844,-1.1058618,3.1452432
5.845269,-1.4218222,1.9579976000000003
5.845269,-1.4218222,1.9579976000000003
5.845269,-1.4218222,1.9579976000000003
5.845269,-1.4218222,1.9579976000000003
7.9420977,-3.5090763999999997,2.9346027
7.9420977,-3.5090763999999997,2.9346027
7.9420977,-3.5090763999999997,2.9346027
7.9420977,-3.5090763999999997,2.9346027
7.654861,-1.6516117,1.7569318999999999
7.654861,-1.6516117,1.7569318999999999
7.654861,-1.6516117,1.7569318999999999
7.654861,-1.6516117,1.7569318999999999
14.548545,-2.34098,1.0771381000000002
14.548545,-2.34098,1.0771381000000002
14.548545,-2.34098,1.0771381000000002
14.548545,-2.34098,1.0771381000000002
12.729378,-2.8101335,0.28244954
12.729378,-2.8101335,0.28244954
12.729378,-2.8101335,0.28244954
8.612317,-1.9196993000000002,-0.5218136
8.612317,-1.9196993000000002,-0.5218136
8.612317,-1.9196993000000002,-0.5218136
8.612317,-1.9196993000000002,-0.5218136
5.6633525,-3.7197167999999996,0.2441513
5.6633525,-3.7197167999999996,0.2441513
5.6633525,-3.7197167999999996,0.2441513
5.6633525,-3.7197167999999996,0.2441513
5.950589,-2.101616,0.6079846
5.950589,-2.101616,0.6079846
5.950589,-2.101616,0.6079846
5.950589,-2.101616,0.6079846
9.024023,-1.6324625,0.00478728
9.024023,-1.6324625,0.00478728
9.024023,-1.6324625,0.00478728
9.024023,-1.6324625,0.00478728
15.515575,-5.1176023,1.0675635
15.515575,-5.1176023,1.0675635
15.515575,-5.1176023,1.0675635
15.515575,-5.1176023,1.0675635
11.446387,-4.0548263,3.5665237999999997
11.446387,-4.0548263,3.5665237999999997
11.446387,-4.0548263,3.5665237999999997
10.651698,-0.2441513,3.5378
10.651698,-0.2441513,3.5378
10.651698,-0.2441513,3.5378
10.651698,-0.2441513,3.5378
10.651698,-0.2441513,3.5378
8.248484,-1.0771381000000002,3.0973704
8.248484,-1.0771381000000002,3.0973704
8.248484,-1.0771381000000002,3.0973704
7.9899707,-2.5803439999999997,3.777164
7.9899707,-2.5803439999999997,3.777164
7.9899707,-2.5803439999999997,3.777164
7.9899707,-2.5803439999999997,3.777164
7.4154973,-1.6994845,2.8101335
7.4154973,-1.6994845,2.8101335
7.4154973,-1.6994845,2.8101335
7.4154973,-1.6994845,2.8101335
7.4154973,-1.6994845,2.8101335
7.4154973,-1.6994845,2.8101335
7.4154973,-1.6994845,2.8101335
7.4154973,-1.6994845,2.8101335
7.4154973,-1.6994845,2.8101335
7.4154973,-1.6994845,2.8101335
7.4154973,-1.6994845,2.8101335
7.4154973,-1.6994845,2.8101335
7.4154973,-1.6994845,2.8101335
7.4154973,-1.6994845,2.8101335
7.4154973,-1.6994845,2.8101335
7.4154973,-1.6994845,2.8101335
10.307014,-1.9196993000000002,1.7473572
10.307014,-1.9196993000000002,1.7473572
10.307014,-1.9196993000000002,1.7473572
10.307014,-1.9196993000000002,1.7473572
14.050668,-2.5994933,0.8186249
14.050668,-2.5994933,0.8186249
14.050668,-2.5994933,0.8186249
15.065570999999998,-3.8729098,-0.10053288
15.065570999999998,-3.8729098,-0.10053288
15.065570999999998,-3.8729098,-0.10053288
15.065570999999998,-3.8729098,-0.10053288
15.065570999999998,-3.8729098,-0.10053288
11.925115,-2.752686,0.19627848
11.925115,-2.752686,0.19627848
11.925115,-2.752686,0.19627848
6.9942164,-1.4792696,0.8473485999999999
6.9942164,-1.4792696,0.8473485999999999
6.9942164,-1.4792696,0.8473485999999999
6.9942164,-1.4792696,0.8473485999999999
3.6526947,-0.10053288,0.90479594
3.6526947,-0.10053288,0.90479594
3.6526947,-0.10053288,0.90479594
3.6526947,-0.10053288,0.90479594
6.6016593,-1.2590546999999999,0.8186249
6.6016593,-1.2590546999999999,0.8186249
6.6016593,-1.2590546999999999,0.8186249
6.6016593,-1.2590546999999999,0.8186249
7.137835000000001,-2.015445,0.6558574
7.137835000000001,-2.015445,0.6558574
7.137835000000001,-2.015445,0.6558574
7.137835000000001,-2.015445,0.6558574
13.188957,-3.7867386,0.8090504
13.188957,-3.7867386,0.8090504
13.188957,-3.7867386,0.8090504
13.188957,-3.7867386,0.8090504
16.903887,-4.3324885,2.2165107999999996
16.903887,-4.3324885,2.2165107999999996
16.903887,-4.3324885,2.2165107999999996
16.903887,-4.3324885,2.2165107999999996
11.36979,-2.2739582,3.2984362000000003
11.36979,-2.2739582,3.2984362000000003
11.36979,-2.2739582,3.2984362000000003
8.708063000000001,-0.8760723,3.7867386
8.708063000000001,-0.8760723,3.7867386
8.708063000000001,-0.8760723,3.7867386
8.708063000000001,-0.8760723,3.7867386
8.708063000000001,-0.8760723,3.7867386
2.7048132000000003,-0.49308985,1.5750152
2.7048132000000003,-0.49308985,1.5750152
2.7048132000000003,-0.49308985,1.5750152
6.400593799999999,-3.5856729,1.8239537000000001
6.400593799999999,-3.5856729,1.8239537000000001
6.400593799999999,-3.5856729,1.8239537000000001
6.400593799999999,-3.5856729,1.8239537000000001
9.368708,-1.383524,1.6324625
9.368708,-1.383524,1.6324625
9.368708,-1.383524,1.6324625
9.368708,-1.383524,1.6324625
15.237913,-2.7431116,0.5505372
15.237913,-2.7431116,0.5505372
15.237913,-2.7431116,0.5505372
15.237913,-2.7431116,0.5505372
15.94643,-4.284616000000001,0.0718092
15.94643,-4.284616000000001,0.0718092
15.94643,-4.284616000000001,0.0718092
15.94643,-4.284616000000001,0.0718092
10.776167999999998,-2.9537517999999996,0.7228793
10.776167999999998,-2.9537517999999996,0.7228793
10.776167999999998,-2.9537517999999996,0.7228793
10.776167999999998,-2.9537517999999996,0.7228793
6.103782,-1.6324625,2.0250196
6.103782,-1.6324625,2.0250196
6.103782,-1.6324625,2.0250196
6.103782,-1.6324625,2.0250196
2.3122563,-0.7324539000000001,1.2782038
2.3122563,-0.7324539000000001,1.2782038
2.3122563,-0.7324539000000001,1.2782038
2.3122563,-0.7324539000000001,1.2782038
6.6016593,-1.8526775000000002,1.6611862000000002
6.6016593,-1.8526775000000002,1.6611862000000002
6.6016593,-1.8526775000000002,1.6611862000000002
6.6016593,-1.8526775000000002,1.6611862000000002
9.5889225,-1.9292740000000002,1.0388398
9.5889225,-1.9292740000000002,1.0388398
9.5889225,-1.9292740000000002,1.0388398
9.5889225,-1.9292740000000002,1.0388398
15.707067000000002,-3.8346114,2.0728923999999997
15.707067000000002,-3.8346114,2.0728923999999997
15.707067000000002,-3.8346114,2.0728923999999997
15.707067000000002,-3.8346114,2.0728923999999997
14.395351000000002,-4.102699299999999,3.7484405
14.395351000000002,-4.102699299999999,3.7484405
14.395351000000002,-4.102699299999999,3.7484405
14.395351000000002,-4.102699299999999,3.7484405
11.015532,-0.33032233,4.7441945
11.015532,-0.33032233,4.7441945
11.015532,-0.33032233,4.7441945
11.015532,-0.33032233,4.7441945
3.7292912000000005,0.00478728,2.4654493
3.7292912000000005,0.00478728,2.4654493
3.7292912000000005,0.00478728,2.4654493
3.9782297999999994,-2.752686,1.5845897
3.9782297999999994,-2.752686,1.5845897
3.9782297999999994,-2.752686,1.5845897
3.9782297999999994,-2.752686,1.5845897
3.9782297999999994,-2.752686,1.5845897
7.2048570000000005,-2.5420458,2.1782124
7.2048570000000005,-2.5420458,2.1782124
7.2048570000000005,-2.5420458,2.1782124
11.187874,-1.8048046999999998,1.8048046999999998
11.187874,-1.8048046999999998,1.8048046999999998
11.187874,-1.8048046999999998,1.8048046999999998
11.187874,-1.8048046999999998,1.8048046999999998
17.507084,-2.8771553,1.4792696
17.507084,-2.8771553,1.4792696
17.507084,-2.8771553,1.4792696
17.507084,-2.8771553,1.4792696
13.035764,-2.905879,0.665432
13.035764,-2.905879,0.665432
13.035764,-2.905879,0.665432
13.035764,-2.905879,0.665432
9.550624000000001,-2.5994933,1.862252
9.550624000000001,-2.5994933,1.862252
9.550624000000001,-2.5994933,1.862252
9.550624000000001,-2.5994933,1.862252
2.5516202,-0.751603,1.7473572
2.5516202,-0.751603,1.7473572
2.5516202,-0.751603,1.7473572
2.5516202,-0.751603,1.7473572
4.045252,-1.4409714,1.8814011999999998
4.045252,-1.4409714,1.8814011999999998
4.045252,-1.4409714,1.8814011999999998
4.045252,-1.4409714,1.8814011999999998
7.9133744,-1.6420371999999999,2.4175766
7.9133744,-1.6420371999999999,2.4175766
7.9133744,-1.6420371999999999,2.4175766
7.9133744,-1.6420371999999999,2.4175766
14.155988,-2.2931072999999995,0.91437054
14.155988,-2.2931072999999995,0.91437054
14.155988,-2.2931072999999995,0.91437054
14.155988,-2.2931072999999995,0.91437054
18.263474,-4.6675982000000005,3.7101421
18.263474,-4.6675982000000005,3.7101421
18.263474,-4.6675982000000005,3.7101421
18.263474,-4.6675982000000005,3.7101421
11.101703,-0.7420284,3.4037561000000003
11.101703,-0.7420284,3.4037561000000003
11.101703,-0.7420284,3.4037561000000003
11.101703,-0.7420284,3.4037561000000003
7.2048570000000005,-1.3260766000000002,3.6335455999999997
7.2048570000000005,-1.3260766000000002,3.6335455999999997
7.2048570000000005,-1.3260766000000002,3.6335455999999997
7.2048570000000005,-1.3260766000000002,3.6335455999999997
1.6133133999999998,-1.0005416,2.1973617
1.6133133999999998,-1.0005416,2.1973617
1.6133133999999998,-1.0005416,2.1973617
1.6133133999999998,-1.0005416,2.1973617
4.3133397,-2.3697037999999995,2.3122563
4.3133397,-2.3697037999999995,2.3122563
4.3133397,-2.3697037999999995,2.3122563
4.3133397,-2.3697037999999995,2.3122563
8.171887,-1.7377827000000001,1.6037389
8.171887,-1.7377827000000001,1.6037389
8.171887,-1.7377827000000001,1.6037389
8.171887,-1.7377827000000001,1.6037389
17.248571,-2.5420458,1.4122477
17.248571,-2.5420458,1.4122477
17.248571,-2.5420458,1.4122477
17.248571,-2.5420458,1.4122477
17.095377,-3.1835412999999995,0.8281995000000001
17.095377,-3.1835412999999995,0.8281995000000001
17.095377,-3.1835412999999995,0.8281995000000001
17.095377,-3.1835412999999995,0.8281995000000001
10.230417999999998,-2.3026817000000004,0.9718179
10.230417999999998,-2.3026817000000004,0.9718179
10.230417999999998,-2.3026817000000004,0.9718179
10.230417999999998,-2.3026817000000004,0.9718179
5.6825019999999995,-1.2303311000000001,2.149489
5.6825019999999995,-1.2303311000000001,2.149489
5.6825019999999995,-1.2303311000000001,2.149489
5.6825019999999995,-1.2303311000000001,2.149489
3.1739669999999998,-1.0005416,1.7282081999999999
3.1739669999999998,-1.0005416,1.7282081999999999
3.1739669999999998,-1.0005416,1.7282081999999999
3.1739669999999998,-1.0005416,1.7282081999999999
7.4729443,-1.7473572,2.2739582
7.4729443,-1.7473572,2.2739582
7.4729443,-1.7473572,2.2739582
10.479357,-1.6324625,1.8718264999999998
10.479357,-1.6324625,1.8718264999999998
10.479357,-1.6324625,1.8718264999999998
10.479357,-1.6324625,1.8718264999999998
10.479357,-1.6324625,1.8718264999999998
15.486851999999999,-3.8250370000000005,1.4026731000000001
15.486851999999999,-3.8250370000000005,1.4026731000000001
15.486851999999999,-3.8250370000000005,1.4026731000000001
15.352808,-4.1601467,3.3941817000000003
15.352808,-4.1601467,3.3941817000000003
15.352808,-4.1601467,3.3941817000000003
15.352808,-4.1601467,3.3941817000000003
7.980396300000001,-0.26330042,3.4803526
7.980396300000001,-0.26330042,3.4803526
7.980396300000001,-0.26330042,3.4803526
7.980396300000001,-0.26330042,3.4803526
2.427151,0.39734426,1.7473572
2.427151,0.39734426,1.7473572
2.427151,0.39734426,1.7473572
2.427151,0.39734426,1.7473572
4.3995104000000005,-3.0111992,1.9867213
4.3995104000000005,-3.0111992,1.9867213
4.3995104000000005,-3.0111992,1.9867213
4.3995104000000005,-3.0111992,1.9867213
9.828286,-2.3888528,2.2835326
9.828286,-2.3888528,2.2835326
9.828286,-2.3888528,2.2835326
9.828286,-2.3888528,2.2835326
16.377285,-3.0111992,1.2782038
16.377285,-3.0111992,1.2782038
16.377285,-3.0111992,1.2782038
16.377285,-3.0111992,1.2782038
14.031518,-3.3750327000000007,0.25372586
14.031518,-3.3750327000000007,0.25372586
14.031518,-3.3750327000000007,0.25372586
14.031518,-3.3750327000000007,0.25372586
11.111278,-3.2026904,2.2356597999999996
11.111278,-3.2026904,2.2356597999999996
11.111278,-3.2026904,2.2356597999999996
11.111278,-3.2026904,2.2356597999999996
6.2091026,-1.9771467,1.7952299999999999
6.2091026,-1.9771467,1.7952299999999999
6.2091026,-1.9771467,1.7952299999999999
6.2091026,-1.9771467,1.7952299999999999
4.5335545999999995,-2.0633178,2.5707695
4.5335545999999995,-2.0633178,2.5707695
4.5335545999999995,-2.0633178,2.5707695
5.088879,-0.7420284,2.2931072999999995
5.088879,-0.7420284,2.2931072999999995
5.088879,-0.7420284,2.2931072999999995
5.088879,-0.7420284,2.2931072999999995
5.088879,-0.7420284,2.2931072999999995
9.225089,-2.0441686999999997,1.5462915000000002
9.225089,-2.0441686999999997,1.5462915000000002
9.225089,-2.0441686999999997,1.5462915000000002
17.05708,-3.5856729,0.8473485999999999
17.05708,-3.5856729,0.8473485999999999
17.05708,-3.5856729,0.8473485999999999
17.05708,-3.5856729,0.8473485999999999
14.261307999999998,-4.0548263,3.6143966
14.261307999999998,-4.0548263,3.6143966
14.261307999999998,-4.0548263,3.6143966
14.261307999999998,-4.0548263,3.6143966
10.144247,-0.3398969,4.3516379999999995
10.144247,-0.3398969,4.3516379999999995
10.144247,-0.3398969,4.3516379999999995
10.144247,-0.3398969,4.3516379999999995
4.0356774,0.56968635,2.1877869999999997
4.0356774,0.56968635,2.1877869999999997
4.0356774,0.56968635,2.1877869999999997
4.0356774,0.56968635,2.1877869999999997
5.6250544,-2.9250283,2.4558747000000003
5.6250544,-2.9250283,2.4558747000000003
5.6250544,-2.9250283,2.4558747000000003
7.597413499999999,-2.4654493,3.2505634
7.597413499999999,-2.4654493,3.2505634
7.597413499999999,-2.4654493,3.2505634
7.597413499999999,-2.4654493,3.2505634
7.597413499999999,-2.4654493,3.2505634
9.876159,-1.3260766000000002,2.9920502
9.876159,-1.3260766000000002,2.9920502
9.876159,-1.3260766000000002,2.9920502
15.63047,-2.1973617,2.0824668
15.63047,-2.1973617,2.0824668
15.63047,-2.1973617,2.0824668
15.63047,-2.1973617,2.0824668
13.581514000000002,-2.9824755,1.3069274
13.581514000000002,-2.9824755,1.3069274
13.581514000000002,-2.9824755,1.3069274
13.581514000000002,-2.9824755,1.3069274
12.8538475,-3.7005677,2.1877869999999997
12.8538475,-3.7005677,2.1877869999999997
12.8538475,-3.7005677,2.1877869999999997
12.8538475,-3.7005677,2.1877869999999997
7.482519,-1.4984187,2.9250283
7.482519,-1.4984187,2.9250283
7.482519,-1.4984187,2.9250283
7.482519,-1.4984187,2.9250283
6.5825105,-1.0101161,1.8814011999999998
6.5825105,-1.0101161,1.8814011999999998
6.5825105,-1.0101161,1.8814011999999998
6.5825105,-1.0101161,1.8814011999999998
6.438892,-2.3888528,1.0771381000000002
6.438892,-2.3888528,1.0771381000000002
6.438892,-2.3888528,1.0771381000000002
6.438892,-2.3888528,1.0771381000000002
9.780414,-3.4803526,0.99096704
9.780414,-3.4803526,0.99096704
9.780414,-3.4803526,0.99096704
9.780414,-3.4803526,0.99096704
15.237913,-2.2835326,1.2973529
15.237913,-2.2835326,1.2973529
15.237913,-2.2835326,1.2973529
15.237913,-2.2835326,1.2973529
11.302769,-1.948423,2.4367256
11.302769,-1.948423,2.4367256
11.302769,-1.948423,2.4367256
11.302769,-1.948423,2.4367256
11.666602000000001,-2.3792782000000003,2.408002
11.666602000000001,-2.3792782000000003,2.408002
11.666602000000001,-2.3792782000000003,2.408002
11.666602000000001,-2.3792782000000003,2.408002
6.458041000000001,-1.1728836,2.5228968
6.458041000000001,-1.1728836,2.5228968
6.458041000000001,-1.1728836,2.5228968
6.458041000000001,-1.1728836,2.5228968
5.0601554,-1.6420371999999999,1.5367169
5.0601554,-1.6420371999999999,1.5367169
5.0601554,-1.6420371999999999,1.5367169
5.0601554,-1.6420371999999999,1.5367169
6.8027253,-2.5228968,1.5941644
6.8027253,-2.5228968,1.5941644
6.8027253,-2.5228968,1.5941644
9.359133,-2.905879,2.5994933
9.359133,-2.905879,2.5994933
9.359133,-2.905879,2.5994933
9.359133,-2.905879,2.5994933
9.359133,-2.905879,2.5994933
11.580430999999999,-3.0973704,2.7622607000000006
11.580430999999999,-3.0973704,2.7622607000000006
11.580430999999999,-3.0973704,2.7622607000000006
14.969825,-2.88673,2.9250283
14.969825,-2.88673,2.9250283
14.969825,-2.88673,2.9250283
14.969825,-2.88673,2.9250283
14.969825,-2.88673,2.9250283
9.435728999999998,-1.6516117,1.14416
9.435728999999998,-1.6516117,1.14416
9.435728999999998,-1.6516117,1.14416
9.435728999999998,-1.6516117,1.14416
11.791071,-3.039923,1.8718264999999998
11.791071,-3.039923,1.8718264999999998
11.791071,-3.039923,1.8718264999999998
7.319751299999999,-1.2399056,0.8186249
7.319751299999999,-1.2399056,0.8186249
7.319751299999999,-1.2399056,0.8186249
7.319751299999999,-1.2399056,0.8186249
7.568689999999999,-2.2356597999999996,0.50266445
7.568689999999999,-2.2356597999999996,0.50266445
7.568689999999999,-2.2356597999999996,0.50266445
7.568689999999999,-2.2356597999999996,0.50266445
8.305931,-2.2643836,1.1633091
8.305931,-2.2643836,1.1633091
8.305931,-2.2643836,1.1633091
8.305931,-2.2643836,1.1633091
9.407005,-1.1633091,1.4984187
9.407005,-1.1633091,1.4984187
9.407005,-1.1633091,1.4984187
9.407005,-1.1633091,1.4984187
13.524067,-1.4792696,0.6750065
13.524067,-1.4792696,0.6750065
13.524067,-1.4792696,0.6750065
13.524067,-1.4792696,0.6750065
11.953838000000001,-2.8101335,0.0
11.953838000000001,-2.8101335,0.0
11.953838000000001,-2.8101335,0.0
11.953838000000001,-2.8101335,0.0
10.383611,-1.8335283,0.5792609000000001
10.383611,-1.8335283,0.5792609000000001
10.383611,-1.8335283,0.5792609000000001
5.395264599999999,-2.2260852000000004,0.8760723
5.395264599999999,-2.2260852000000004,0.8760723
5.395264599999999,-2.2260852000000004,0.8760723
5.395264599999999,-2.2260852000000004,0.8760723
4.4473834000000005,-2.3314054,1.2590546999999999
4.4473834000000005,-2.3314054,1.2590546999999999
4.4473834000000005,-2.3314054,1.2590546999999999
4.4473834000000005,-2.3314054,1.2590546999999999
3.3941817000000003,-2.0920415,1.4888442
3.3941817000000003,-2.0920415,1.4888442
3.3941817000000003,-2.0920415,1.4888442
3.3941817000000003,-2.0920415,1.4888442
3.3941817000000003,-2.0920415,1.4888442
