accx,accy,accz
2.5324712000000003,0.8664976999999999,6.438892
4.275041000000001,0.8090504,7.032514599999999
4.275041000000001,0.8090504,7.032514599999999
4.275041000000001,0.8090504,7.032514599999999
4.275041000000001,0.8090504,7.032514599999999
6.400593799999999,-1.7665064,7.482519
6.400593799999999,-1.7665064,7.482519
6.400593799999999,-1.7665064,7.482519
6.400593799999999,-1.7665064,7.482519
6.400593799999999,-1.7665064,7.482519
7.626137299999999,-1.0388398,8.315506
7.626137299999999,-1.0388398,8.315506
7.626137299999999,-1.0388398,8.315506
8.679339,0.63670826,8.34423
8.679339,0.63670826,8.34423
8.679339,0.63670826,8.34423
8.679339,0.63670826,8.34423
10.804892,0.54096264,8.32508
10.804892,0.54096264,8.32508
10.804892,0.54096264,8.32508
10.804892,0.54096264,8.32508
11.7049,1.5079931999999998,8.698488000000001
11.7049,1.5079931999999998,8.698488000000001
11.7049,1.5079931999999998,8.698488000000001
11.7049,1.5079931999999998,8.698488000000001
10.374036,2.2643836,7.9037995
10.374036,2.2643836,7.9037995
10.374036,2.2643836,7.9037995
10.374036,2.2643836,7.9037995
8.966576,2.5324712000000003,6.898471000000001
8.966576,2.5324712000000003,6.898471000000001
8.966576,2.5324712000000003,6.898471000000001
8.966576,2.5324712000000003,6.898471000000001
8.248484,2.561195,6.2761245
8.248484,2.561195,6.2761245
8.248484,2.561195,6.2761245
8.248484,2.561195,6.2761245
7.0133657000000005,2.1111906000000005,5.711225499999999
7.0133657000000005,2.1111906000000005,5.711225499999999
7.0133657000000005,2.1111906000000005,5.711225499999999
7.0133657000000005,2.1111906000000005,5.711225499999999
6.410168,1.9579976000000003,5.7686725
6.410168,1.9579976000000003,5.7686725
6.410168,1.9579976000000003,5.7686725
6.410168,1.9579976000000003,5.7686725
6.3622955999999995,1.6037389,6.132505999999999
6.3622955999999995,1.6037389,6.132505999999999
6.3622955999999995,1.6037389,6.132505999999999
6.3622955999999995,1.6037389,6.132505999999999
6.438892,1.3356511999999998,6.314422599999999
6.438892,1.3356511999999998,6.314422599999999
6.438892,1.3356511999999998,6.314422599999999
6.3718699999999995,1.1728836,6.5154879999999995
6.3718699999999995,1.1728836,6.5154879999999995
6.3718699999999995,1.1728836,6.5154879999999995
6.3718699999999995,1.1728836,6.5154879999999995
6.3718699999999995,1.1728836,6.5154879999999995
6.151655,1.3165021000000001,6.47719
6.151655,1.3165021000000001,6.47719
6.151655,1.3165021000000001,6.47719
6.151655,1.3165021000000001,6.47719
6.0750585,1.4409714,6.467615599999999
6.0750585,1.4409714,6.467615599999999
6.0750585,1.4409714,6.467615599999999
6.0750585,1.4409714,6.467615599999999
6.5825105,1.1154363,6.4963393
6.5825105,1.1154363,6.4963393
6.5825105,1.1154363,6.4963393
6.9559183,1.2399056,6.525062999999999
6.9559183,1.2399056,6.525062999999999
6.9559183,1.2399056,6.525062999999999
6.9559183,1.2399056,6.525062999999999
6.9559183,1.2399056,6.525062999999999
7.080387599999999,1.2973529,6.333572
7.080387599999999,1.2973529,6.333572
7.080387599999999,1.2973529,6.333572
7.1474094,1.1250108,5.7686725
7.1474094,1.1250108,5.7686725
7.1474094,1.1250108,5.7686725
7.1474094,1.1250108,5.7686725
7.022939999999999,1.2016073,4.9069624
7.022939999999999,1.2016073,4.9069624
7.022939999999999,1.2016073,4.9069624
7.022939999999999,1.2016073,4.9069624
7.5782647,0.4164934,4.08355
7.5782647,0.4164934,4.08355
7.5782647,0.4164934,4.08355
7.5782647,0.4164934,4.08355
9.20594,-0.8473485999999999,3.3558834
9.20594,-0.8473485999999999,3.3558834
9.20594,-0.8473485999999999,3.3558834
9.20594,-0.8473485999999999,3.3558834
10.642124,-0.14840569,3.6143966
10.642124,-0.14840569,3.6143966
10.642124,-0.14840569,3.6143966
10.642124,-0.14840569,3.6143966
10.383611,0.64628285,3.6431203
10.383611,0.64628285,3.6431203
10.383611,0.64628285,3.6431203
10.383611,0.64628285,3.6431203
10.19212,0.110107444,2.8101335
10.19212,0.110107444,2.8101335
10.19212,0.110107444,2.8101335
10.19212,0.110107444,2.8101335
10.287866000000001,0.03351096,2.2069361
10.287866000000001,0.03351096,2.2069361
10.287866000000001,0.03351096,2.2069361
10.287866000000001,0.03351096,2.2069361
9.818711,0.11968201,2.168638
9.818711,0.11968201,2.168638
9.818711,0.11968201,2.168638
9.818711,0.11968201,2.168638
10.220842999999999,-0.83777404,0.9430941999999999
10.220842999999999,-0.83777404,0.9430941999999999
10.220842999999999,-0.83777404,0.9430941999999999
10.220842999999999,-0.83777404,0.9430941999999999
10.546378,-0.9526688,1.2111819
10.546378,-0.9526688,1.2111819
10.546378,-0.9526688,1.2111819
10.546378,-0.9526688,1.2111819
10.278291000000001,-0.76117754,0.85692316
10.278291000000001,-0.76117754,0.85692316
10.278291000000001,-0.76117754,0.85692316
10.278291000000001,-0.76117754,0.85692316
10.421909,-0.36862057,0.78032666
10.421909,-0.36862057,0.78032666
10.421909,-0.36862057,0.78032666
10.421909,-0.36862057,0.78032666
9.971905,-0.7420284,0.39734426
9.971905,-0.7420284,0.39734426
9.971905,-0.7420284,0.39734426
9.971905,-0.7420284,0.39734426
9.96233,-0.6845810999999999,0.32074776
9.96233,-0.6845810999999999,0.32074776
9.96233,-0.6845810999999999,0.32074776
9.96233,-0.6845810999999999,0.32074776
10.220842999999999,-0.2154276,0.43564250000000004
10.220842999999999,-0.2154276,0.43564250000000004
10.220842999999999,-0.2154276,0.43564250000000004
9.991054,-0.28244954,0.110107444
9.991054,-0.28244954,0.110107444
9.991054,-0.28244954,0.110107444
9.991054,-0.28244954,0.110107444
9.991054,-0.28244954,0.110107444
9.809137,-0.665432,-0.03351096
9.809137,-0.665432,-0.03351096
9.809137,-0.665432,-0.03351096
9.809137,-0.665432,-0.03351096
9.770839,-0.6558574,0.3111732
9.770839,-0.6558574,0.3111732
9.770839,-0.6558574,0.3111732
9.770839,-0.6558574,0.3111732
10.029352000000001,-0.70373017,0.359046
10.029352000000001,-0.70373017,0.359046
10.029352000000001,-0.70373017,0.359046
10.029352000000001,-0.70373017,0.359046
10.029352000000001,-1.0388398,0.26330042
10.029352000000001,-1.0388398,0.26330042
10.029352000000001,-1.0388398,0.26330042
10.029352000000001,-1.0388398,0.26330042
10.077225,-1.1154363,0.3398969
10.077225,-1.1154363,0.3398969
10.077225,-1.1154363,0.3398969
10.077225,-1.1154363,0.3398969
10.134672,-1.4122477,0.20585304
10.134672,-1.4122477,0.20585304
10.134672,-1.4122477,0.20585304
10.134672,-1.4122477,0.20585304
10.038927000000001,-1.2973529,0.22500217
10.038927000000001,-1.2973529,0.22500217
10.038927000000001,-1.2973529,0.22500217
10.038927000000001,-1.2973529,0.22500217
9.866585,-1.0292653,0.12925656
9.866585,-1.0292653,0.12925656
9.866585,-1.0292653,0.12925656
9.866585,-1.0292653,0.12925656
9.971905,-0.8952214,-0.043085523
9.971905,-0.8952214,-0.043085523
9.971905,-0.8952214,-0.043085523
9.971905,-0.8952214,-0.043085523
9.617646,-0.665432,0.3111732
9.617646,-0.665432,0.3111732
9.617646,-0.665432,0.3111732
9.617646,-0.665432,0.3111732
9.799562,-0.77075213,0.44521707
9.799562,-0.77075213,0.44521707
9.799562,-0.77075213,0.44521707
9.799562,-0.77075213,0.44521707
10.06765,-1.4409714,0.03351096
10.06765,-1.4409714,0.03351096
10.06765,-1.4409714,0.03351096
10.06765,-1.4409714,0.03351096
10.029352000000001,-1.469695,0.043085523
10.029352000000001,-1.469695,0.043085523
10.029352000000001,-1.469695,0.043085523
10.029352000000001,-1.469695,0.043085523
10.010203,-1.0867126,0.14840569
10.010203,-1.0867126,0.14840569
10.010203,-1.0867126,0.14840569
10.010203,-1.0867126,0.14840569
9.876159,-1.1824582000000001,-0.023936402000000002
9.876159,-1.1824582000000001,-0.023936402000000002
9.876159,-1.1824582000000001,-0.023936402000000002
9.876159,-1.1824582000000001,-0.023936402000000002
10.125097,-0.99096704,0.110107444
10.125097,-0.99096704,0.110107444
10.125097,-0.99096704,0.110107444
10.125097,-0.99096704,0.110107444
9.914457,-0.83777404,0.10053288
9.914457,-0.83777404,0.10053288
9.914457,-0.83777404,0.10053288
9.914457,-0.83777404,0.10053288
9.943181,-1.3356511999999998,-0.11968201
9.943181,-1.3356511999999998,-0.11968201
9.943181,-1.3356511999999998,-0.11968201
9.943181,-1.3356511999999998,-0.11968201
10.048501,-1.4122477,-0.0718092
10.048501,-1.4122477,-0.0718092
10.048501,-1.4122477,-0.0718092
10.048501,-1.4122477,-0.0718092
10.048501,-1.4122477,-0.0718092
10.029352000000001,-1.2303311000000001,0.05266008
10.029352000000001,-1.2303311000000001,0.05266008
10.029352000000001,-1.2303311000000001,0.05266008
10.048501,-1.2686293,0.15798025
10.048501,-1.2686293,0.15798025
10.048501,-1.2686293,0.15798025
10.048501,-1.2686293,0.15798025
10.096374,-1.1250108,0.32074776
10.096374,-1.1250108,0.32074776
10.096374,-1.1250108,0.32074776
10.096374,-1.1250108,0.32074776
10.096374,-1.1250108,0.32074776
9.876159,-1.0388398,0.25372586
9.876159,-1.0388398,0.25372586
9.876159,-1.0388398,0.25372586
9.75169,-1.1728836,-0.043085523
9.75169,-1.1728836,-0.043085523
9.75169,-1.1728836,-0.043085523
9.75169,-1.1728836,-0.043085523
9.722966,-1.2111819,-0.14840569
9.722966,-1.2111819,-0.14840569
9.722966,-1.2111819,-0.14840569
9.722966,-1.2111819,-0.14840569
9.971905,-1.2494801000000002,-0.18670394
9.971905,-1.2494801000000002,-0.18670394
9.971905,-1.2494801000000002,-0.18670394
9.971905,-1.2494801000000002,-0.18670394
9.971905,-1.2494801000000002,-0.18670394
10.019777000000001,-1.1728836,-0.081383765
10.019777000000001,-1.1728836,-0.081383765
10.019777000000001,-1.1728836,-0.081383765
9.885734,-1.1633091,0.062234644000000006
9.885734,-1.1633091,0.062234644000000006
9.885734,-1.1633091,0.062234644000000006
9.885734,-1.1633091,0.062234644000000006
9.933606,-1.1728836,0.3111732
9.933606,-1.1728836,0.3111732
9.933606,-1.1728836,0.3111732
9.933606,-1.1728836,0.3111732
9.933606,-1.1728836,0.3111732
9.971905,-1.2590546999999999,0.44521707
9.971905,-1.2590546999999999,0.44521707
9.971905,-1.2590546999999999,0.44521707
10.06765,-1.3165021000000001,0.34947145
10.06765,-1.3165021000000001,0.34947145
10.06765,-1.3165021000000001,0.34947145
10.06765,-1.3165021000000001,0.34947145
10.06765,-1.3165021000000001,0.34947145
9.8953085,-1.3739493999999999,0.12925656
9.8953085,-1.3739493999999999,0.12925656
9.8953085,-1.3739493999999999,0.12925656
9.828286,-1.3739493999999999,-0.014361841
9.828286,-1.3739493999999999,-0.014361841
9.828286,-1.3739493999999999,-0.014361841
9.828286,-1.3739493999999999,-0.014361841
9.866585,-1.3643749,0.014361841
9.866585,-1.3643749,0.014361841
9.866585,-1.3643749,0.014361841
9.866585,-1.3643749,0.014361841
9.952755999999999,-1.3739493999999999,0.14840569
9.952755999999999,-1.3739493999999999,0.14840569
9.952755999999999,-1.3739493999999999,0.14840569
9.952755999999999,-1.3739493999999999,0.14840569
10.019777000000001,-1.3356511999999998,0.26330042
10.019777000000001,-1.3356511999999998,0.26330042
10.019777000000001,-1.3356511999999998,0.26330042
10.019777000000001,-1.3356511999999998,0.26330042
9.96233,-1.2973529,0.3877697
9.96233,-1.2973529,0.3877697
9.96233,-1.2973529,0.3877697
9.96233,-1.2973529,0.3877697
9.943181,-1.3260766000000002,0.2920241
9.943181,-1.3260766000000002,0.2920241
9.943181,-1.3260766000000002,0.2920241
9.943181,-1.3260766000000002,0.2920241
9.933606,-1.3643749,0.110107444
9.933606,-1.3643749,0.110107444
9.933606,-1.3643749,0.110107444
9.933606,-1.3643749,0.110107444
9.8953085,-1.4026731000000001,0.014361841
9.8953085,-1.4026731000000001,0.014361841
9.8953085,-1.4026731000000001,0.014361841
9.8953085,-1.4026731000000001,0.014361841
9.924032,-1.4026731000000001,0.03351096
9.924032,-1.4026731000000001,0.03351096
9.924032,-1.4026731000000001,0.03351096
9.924032,-1.4026731000000001,0.03351096
9.924032,-1.4026731000000001,0.03351096
9.924032,-1.3356511999999998,0.11968201
9.924032,-1.3356511999999998,0.11968201
9.924032,-1.3356511999999998,0.11968201
9.8953085,-1.3069274,0.2154276
9.8953085,-1.3069274,0.2154276
9.8953085,-1.3069274,0.2154276
9.8953085,-1.3069274,0.2154276
9.943181,-1.3643749,0.110107444
9.943181,-1.3643749,0.110107444
9.943181,-1.3643749,0.110107444
9.943181,-1.3643749,0.110107444
9.952755999999999,-1.3930986,0.10053288
9.952755999999999,-1.3930986,0.10053288
9.952755999999999,-1.3930986,0.10053288
9.952755999999999,-1.3930986,0.10053288
9.952755999999999,-1.4218222,0.20585304
9.952755999999999,-1.4218222,0.20585304
9.952755999999999,-1.4218222,0.20585304
9.952755999999999,-1.4218222,0.20585304
10.077225,-1.4792696,0.23457673
10.077225,-1.4792696,0.23457673
10.077225,-1.4792696,0.23457673
10.077225,-1.4792696,0.23457673
10.010203,-1.4026731000000001,0.28244954
10.010203,-1.4026731000000001,0.28244954
10.010203,-1.4026731000000001,0.28244954
10.010203,-1.4026731000000001,0.28244954
9.96233,-1.2973529,0.27287498
9.96233,-1.2973529,0.27287498
9.96233,-1.2973529,0.27287498
9.96233,-1.2973529,0.27287498
9.952755999999999,-1.2111819,0.2441513
9.952755999999999,-1.2111819,0.2441513
9.952755999999999,-1.2111819,0.2441513
9.952755999999999,-1.2111819,0.2441513
9.943181,-1.2111819,0.11968201
9.943181,-1.2111819,0.11968201
9.943181,-1.2111819,0.11968201
9.943181,-1.2111819,0.11968201
9.8953085,-1.2303311000000001,0.081383765
9.8953085,-1.2303311000000001,0.081383765
9.8953085,-1.2303311000000001,0.081383765
9.8953085,-1.2303311000000001,0.081383765
9.924032,-1.2973529,0.14840569
9.924032,-1.2973529,0.14840569
9.924032,-1.2973529,0.14840569
9.924032,-1.2973529,0.14840569
9.885734,-1.2973529,0.26330042
9.885734,-1.2973529,0.26330042
9.885734,-1.2973529,0.26330042
9.885734,-1.2973529,0.26330042
9.837861,-1.2590546999999999,0.4164934
9.837861,-1.2590546999999999,0.4164934
9.837861,-1.2590546999999999,0.4164934
9.837861,-1.2590546999999999,0.4164934
9.655944,-1.2399056,0.3877697
9.655944,-1.2399056,0.3877697
9.655944,-1.2399056,0.3877697
9.655944,-1.2399056,0.3877697
9.732541000000001,-1.1250108,0.34947145
9.732541000000001,-1.1250108,0.34947145
9.732541000000001,-1.1250108,0.34947145
9.732541000000001,-1.1250108,0.34947145
10.010203,-0.99096704,0.8186249
10.010203,-0.99096704,0.8186249
10.010203,-0.99096704,0.8186249
10.010203,-0.99096704,0.8186249
10.115523,-1.2016073,1.5654407
10.115523,-1.2016073,1.5654407
10.115523,-1.2016073,1.5654407
10.115523,-1.2016073,1.5654407
10.048501,-1.2303311000000001,1.7665064
10.048501,-1.2303311000000001,1.7665064
10.048501,-1.2303311000000001,1.7665064
10.048501,-1.2303311000000001,1.7665064
9.474028,-1.4792696,1.0579889
9.474028,-1.4792696,1.0579889
9.474028,-1.4792696,1.0579889
9.474028,-1.4792696,1.0579889
8.746361,-1.4409714,0.83777404
8.746361,-1.4409714,0.83777404
8.746361,-1.4409714,0.83777404
8.746361,-1.4409714,0.83777404
8.947427000000001,-1.5175678999999997,1.0771381000000002
8.947427000000001,-1.5175678999999997,1.0771381000000002
8.947427000000001,-1.5175678999999997,1.0771381000000002
8.947427000000001,-1.5175678999999997,1.0771381000000002
9.18679,-1.5175678999999997,1.2111819
9.18679,-1.5175678999999997,1.2111819
9.18679,-1.5175678999999997,1.2111819
9.18679,-1.5175678999999997,1.2111819
8.631466,-1.3165021000000001,1.4984187
8.631466,-1.3165021000000001,1.4984187
8.631466,-1.3165021000000001,1.4984187
8.631466,-1.3165021000000001,1.4984187
7.1091112999999995,-1.1920328000000002,1.862252
7.1091112999999995,-1.1920328000000002,1.862252
7.1091112999999995,-1.1920328000000002,1.862252
7.1091112999999995,-1.1920328000000002,1.862252
6.649532300000001,-1.0962871,1.3356511999999998
6.649532300000001,-1.0962871,1.3356511999999998
6.649532300000001,-1.0962871,1.3356511999999998
6.649532300000001,-1.0962871,1.3356511999999998
9.110194,-1.3452256999999999,0.64628285
9.110194,-1.3452256999999999,0.64628285
9.110194,-1.3452256999999999,0.64628285
9.110194,-1.3452256999999999,0.64628285
13.399597,-1.4218222,0.56011176
13.399597,-1.4218222,0.56011176
13.399597,-1.4218222,0.56011176
13.399597,-1.4218222,0.56011176
12.030436,-1.3165021000000001,0.37819514
12.030436,-1.3165021000000001,0.37819514
12.030436,-1.3165021000000001,0.37819514
12.030436,-1.3165021000000001,0.37819514
16.559202,-1.7282081999999999,-1.4218222
16.559202,-1.7282081999999999,-1.4218222
16.559202,-1.7282081999999999,-1.4218222
16.559202,-1.7282081999999999,-1.4218222
9.349558,-1.8335283,-0.22500217
9.349558,-1.8335283,-0.22500217
9.349558,-1.8335283,-0.22500217
9.349558,-1.8335283,-0.22500217
7.9899707,-1.3165021000000001,0.00478728
7.9899707,-1.3165021000000001,0.00478728
7.9899707,-1.3165021000000001,0.00478728
7.9899707,-1.3165021000000001,0.00478728
6.1899533,-1.9867213,0.14840569
6.1899533,-1.9867213,0.14840569
6.1899533,-1.9867213,0.14840569
6.1899533,-1.9867213,0.14840569
6.256975,-0.91437054,1.2016073
6.256975,-0.91437054,1.2016073
6.256975,-0.91437054,1.2016073
6.256975,-0.91437054,1.2016073
8.851681,-1.3739493999999999,0.5313880999999999
8.851681,-1.3739493999999999,0.5313880999999999
8.851681,-1.3739493999999999,0.5313880999999999
8.851681,-1.3739493999999999,0.5313880999999999
9.407005,-1.8239537000000001,0.7228793
9.407005,-1.8239537000000001,0.7228793
9.407005,-1.8239537000000001,0.7228793
12.46129,-2.4367256,-0.00478728
12.46129,-2.4367256,-0.00478728
12.46129,-2.4367256,-0.00478728
12.46129,-2.4367256,-0.00478728
12.46129,-2.4367256,-0.00478728
12.116607,-2.6377914000000002,0.2920241
12.116607,-2.6377914000000002,0.2920241
12.116607,-2.6377914000000002,0.2920241
12.116607,-2.6377914000000002,0.2920241
13.8879,-0.61755913,0.7228793
13.8879,-0.61755913,0.7228793
13.8879,-0.61755913,0.7228793
13.8879,-0.61755913,0.7228793
7.597413499999999,-1.0579889,0.8952214
7.597413499999999,-1.0579889,0.8952214
7.597413499999999,-1.0579889,0.8952214
7.597413499999999,-1.0579889,0.8952214
7.252729400000001,-1.0101161,0.61755913
7.252729400000001,-1.0101161,0.61755913
7.252729400000001,-1.0101161,0.61755913
7.252729400000001,-1.0101161,0.61755913
7.0133657000000005,-1.1633091,0.8473485999999999
7.0133657000000005,-1.1633091,0.8473485999999999
7.0133657000000005,-1.1633091,0.8473485999999999
7.0133657000000005,-1.1633091,0.8473485999999999
8.34423,-1.0771381000000002,1.2973529
8.34423,-1.0771381000000002,1.2973529
8.34423,-1.0771381000000002,1.2973529
8.34423,-1.0771381000000002,1.2973529
11.254896,-1.2303311000000001,0.5888355
11.254896,-1.2303311000000001,0.5888355
11.254896,-1.2303311000000001,0.5888355
11.254896,-1.2303311000000001,0.5888355
15.678343,-1.5367169,-0.91437054
15.678343,-1.5367169,-0.91437054
15.678343,-1.5367169,-0.91437054
15.678343,-1.5367169,-0.91437054
12.767676,-2.2643836,-0.25372586
12.767676,-2.2643836,-0.25372586
12.767676,-2.2643836,-0.25372586
12.767676,-2.2643836,-0.25372586
6.429317500000001,-0.512239,1.5175678999999997
6.429317500000001,-0.512239,1.5175678999999997
6.429317500000001,-0.512239,1.5175678999999997
6.429317500000001,-0.512239,1.5175678999999997
4.7058964,-1.862252,0.3398969
4.7058964,-1.862252,0.3398969
4.7058964,-1.862252,0.3398969
4.7058964,-1.862252,0.3398969
6.898471000000001,-2.254809,-0.03351096
6.898471000000001,-2.254809,-0.03351096
6.898471000000001,-2.254809,-0.03351096
6.898471000000001,-2.254809,-0.03351096
10.766592999999999,-1.5175678999999997,0.7420284
10.766592999999999,-1.5175678999999997,0.7420284
10.766592999999999,-1.5175678999999997,0.7420284
10.766592999999999,-1.5175678999999997,0.7420284
14.864505,-2.3697037999999995,0.23457673
14.864505,-2.3697037999999995,0.23457673
14.864505,-2.3697037999999995,0.23457673
14.740035999999998,-1.9675721999999998,1.469695
14.740035999999998,-1.9675721999999998,1.469695
14.740035999999998,-1.9675721999999998,1.469695
14.740035999999998,-1.9675721999999998,1.469695
14.740035999999998,-1.9675721999999998,1.469695
7.281453,-0.19627848,3.0877957
7.281453,-0.19627848,3.0877957
7.281453,-0.19627848,3.0877957
7.281453,-0.19627848,3.0877957
7.434646000000001,-0.9526688,1.2016073
7.434646000000001,-0.9526688,1.2016073
7.434646000000001,-0.9526688,1.2016073
7.434646000000001,-0.9526688,1.2016073
7.0995364,-1.776081,0.7994758000000001
7.0995364,-1.776081,0.7994758000000001
7.0995364,-1.776081,0.7994758000000001
7.0995364,-1.776081,0.7994758000000001
10.163396,-1.383524,1.3069274
10.163396,-1.383524,1.3069274
10.163396,-1.383524,1.3069274
10.163396,-1.383524,1.3069274
11.532558,-1.6611862000000002,0.93351966
11.532558,-1.6611862000000002,0.93351966
11.532558,-1.6611862000000002,0.93351966
14.155988,-0.78990126,-0.59841
14.155988,-0.78990126,-0.59841
14.155988,-0.78990126,-0.59841
14.155988,-0.78990126,-0.59841
8.803808,-1.5175678999999997,-0.09095833
8.803808,-1.5175678999999997,-0.09095833
8.803808,-1.5175678999999997,-0.09095833
8.803808,-1.5175678999999997,-0.09095833
8.803808,-1.5175678999999997,-0.09095833
8.784659,-1.0675635,0.3877697
8.784659,-1.0675635,0.3877697
8.784659,-1.0675635,0.3877697
5.7016506,-2.321831,0.2441513
5.7016506,-2.321831,0.2441513
5.7016506,-2.321831,0.2441513
5.7016506,-2.321831,0.2441513
5.7016506,-2.321831,0.2441513
6.486765,-1.3356511999999998,1.5271424
6.486765,-1.3356511999999998,1.5271424
6.486765,-1.3356511999999998,1.5271424
13.074062,-2.3314054,0.6271336999999999
13.074062,-2.3314054,0.6271336999999999
13.074062,-2.3314054,0.6271336999999999
13.074062,-2.3314054,0.6271336999999999
16.396435,-2.6090677,0.18670394
16.396435,-2.6090677,0.18670394
16.396435,-2.6090677,0.18670394
16.396435,-2.6090677,0.18670394
10.661273,-2.0824668,1.9101248
10.661273,-2.0824668,1.9101248
10.661273,-2.0824668,1.9101248
10.661273,-2.0824668,1.9101248
6.0750585,-0.081383765,2.6760897999999997
6.0750585,-0.081383765,2.6760897999999997
6.0750585,-0.081383765,2.6760897999999997
6.0750585,-0.081383765,2.6760897999999997
6.0750585,-0.081383765,2.6760897999999997
7.6740103,-0.78990126,1.6994845
7.6740103,-0.78990126,1.6994845
7.6740103,-0.78990126,1.6994845
9.043172,-2.0441686999999997,1.0962871
9.043172,-2.0441686999999997,1.0962871
9.043172,-2.0441686999999997,1.0962871
9.043172,-2.0441686999999997,1.0962871
9.809137,-2.1303396,1.862252
9.809137,-2.1303396,1.862252
9.809137,-2.1303396,1.862252
9.809137,-2.1303396,1.862252
9.809137,-2.1303396,1.862252
11.283619999999999,-0.91437054,1.0388398
11.283619999999999,-0.91437054,1.0388398
11.283619999999999,-0.91437054,1.0388398
15.659194,-1.9292740000000002,-0.46436617
15.659194,-1.9292740000000002,-0.46436617
15.659194,-1.9292740000000002,-0.46436617
15.659194,-1.9292740000000002,-0.46436617
15.659194,-1.9292740000000002,-0.46436617
6.4484663,-1.7377827000000001,0.2920241
6.4484663,-1.7377827000000001,0.2920241
6.4484663,-1.7377827000000001,0.2920241
7.463369999999999,-1.8239537000000001,-0.5313880999999999
7.463369999999999,-1.8239537000000001,-0.5313880999999999
7.463369999999999,-1.8239537000000001,-0.5313880999999999
7.463369999999999,-1.8239537000000001,-0.5313880999999999
4.8590894,-2.3122563,-0.512239
4.8590894,-2.3122563,-0.512239
4.8590894,-2.3122563,-0.512239
4.8590894,-2.3122563,-0.512239
9.349558,-0.76117754,1.6994845
9.349558,-0.76117754,1.6994845
9.349558,-0.76117754,1.6994845
9.349558,-0.76117754,1.6994845
16.061325,-1.2207563999999997,0.6558574
16.061325,-1.2207563999999997,0.6558574
16.061325,-1.2207563999999997,0.6558574
16.061325,-1.2207563999999997,0.6558574
12.537887,-2.149489,1.948423
12.537887,-2.149489,1.948423
12.537887,-2.149489,1.948423
12.537887,-2.149489,1.948423
8.765511,-1.5367169,2.3697037999999995
8.765511,-1.5367169,2.3697037999999995
8.765511,-1.5367169,2.3697037999999995
8.889978999999999,-0.7994758000000001,1.5750152
8.889978999999999,-0.7994758000000001,1.5750152
8.889978999999999,-0.7994758000000001,1.5750152
8.889978999999999,-0.7994758000000001,1.5750152
7.2623043,-2.0728923999999997,0.27287498
7.2623043,-2.0728923999999997,0.27287498
7.2623043,-2.0728923999999997,0.27287498
7.2623043,-2.0728923999999997,0.27287498
8.516571,-2.4558747000000003,0.12925656
8.516571,-2.4558747000000003,0.12925656
8.516571,-2.4558747000000003,0.12925656
8.516571,-2.4558747000000003,0.12925656
12.758101,-2.168638,0.34947145
12.758101,-2.168638,0.34947145
12.758101,-2.168638,0.34947145
12.758101,-2.168638,0.34947145
14.108115,-1.9196993000000002,0.081383765
14.108115,-1.9196993000000002,0.081383765
14.108115,-1.9196993000000002,0.081383765
14.108115,-1.9196993000000002,0.081383765
8.430401,-1.6994845,0.7228793
8.430401,-1.6994845,0.7228793
8.430401,-1.6994845,0.7228793
8.430401,-1.6994845,0.7228793
6.333572,-1.9675721999999998,0.2154276
6.333572,-1.9675721999999998,0.2154276
6.333572,-1.9675721999999998,0.2154276
6.333572,-1.9675721999999998,0.2154276
4.715471,-1.2016073,0.00478728
4.715471,-1.2016073,0.00478728
4.715471,-1.2016073,0.00478728
4.715471,-1.2016073,0.00478728
10.029352000000001,-1.1537346000000002,0.9622433000000001
10.029352000000001,-1.1537346000000002,0.9622433000000001
10.029352000000001,-1.1537346000000002,0.9622433000000001
10.029352000000001,-1.1537346000000002,0.9622433000000001
14.500670999999999,-4.131423000000001,1.8718264999999998
14.500670999999999,-4.131423000000001,1.8718264999999998
14.500670999999999,-4.131423000000001,1.8718264999999998
14.500670999999999,-4.131423000000001,1.8718264999999998
13.571939000000002,-4.3707867,2.5420458
13.571939000000002,-4.3707867,2.5420458
13.571939000000002,-4.3707867,2.5420458
13.571939000000002,-4.3707867,2.5420458
8.794233,-1.4409714,3.6335455999999997
8.794233,-1.4409714,3.6335455999999997
8.794233,-1.4409714,3.6335455999999997
8.602742,-0.32074776,3.078221
8.602742,-0.32074776,3.078221
8.602742,-0.32074776,3.078221
8.602742,-0.32074776,3.078221
8.277207,-2.168638,1.4313968000000001
8.277207,-2.168638,1.4313968000000001
8.277207,-2.168638,1.4313968000000001
8.277207,-2.168638,1.4313968000000001
12.700654,-2.2931072999999995,0.9430941999999999
12.700654,-2.2931072999999995,0.9430941999999999
12.700654,-2.2931072999999995,0.9430941999999999
12.700654,-2.2931072999999995,0.9430941999999999
12.317672,-1.776081,0.6558574
12.317672,-1.776081,0.6558574
12.317672,-1.776081,0.6558574
12.317672,-1.776081,0.6558574
13.332576000000001,-2.2452345,-0.56011176
13.332576000000001,-2.2452345,-0.56011176
13.332576000000001,-2.2452345,-0.56011176
13.332576000000001,-2.2452345,-0.56011176
10.393186,-1.1824582000000001,0.665432
10.393186,-1.1824582000000001,0.665432
10.393186,-1.1824582000000001,0.665432
10.393186,-1.1824582000000001,0.665432
8.047417999999999,-0.70373017,1.5175678999999997
8.047417999999999,-0.70373017,1.5175678999999997
8.047417999999999,-0.70373017,1.5175678999999997
8.047417999999999,-0.70373017,1.5175678999999997
6.639958,-0.42606795,1.9196993000000002
6.639958,-0.42606795,1.9196993000000002
6.639958,-0.42606795,1.9196993000000002
6.639958,-0.42606795,1.9196993000000002
8.191036,-0.16755481,1.2782038
8.191036,-0.16755481,1.2782038
8.191036,-0.16755481,1.2782038
8.191036,-0.16755481,1.2782038
14.66344,-0.9718179,-1.0484143
14.66344,-0.9718179,-1.0484143
14.66344,-0.9718179,-1.0484143
14.66344,-0.9718179,-1.0484143
11.848517999999999,-2.4654493,-0.46436617
11.848517999999999,-2.4654493,-0.46436617
11.848517999999999,-2.4654493,-0.46436617
11.848517999999999,-2.4654493,-0.46436617
12.499589,-0.93351966,0.56011176
12.499589,-0.93351966,0.56011176
12.499589,-0.93351966,0.56011176
12.499589,-0.93351966,0.56011176
9.971905,-0.43564250000000004,0.78990126
9.971905,-0.43564250000000004,0.78990126
9.971905,-0.43564250000000004,0.78990126
9.971905,-0.43564250000000004,0.78990126
9.971905,-0.43564250000000004,0.78990126
6.333572,-1.3260766000000002,1.4601203999999999
6.333572,-1.3260766000000002,1.4601203999999999
6.333572,-1.3260766000000002,1.4601203999999999
7.9325233,-3.2984362000000003,1.0005416
7.9325233,-3.2984362000000003,1.0005416
7.9325233,-3.2984362000000003,1.0005416
7.9325233,-3.2984362000000003,1.0005416
7.9325233,-3.2984362000000003,1.0005416
9.31126,-3.451629,1.9196993000000002
9.31126,-3.451629,1.9196993000000002
9.31126,-3.451629,1.9196993000000002
9.31126,-3.451629,1.9196993000000002
10.316589,-3.844186,1.9675721999999998
10.316589,-3.844186,1.9675721999999998
10.316589,-3.844186,1.9675721999999998
9.6942425,-3.4803526,0.359046
9.6942425,-3.4803526,0.359046
9.6942425,-3.4803526,0.359046
9.6942425,-3.4803526,0.359046
9.6942425,-3.4803526,0.359046
10.910212,-3.2888615,0.17712937
10.910212,-3.2888615,0.17712937
10.910212,-3.2888615,0.17712937
10.910212,-3.2888615,0.17712937
9.091045,-2.0537431,0.8856468000000001
9.091045,-2.0537431,0.8856468000000001
9.091045,-2.0537431,0.8856468000000001
9.091045,-2.0537431,0.8856468000000001
7.741032000000001,-1.7377827000000001,0.8281995000000001
7.741032000000001,-1.7377827000000001,0.8281995000000001
7.741032000000001,-1.7377827000000001,0.8281995000000001
7.741032000000001,-1.7377827000000001,0.8281995000000001
8.55487,-1.7952299999999999,0.4164934
8.55487,-1.7952299999999999,0.4164934
8.55487,-1.7952299999999999,0.4164934
8.55487,-1.7952299999999999,0.4164934
12.748528,-1.7856555,-0.062234644000000006
12.748528,-1.7856555,-0.062234644000000006
12.748528,-1.7856555,-0.062234644000000006
12.748528,-1.7856555,-0.062234644000000006
10.29744,-1.6037389,0.48351530000000004
10.29744,-1.6037389,0.48351530000000004
10.29744,-1.6037389,0.48351530000000004
10.29744,-1.6037389,0.48351530000000004
8.976150500000001,-2.2835326,0.3398969
8.976150500000001,-2.2835326,0.3398969
8.976150500000001,-2.2835326,0.3398969
8.976150500000001,-2.2835326,0.3398969
6.869747,-1.8909756999999998,1.0005416
6.869747,-1.8909756999999998,1.0005416
6.869747,-1.8909756999999998,1.0005416
6.869747,-1.8909756999999998,1.0005416
5.739949,-0.78990126,2.3792782000000003
5.739949,-0.78990126,2.3792782000000003
5.739949,-0.78990126,2.3792782000000003
5.739949,-0.78990126,2.3792782000000003
8.085716,-2.1590632999999997,2.254809
8.085716,-2.1590632999999997,2.254809
8.085716,-2.1590632999999997,2.254809
8.085716,-2.1590632999999997,2.254809
9.454879,-2.9920502,2.6760897999999997
9.454879,-2.9920502,2.6760897999999997
9.454879,-2.9920502,2.6760897999999997
9.454879,-2.9920502,2.6760897999999997
10.527229,-2.2835326,2.2356597999999996
10.527229,-2.2835326,2.2356597999999996
10.527229,-2.2835326,2.2356597999999996
10.527229,-2.2835326,2.2356597999999996
13.141085,-3.1739669999999998,0.28244954
13.141085,-3.1739669999999998,0.28244954
13.141085,-3.1739669999999998,0.28244954
13.141085,-3.1739669999999998,0.28244954
13.811303,-3.3463089999999998,-0.081383765
13.811303,-3.3463089999999998,-0.081383765
13.811303,-3.3463089999999998,-0.081383765
13.811303,-3.3463089999999998,-0.081383765
5.9314404000000005,-2.168638,1.4313968000000001
5.9314404000000005,-2.168638,1.4313968000000001
5.9314404000000005,-2.168638,1.4313968000000001
5.9314404000000005,-2.168638,1.4313968000000001
4.9356860000000005,-1.4218222,0.8186249
4.9356860000000005,-1.4218222,0.8186249
4.9356860000000005,-1.4218222,0.8186249
4.9356860000000005,-1.4218222,0.8186249
4.9069624,-1.5367169,0.78032666
4.9069624,-1.5367169,0.78032666
4.9069624,-1.5367169,0.78032666
4.9069624,-1.5367169,0.78032666
9.684667999999999,-1.2973529,1.6707608
9.684667999999999,-1.2973529,1.6707608
9.684667999999999,-1.2973529,1.6707608
9.684667999999999,-1.2973529,1.6707608
16.338987,-1.383524,1.9196993000000002
16.338987,-1.383524,1.9196993000000002
16.338987,-1.383524,1.9196993000000002
13.457045,-0.8760723,2.9633265
13.457045,-0.8760723,2.9633265
13.457045,-0.8760723,2.9633265
13.457045,-0.8760723,2.9633265
13.457045,-0.8760723,2.9633265
8.909127999999999,-0.4164934,1.9388485
8.909127999999999,-0.4164934,1.9388485
8.909127999999999,-0.4164934,1.9388485
8.909127999999999,-0.4164934,1.9388485
7.846352,-0.9718179,1.2207563999999997
7.846352,-0.9718179,1.2207563999999997
7.846352,-0.9718179,1.2207563999999997
7.846352,-0.9718179,1.2207563999999997
7.5399666,-2.666515,1.0292653
7.5399666,-2.666515,1.0292653
7.5399666,-2.666515,1.0292653
7.5399666,-2.666515,1.0292653
7.377198700000001,-2.5707695,1.9196993000000002
7.377198700000001,-2.5707695,1.9196993000000002
7.377198700000001,-2.5707695,1.9196993000000002
7.377198700000001,-2.5707695,1.9196993000000002
13.160233499999999,-0.8952214,0.37819514
13.160233499999999,-0.8952214,0.37819514
13.160233499999999,-0.8952214,0.37819514
13.160233499999999,-0.8952214,0.37819514
15.046422,-2.5516202,0.12925656
15.046422,-2.5516202,0.12925656
15.046422,-2.5516202,0.12925656
15.046422,-2.5516202,0.12925656
8.11444,0.78990126,1.8814011999999998
8.11444,0.78990126,1.8814011999999998
8.11444,0.78990126,1.8814011999999998
8.11444,0.78990126,1.8814011999999998
6.438892,-0.023936402000000002,-0.5218136
6.438892,-0.023936402000000002,-0.5218136
6.438892,-0.023936402000000002,-0.5218136
6.438892,-0.023936402000000002,-0.5218136
5.711225499999999,-1.8239537000000001,-1.0579889
5.711225499999999,-1.8239537000000001,-1.0579889
5.711225499999999,-1.8239537000000001,-1.0579889
5.711225499999999,-1.8239537000000001,-1.0579889
6.764427,0.20585304,1.4409714
6.764427,0.20585304,1.4409714
6.764427,0.20585304,1.4409714
6.764427,0.20585304,1.4409714
17.315592000000002,-1.7377827000000001,0.78990126
17.315592000000002,-1.7377827000000001,0.78990126
17.315592000000002,-1.7377827000000001,0.78990126
17.315592000000002,-1.7377827000000001,0.78990126
16.137922,-2.9250283,1.5367169
16.137922,-2.9250283,1.5367169
16.137922,-2.9250283,1.5367169
16.137922,-2.9250283,1.5367169
6.285699,-0.5505372,3.5569491
6.285699,-0.5505372,3.5569491
6.285699,-0.5505372,3.5569491
8.037844,0.014361841,1.9101248
8.037844,0.014361841,1.9101248
8.037844,0.014361841,1.9101248
8.037844,0.014361841,1.9101248
8.037844,0.014361841,1.9101248
7.597413499999999,-1.7282081999999999,2.101616
7.597413499999999,-1.7282081999999999,2.101616
7.597413499999999,-1.7282081999999999,2.101616
6.936769,-1.6803354,1.5462915000000002
6.936769,-1.6803354,1.5462915000000002
6.936769,-1.6803354,1.5462915000000002
6.936769,-1.6803354,1.5462915000000002
12.451715,-0.77075213,0.11968201
12.451715,-0.77075213,0.11968201
12.451715,-0.77075213,0.11968201
12.451715,-0.77075213,0.11968201
12.451715,-0.77075213,0.11968201
16.013453,-2.321831,-0.6271336999999999
16.013453,-2.321831,-0.6271336999999999
16.013453,-2.321831,-0.6271336999999999
8.813383,0.17712937,-0.12925656
8.813383,0.17712937,-0.12925656
8.813383,0.17712937,-0.12925656
8.813383,0.17712937,-0.12925656
8.813383,0.17712937,-0.12925656
7.4250717,-0.8473485999999999,-0.64628285
7.4250717,-0.8473485999999999,-0.64628285
7.4250717,-0.8473485999999999,-0.64628285
7.4250717,-0.8473485999999999,-0.64628285
5.1176023,-1.4026731000000001,-0.0718092
5.1176023,-1.4026731000000001,-0.0718092
5.1176023,-1.4026731000000001,-0.0718092
8.152739,0.12925656,0.3877697
8.152739,0.12925656,0.3877697
8.152739,0.12925656,0.3877697
8.152739,0.12925656,0.3877697
18.790075,-2.4463003,-0.34947145
18.790075,-2.4463003,-0.34947145
18.790075,-2.4463003,-0.34947145
18.790075,-2.4463003,-0.34947145
12.777251,-1.5558661,2.7718353
12.777251,-1.5558661,2.7718353
12.777251,-1.5558661,2.7718353
12.777251,-1.5558661,2.7718353
8.382527,1.0771381000000002,2.034594
8.382527,1.0771381000000002,2.034594
8.382527,1.0771381000000002,2.034594
8.382527,1.0771381000000002,2.034594
7.1474094,-0.6079846,1.1633091
7.1474094,-0.6079846,1.1633091
7.1474094,-0.6079846,1.1633091
7.1474094,-0.6079846,1.1633091
7.568689999999999,-1.4984187,0.2920241
7.568689999999999,-1.4984187,0.2920241
7.568689999999999,-1.4984187,0.2920241
7.568689999999999,-1.4984187,0.2920241
9.301685,-0.7420284,0.3111732
9.301685,-0.7420284,0.3111732
9.301685,-0.7420284,0.3111732
15.103869,-0.18670394,-0.8281995000000001
15.103869,-0.18670394,-0.8281995000000001
15.103869,-0.18670394,-0.8281995000000001
15.103869,-0.18670394,-0.8281995000000001
15.103869,-0.18670394,-0.8281995000000001
11.015532,-2.3792782000000003,-0.512239
11.015532,-2.3792782000000003,-0.512239
11.015532,-2.3792782000000003,-0.512239
7.9899707,-0.7994758000000001,0.25372586
7.9899707,-0.7994758000000001,0.25372586
7.9899707,-0.7994758000000001,0.25372586
7.9899707,-0.7994758000000001,0.25372586
7.741032000000001,-1.4218222,0.45479164
7.741032000000001,-1.4218222,0.45479164
7.741032000000001,-1.4218222,0.45479164
7.741032000000001,-1.4218222,0.45479164
6.831449,-0.39734426,1.2973529
6.831449,-0.39734426,1.2973529
6.831449,-0.39734426,1.2973529
6.831449,-0.39734426,1.2973529
8.545295,-0.6079846,1.8048046999999998
8.545295,-0.6079846,1.8048046999999998
8.545295,-0.6079846,1.8048046999999998
8.545295,-0.6079846,1.8048046999999998
14.701737,-2.0537431,1.4218222
14.701737,-2.0537431,1.4218222
14.701737,-2.0537431,1.4218222
14.529395000000001,-2.254809,2.5994933
14.529395000000001,-2.254809,2.5994933
14.529395000000001,-2.254809,2.5994933
14.529395000000001,-2.254809,2.5994933
14.529395000000001,-2.254809,2.5994933
7.6452865999999995,-1.3165021000000001,2.7718353
7.6452865999999995,-1.3165021000000001,2.7718353
7.6452865999999995,-1.3165021000000001,2.7718353
7.6452865999999995,-1.3165021000000001,2.7718353
7.961247,-1.6994845,1.1345854
7.961247,-1.6994845,1.1345854
7.961247,-1.6994845,1.1345854
6.3718699999999995,-1.6516117,1.3069274
6.3718699999999995,-1.6516117,1.3069274
6.3718699999999995,-1.6516117,1.3069274
6.3718699999999995,-1.6516117,1.3069274
6.3718699999999995,-1.6516117,1.3069274
7.319751299999999,-3.1165195,1.5654407
7.319751299999999,-3.1165195,1.5654407
7.319751299999999,-3.1165195,1.5654407
13.600663,-4.5910015,0.5505372
13.600663,-4.5910015,0.5505372
13.600663,-4.5910015,0.5505372
13.600663,-4.5910015,0.5505372
15.247487,-4.0261025,0.54096264
15.247487,-4.0261025,0.54096264
15.247487,-4.0261025,0.54096264
15.247487,-4.0261025,0.54096264
9.560199,-0.46436617,2.5037475
9.560199,-0.46436617,2.5037475
9.560199,-0.46436617,2.5037475
9.560199,-0.46436617,2.5037475
6.8122997000000005,0.512239,0.85692316
6.8122997000000005,0.512239,0.85692316
6.8122997000000005,0.512239,0.85692316
6.8122997000000005,0.512239,0.85692316
4.5144053,-2.0441686999999997,0.47394073
4.5144053,-2.0441686999999997,0.47394073
4.5144053,-2.0441686999999997,0.47394073
4.5144053,-2.0441686999999997,0.47394073
8.066567,-1.9675721999999998,1.6803354
8.066567,-1.9675721999999998,1.6803354
8.066567,-1.9675721999999998,1.6803354
8.066567,-1.9675721999999998,1.6803354
16.137922,-4.916537,4.466532
16.137922,-4.916537,4.466532
16.137922,-4.916537,4.466532
16.137922,-4.916537,4.466532
9.359133,-7.9037995,4.0069537
9.359133,-7.9037995,4.0069537
9.359133,-7.9037995,4.0069537
9.359133,-7.9037995,4.0069537
9.359133,-7.9037995,4.0069537
5.088879,-5.548457599999999,3.5760984
5.088879,-5.548457599999999,3.5760984
5.088879,-5.548457599999999,3.5760984
4.8878129999999995,-3.2984362000000003,3.5665237999999997
4.8878129999999995,-3.2984362000000003,3.5665237999999997
4.8878129999999995,-3.2984362000000003,3.5665237999999997
4.8878129999999995,-3.2984362000000003,3.5665237999999997
5.395264599999999,-1.6611862000000002,3.1739669999999998
5.395264599999999,-1.6611862000000002,3.1739669999999998
5.395264599999999,-1.6611862000000002,3.1739669999999998
5.395264599999999,-1.6611862000000002,3.1739669999999998
5.395264599999999,-1.6611862000000002,3.1739669999999998
11.455961,-5.4718614,2.101616
11.455961,-5.4718614,2.101616
11.455961,-5.4718614,2.101616
17.353891,-5.1846247000000005,2.0728923999999997
17.353891,-5.1846247000000005,2.0728923999999997
17.353891,-5.1846247000000005,2.0728923999999997
17.353891,-5.1846247000000005,2.0728923999999997
17.353891,-5.1846247000000005,2.0728923999999997
15.027272,-3.8537605000000004,1.7186337
15.027272,-3.8537605000000004,1.7186337
15.027272,-3.8537605000000004,1.7186337
15.027272,-3.8537605000000004,1.7186337
11.350641,-1.2590546999999999,0.92394507
11.350641,-1.2590546999999999,0.92394507
11.350641,-1.2590546999999999,0.92394507
7.855927,-0.110107444,1.9579976000000003
7.855927,-0.110107444,1.9579976000000003
7.855927,-0.110107444,1.9579976000000003
7.855927,-0.110107444,1.9579976000000003
4.5144053,-0.19627848,2.972901
4.5144053,-0.19627848,2.972901
4.5144053,-0.19627848,2.972901
4.5144053,-0.19627848,2.972901
5.1176023,-0.9526688,1.8526775000000002
5.1176023,-0.9526688,1.8526775000000002
5.1176023,-0.9526688,1.8526775000000002
5.1176023,-0.9526688,1.8526775000000002
9.3878565,-4.0931244,0.8186249
9.3878565,-4.0931244,0.8186249
9.3878565,-4.0931244,0.8186249
9.3878565,-4.0931244,0.8186249
12.2410755,-5.021857,0.85692316
12.2410755,-5.021857,0.85692316
12.2410755,-5.021857,0.85692316
12.2410755,-5.021857,0.85692316
14.079391500000002,-5.309094,0.45479164
14.079391500000002,-5.309094,0.45479164
14.079391500000002,-5.309094,0.45479164
14.079391500000002,-5.309094,0.45479164
11.398514,-3.2218397000000003,0.17712937
11.398514,-3.2218397000000003,0.17712937
11.398514,-3.2218397000000003,0.17712937
11.398514,-3.2218397000000003,0.17712937
10.0868,-1.5271424,-0.32074776
10.0868,-1.5271424,-0.32074776
10.0868,-1.5271424,-0.32074776
10.0868,-1.5271424,-0.32074776
10.0868,-1.5271424,-0.32074776
7.386773599999999,-1.5462915000000002,0.5792609000000001
7.386773599999999,-1.5462915000000002,0.5792609000000001
7.386773599999999,-1.5462915000000002,0.5792609000000001
5.9027166,-2.5707695,0.14840569
5.9027166,-2.5707695,0.14840569
5.9027166,-2.5707695,0.14840569
5.9027166,-2.5707695,0.14840569
7.961247,-3.3367343000000003,1.6994845
7.961247,-3.3367343000000003,1.6994845
7.961247,-3.3367343000000003,1.6994845
7.961247,-3.3367343000000003,1.6994845
10.881488000000001,-4.0931244,1.8814011999999998
10.881488000000001,-4.0931244,1.8814011999999998
10.881488000000001,-4.0931244,1.8814011999999998
10.881488000000001,-4.0931244,1.8814011999999998
12.107032,-4.3324885,1.8143792
12.107032,-4.3324885,1.8143792
12.107032,-4.3324885,1.8143792
12.107032,-4.3324885,1.8143792
12.202777000000001,-3.5952474999999997,0.8952214
12.202777000000001,-3.5952474999999997,0.8952214
12.202777000000001,-3.5952474999999997,0.8952214
12.202777000000001,-3.5952474999999997,0.8952214
9.5219,-3.671844,-0.00478728
9.5219,-3.671844,-0.00478728
9.5219,-3.671844,-0.00478728
9.5219,-3.671844,-0.00478728
9.5219,-3.671844,-0.00478728
11.072979,-2.4558747000000003,-0.8952214
11.072979,-2.4558747000000003,-0.8952214
11.072979,-2.4558747000000003,-0.8952214
10.125097,-1.6228879999999999,-0.33032233
10.125097,-1.6228879999999999,-0.33032233
10.125097,-1.6228879999999999,-0.33032233
10.125097,-1.6228879999999999,-0.33032233
7.559115400000001,-1.0675635,0.8760723
7.559115400000001,-1.0675635,0.8760723
7.559115400000001,-1.0675635,0.8760723
7.559115400000001,-1.0675635,0.8760723
7.559115400000001,-1.0675635,0.8760723
6.668680999999999,-1.2399056,0.9430941999999999
6.668680999999999,-1.2399056,0.9430941999999999
6.668680999999999,-1.2399056,0.9430941999999999
5.605905,-0.18670394,2.149489
5.605905,-0.18670394,2.149489
5.605905,-0.18670394,2.149489
5.605905,-0.18670394,2.149489
5.835694999999999,0.28244954,1.3643749
5.835694999999999,0.28244954,1.3643749
5.835694999999999,0.28244954,1.3643749
5.835694999999999,0.28244954,1.3643749
7.5495410000000005,-3.3367343000000003,0.44521707
7.5495410000000005,-3.3367343000000003,0.44521707
7.5495410000000005,-3.3367343000000003,0.44521707
7.5495410000000005,-3.3367343000000003,0.44521707
13.935773000000001,-4.294190400000001,0.8186249
13.935773000000001,-4.294190400000001,0.8186249
13.935773000000001,-4.294190400000001,0.8186249
13.935773000000001,-4.294190400000001,0.8186249
19.24008,-3.4803526,0.6845810999999999
19.24008,-3.4803526,0.6845810999999999
19.24008,-3.4803526,0.6845810999999999
19.24008,-3.4803526,0.6845810999999999
9.7899885,-1.6037389,2.7431116
9.7899885,-1.6037389,2.7431116
9.7899885,-1.6037389,2.7431116
9.7899885,-1.6037389,2.7431116
4.619725,-0.8281995000000001,1.8909756999999998
4.619725,-0.8281995000000001,1.8909756999999998
4.619725,-0.8281995000000001,1.8909756999999998
4.619725,-0.8281995000000001,1.8909756999999998
4.8590894,-1.7569318999999999,1.7377827000000001
4.8590894,-1.7569318999999999,1.7377827000000001
4.8590894,-1.7569318999999999,1.7377827000000001
4.8590894,-1.7569318999999999,1.7377827000000001
7.4537954,-2.2739582,1.9675721999999998
7.4537954,-2.2739582,1.9675721999999998
7.4537954,-2.2739582,1.9675721999999998
7.4537954,-2.2739582,1.9675721999999998
10.125097,-2.7814097,1.4984187
10.125097,-2.7814097,1.4984187
10.125097,-2.7814097,1.4984187
13.323001000000001,-2.254809,0.78032666
13.323001000000001,-2.254809,0.78032666
13.323001000000001,-2.254809,0.78032666
13.323001000000001,-2.254809,0.78032666
13.323001000000001,-2.254809,0.78032666
16.09005,-2.2835326,-0.45479164
16.09005,-2.2835326,-0.45479164
16.09005,-2.2835326,-0.45479164
8.11444,-1.6324625,0.64628285
8.11444,-1.6324625,0.64628285
8.11444,-1.6324625,0.64628285
8.11444,-1.6324625,0.64628285
5.1654754,-0.6845810999999999,0.34947145
5.1654754,-0.6845810999999999,0.34947145
5.1654754,-0.6845810999999999,0.34947145
5.1654754,-0.6845810999999999,0.34947145
5.1654754,-0.6845810999999999,0.34947145
4.4186597,-1.9196993000000002,-0.56011176
4.4186597,-1.9196993000000002,-0.56011176
4.4186597,-1.9196993000000002,-0.56011176
7.2048570000000005,-1.8718264999999998,0.49308985
7.2048570000000005,-1.8718264999999998,0.49308985
7.2048570000000005,-1.8718264999999998,0.49308985
7.2048570000000005,-1.8718264999999998,0.49308985
7.2048570000000005,-1.8718264999999998,0.49308985
13.179382,-2.6282167000000003,0.512239
13.179382,-2.6282167000000003,0.512239
13.179382,-2.6282167000000003,0.512239
13.179382,-2.6282167000000003,0.512239
18.44539,-4.0739756,-0.46436617
18.44539,-4.0739756,-0.46436617
18.44539,-4.0739756,-0.46436617
11.743198,-4.83994,1.1058618
11.743198,-4.83994,1.1058618
11.743198,-4.83994,1.1058618
11.743198,-4.83994,1.1058618
4.1792955,-1.3356511999999998,2.6760897999999997
4.1792955,-1.3356511999999998,2.6760897999999997
4.1792955,-1.3356511999999998,2.6760897999999997
4.1792955,-1.3356511999999998,2.6760897999999997
4.1792955,-1.3356511999999998,2.6760897999999997
5.6825019999999995,-0.12925656,2.4175766
5.6825019999999995,-0.12925656,2.4175766
5.6825019999999995,-0.12925656,2.4175766
5.6825019999999995,-0.12925656,2.4175766
8.679339,-2.1303396,2.1399142999999996
8.679339,-2.1303396,2.1399142999999996
8.679339,-2.1303396,2.1399142999999996
14.337904,-3.2409887000000004,1.776081
14.337904,-3.2409887000000004,1.776081
14.337904,-3.2409887000000004,1.776081
14.337904,-3.2409887000000004,1.776081
14.337904,-3.2409887000000004,1.776081
15.5060005,-1.8048046999999998,-1.1728836
15.5060005,-1.8048046999999998,-1.1728836
15.5060005,-1.8048046999999998,-1.1728836
15.5060005,-1.8048046999999998,-1.1728836
12.863422,-0.54096264,-0.4164934
12.863422,-0.54096264,-0.4164934
12.863422,-0.54096264,-0.4164934
6.831449,0.33032233,-0.40691882
6.831449,0.33032233,-0.40691882
6.831449,0.33032233,-0.40691882
6.831449,0.33032233,-0.40691882
6.831449,0.33032233,-0.40691882
5.500585,-1.3739493999999999,-1.469695
5.500585,-1.3739493999999999,-1.469695
5.500585,-1.3739493999999999,-1.469695
5.500585,-1.3739493999999999,-1.469695
4.9835587,-2.3792782000000003,-0.8090504
4.9835587,-2.3792782000000003,-0.8090504
4.9835587,-2.3792782000000003,-0.8090504
4.9835587,-2.3792782000000003,-0.8090504
6.256975,-0.023936402000000002,1.7665064
6.256975,-0.023936402000000002,1.7665064
6.256975,-0.023936402000000002,1.7665064
6.256975,-0.023936402000000002,1.7665064
14.87408,-0.26330042,1.9579976000000003
14.87408,-0.26330042,1.9579976000000003
14.87408,-0.26330042,1.9579976000000003
14.87408,-0.26330042,1.9579976000000003
17.344316,-4.303765,1.1058618
17.344316,-4.303765,1.1058618
17.344316,-4.303765,1.1058618
17.344316,-4.303765,1.1058618
7.3389006,-2.0728923999999997,3.2026904
7.3389006,-2.0728923999999997,3.2026904
7.3389006,-2.0728923999999997,3.2026904
7.3389006,-2.0728923999999997,3.2026904
7.176133,0.48351530000000004,2.8292825
7.176133,0.48351530000000004,2.8292825
7.176133,0.48351530000000004,2.8292825
7.176133,0.48351530000000004,2.8292825
7.310177,-1.7377827000000001,1.7282081999999999
7.310177,-1.7377827000000001,1.7282081999999999
7.310177,-1.7377827000000001,1.7282081999999999
7.310177,-1.7377827000000001,1.7282081999999999
9.024023,-3.2697124,0.8281995000000001
9.024023,-3.2697124,0.8281995000000001
9.024023,-3.2697124,0.8281995000000001
11.1208515,-2.3314054,-0.062234644000000006
11.1208515,-2.3314054,-0.062234644000000006
11.1208515,-2.3314054,-0.062234644000000006
11.1208515,-2.3314054,-0.062234644000000006
11.1208515,-2.3314054,-0.062234644000000006
17.679426,-0.77075213,-2.2452345
17.679426,-0.77075213,-2.2452345
17.679426,-0.77075213,-2.2452345
8.966576,-1.6899098999999997,0.56968635
8.966576,-1.6899098999999997,0.56968635
8.966576,-1.6899098999999997,0.56968635
8.966576,-1.6899098999999997,0.56968635
8.966576,-1.6899098999999997,0.56968635
6.544212,1.0771381000000002,1.2590546999999999
6.544212,1.0771381000000002,1.2590546999999999
6.544212,1.0771381000000002,1.2590546999999999
6.544212,1.0771381000000002,1.2590546999999999
4.610151,-0.8186249,0.13883112
4.610151,-0.8186249,0.13883112
4.610151,-0.8186249,0.13883112
4.811217,-0.751603,0.5888355
4.811217,-0.751603,0.5888355
4.811217,-0.751603,0.5888355
4.811217,-0.751603,0.5888355
16.396435,-1.0101161,-0.23457673
16.396435,-1.0101161,-0.23457673
16.396435,-1.0101161,-0.23457673
16.396435,-1.0101161,-0.23457673
14.605992,-1.4313968000000001,0.5505372
14.605992,-1.4313968000000001,0.5505372
14.605992,-1.4313968000000001,0.5505372
14.605992,-1.4313968000000001,0.5505372
9.148492999999998,-1.1537346000000002,1.948423
9.148492999999998,-1.1537346000000002,1.948423
9.148492999999998,-1.1537346000000002,1.948423
9.148492999999998,-1.1537346000000002,1.948423
8.353804,1.6133133999999998,3.7388659
8.353804,1.6133133999999998,3.7388659
8.353804,1.6133133999999998,3.7388659
8.353804,1.6133133999999998,3.7388659
8.353804,0.48351530000000004,2.9250283
8.353804,0.48351530000000004,2.9250283
8.353804,0.48351530000000004,2.9250283
8.353804,0.48351530000000004,2.9250283
11.417664,-3.2601378,-1.1728836
11.417664,-3.2601378,-1.1728836
11.417664,-3.2601378,-1.1728836
15.419829,-2.800559,-2.0633178
15.419829,-2.800559,-2.0633178
15.419829,-2.800559,-2.0633178
15.419829,-2.800559,-2.0633178
15.419829,-2.800559,-2.0633178
9.675094,0.6750065,-0.8186249
9.675094,0.6750065,-0.8186249
9.675094,0.6750065,-0.8186249
6.630383,1.469695,-1.14416
6.630383,1.469695,-1.14416
6.630383,1.469695,-1.14416
6.630383,1.469695,-1.14416
5.5101595,-1.14416,-1.9196993000000002
5.5101595,-1.14416,-1.9196993000000002
5.5101595,-1.14416,-1.9196993000000002
5.5101595,-1.14416,-1.9196993000000002
9.761265,-0.8952214,-0.7324539000000001
9.761265,-0.8952214,-0.7324539000000001
9.761265,-0.8952214,-0.7324539000000001
9.761265,-0.8952214,-0.7324539000000001
14.30918,-0.16755481,0.54096264
14.30918,-0.16755481,0.54096264
14.30918,-0.16755481,0.54096264
14.30918,-0.16755481,0.54096264
11.7049,-1.5558661,0.8856468000000001
11.7049,-1.5558661,0.8856468000000001
11.7049,-1.5558661,0.8856468000000001
11.7049,-1.5558661,0.8856468000000001
9.474028,-3.8920587999999996,-0.014361841
9.474028,-3.8920587999999996,-0.014361841
9.474028,-3.8920587999999996,-0.014361841
9.474028,-3.8920587999999996,-0.014361841
9.052747,-0.8473485999999999,1.8909756999999998
9.052747,-0.8473485999999999,1.8909756999999998
9.052747,-0.8473485999999999,1.8909756999999998
9.052747,-0.8473485999999999,1.8909756999999998
8.717637,-0.63670826,1.5654407
8.717637,-0.63670826,1.5654407
8.717637,-0.63670826,1.5654407
8.717637,-0.63670826,1.5654407
11.207023,0.26330042,0.22500217
11.207023,0.26330042,0.22500217
11.207023,0.26330042,0.22500217
11.207023,0.26330042,0.22500217
14.778334,-1.2877783999999999,-1.6994845
14.778334,-1.2877783999999999,-1.6994845
14.778334,-1.2877783999999999,-1.6994845
14.778334,-1.2877783999999999,-1.6994845
10.785743,-0.359046,-1.2686293
10.785743,-0.359046,-1.2686293
10.785743,-0.359046,-1.2686293
10.785743,-0.359046,-1.2686293
6.592085000000001,-0.59841,-0.44521707
6.592085000000001,-0.59841,-0.44521707
6.592085000000001,-0.59841,-0.44521707
6.592085000000001,-0.59841,-0.44521707
6.783575999999999,-0.98139244,-2.561195
6.783575999999999,-0.98139244,-2.561195
6.783575999999999,-0.98139244,-2.561195
6.783575999999999,-0.98139244,-2.561195
7.089962,-0.9622433000000001,-2.5899186000000003
7.089962,-0.9622433000000001,-2.5899186000000003
7.089962,-0.9622433000000001,-2.5899186000000003
7.089962,-0.9622433000000001,-2.5899186000000003
6.036760299999999,-0.12925656,-0.28244954
6.036760299999999,-0.12925656,-0.28244954
6.036760299999999,-0.12925656,-0.28244954
6.036760299999999,-0.12925656,-0.28244954
16.482605,0.56968635,1.1920328000000002
16.482605,0.56968635,1.1920328000000002
16.482605,0.56968635,1.1920328000000002
16.482605,0.56968635,1.1920328000000002
19.43157,-1.7569318999999999,2.1782124
19.43157,-1.7569318999999999,2.1782124
19.43157,-1.7569318999999999,2.1782124
19.43157,-1.7569318999999999,2.1782124
12.269799,-2.972901,1.7282081999999999
12.269799,-2.972901,1.7282081999999999
12.269799,-2.972901,1.7282081999999999
12.269799,-2.972901,1.7282081999999999
7.731457700000001,-0.64628285,0.93351966
7.731457700000001,-0.64628285,0.93351966
7.731457700000001,-0.64628285,0.93351966
7.731457700000001,-0.64628285,0.93351966
8.037844,-0.8760723,-0.25372586
8.037844,-0.8760723,-0.25372586
8.037844,-0.8760723,-0.25372586
8.037844,-0.8760723,-0.25372586
10.010203,-1.2973529,1.0005416
10.010203,-1.2973529,1.0005416
10.010203,-1.2973529,1.0005416
10.010203,-1.2973529,1.0005416
10.010203,-1.2973529,1.0005416
15.96558,1.0771381000000002,-0.48351530000000004
15.96558,1.0771381000000002,-0.48351530000000004
15.96558,1.0771381000000002,-0.48351530000000004
10.670848,0.9430941999999999,0.5218136
10.670848,0.9430941999999999,0.5218136
10.670848,0.9430941999999999,0.5218136
10.670848,0.9430941999999999,0.5218136
8.5740185,-0.64628285,-0.09095833
8.5740185,-0.64628285,-0.09095833
8.5740185,-0.64628285,-0.09095833
8.5740185,-0.64628285,-0.09095833
8.5740185,-0.64628285,-0.09095833
7.1474094,-0.18670394,0.85692316
7.1474094,-0.18670394,0.85692316
7.1474094,-0.18670394,0.85692316
6.525062999999999,0.71330476,0.7994758000000001
6.525062999999999,0.71330476,0.7994758000000001
6.525062999999999,0.71330476,0.7994758000000001
6.525062999999999,0.71330476,0.7994758000000001
8.23891,-0.15798025,-0.14840569
8.23891,-0.15798025,-0.14840569
8.23891,-0.15798025,-0.14840569
8.23891,-0.15798025,-0.14840569
8.23891,-0.15798025,-0.14840569
12.25065,-0.78032666,-1.5367169
12.25065,-0.78032666,-1.5367169
12.25065,-0.78032666,-1.5367169
12.25065,-0.78032666,-1.5367169
12.25065,-0.78032666,-1.5367169
12.25065,-0.78032666,-1.5367169
12.25065,-0.78032666,-1.5367169
8.947427000000001,-2.2069361,1.5079931999999998
8.947427000000001,-2.2069361,1.5079931999999998
8.947427000000001,-2.2069361,1.5079931999999998
8.947427000000001,-2.2069361,1.5079931999999998
9.675094,-1.0292653,1.469695
9.675094,-1.0292653,1.469695
9.675094,-1.0292653,1.469695
9.675094,-1.0292653,1.469695
8.210186,-0.22500217,2.3314054
8.210186,-0.22500217,2.3314054
8.210186,-0.22500217,2.3314054
8.210186,-0.22500217,2.3314054
9.445304,-1.3260766000000002,1.709059
9.445304,-1.3260766000000002,1.709059
9.445304,-1.3260766000000002,1.709059
9.445304,-1.3260766000000002,1.709059
9.445304,-1.3260766000000002,1.709059
9.933606,-3.3750327000000007,1.3452256999999999
9.933606,-3.3750327000000007,1.3452256999999999
9.933606,-3.3750327000000007,1.3452256999999999
11.580430999999999,-2.3888528,1.4122477
11.580430999999999,-2.3888528,1.4122477
11.580430999999999,-2.3888528,1.4122477
11.580430999999999,-2.3888528,1.4122477
11.666602000000001,-2.034594,1.5845897
11.666602000000001,-2.034594,1.5845897
11.666602000000001,-2.034594,1.5845897
11.666602000000001,-2.034594,1.5845897
11.666602000000001,-2.034594,1.5845897
8.889978999999999,-0.49308985,1.1154363
8.889978999999999,-0.49308985,1.1154363
8.889978999999999,-0.49308985,1.1154363
10.29744,-0.43564250000000004,-0.4164934
10.29744,-0.43564250000000004,-0.4164934
10.29744,-0.43564250000000004,-0.4164934
10.29744,-0.43564250000000004,-0.4164934
8.55487,-0.4164934,-0.30159867
8.55487,-0.4164934,-0.30159867
8.55487,-0.4164934,-0.30159867
8.55487,-0.4164934,-0.30159867
8.55487,-0.4164934,-0.30159867
6.410168,0.15798025,0.4164934
6.410168,0.15798025,0.4164934
6.410168,0.15798025,0.4164934
6.1420803,0.023936402000000002,-0.081383765
6.1420803,0.023936402000000002,-0.081383765
6.1420803,0.023936402000000002,-0.081383765
6.1420803,0.023936402000000002,-0.081383765
5.7208,0.20585304,0.91437054
5.7208,0.20585304,0.91437054
5.7208,0.20585304,0.91437054
5.7208,0.20585304,0.91437054
8.430401,-0.49308985,1.3930986
8.430401,-0.49308985,1.3930986
8.430401,-0.49308985,1.3930986
8.430401,-0.49308985,1.3930986
17.152824,-1.9579976000000003,-0.15798025
17.152824,-1.9579976000000003,-0.15798025
17.152824,-1.9579976000000003,-0.15798025
17.152824,-1.9579976000000003,-0.15798025
13.380448000000001,-3.8920587999999996,2.2069361
13.380448000000001,-3.8920587999999996,2.2069361
13.380448000000001,-3.8920587999999996,2.2069361
13.380448000000001,-3.8920587999999996,2.2069361
5.692076,-1.5367169,3.671844
5.692076,-1.5367169,3.671844
5.692076,-1.5367169,3.671844
5.692076,-1.5367169,3.671844
8.056992999999999,0.2920241,2.2835326
8.056992999999999,0.2920241,2.2835326
8.056992999999999,0.2920241,2.2835326
6.8601727,-1.2207563999999997,1.776081
6.8601727,-1.2207563999999997,1.776081
6.8601727,-1.2207563999999997,1.776081
6.8601727,-1.2207563999999997,1.776081
6.8601727,-1.2207563999999997,1.776081
10.94851,-2.0537431,0.28244954
10.94851,-2.0537431,0.28244954
10.94851,-2.0537431,0.28244954
10.94851,-2.0537431,0.28244954
18.454966,-5.605905,-1.1824582000000001
18.454966,-5.605905,-1.1824582000000001
18.454966,-5.605905,-1.1824582000000001
18.454966,-5.605905,-1.1824582000000001
8.928278,-0.9718179,0.71330476
8.928278,-0.9718179,0.71330476
8.928278,-0.9718179,0.71330476
6.180379,1.4218222,1.2399056
6.180379,1.4218222,1.2399056
6.180379,1.4218222,1.2399056
6.180379,1.4218222,1.2399056
6.180379,1.4218222,1.2399056
5.1654754,-1.3643749,-1.0005416
5.1654754,-1.3643749,-1.0005416
5.1654754,-1.3643749,-1.0005416
5.1654754,-1.3643749,-1.0005416
5.6154795,-0.91437054,0.15798025
5.6154795,-0.91437054,0.15798025
5.6154795,-0.91437054,0.15798025
14.66344,-0.665432,1.3452256999999999
14.66344,-0.665432,1.3452256999999999
14.66344,-0.665432,1.3452256999999999
14.66344,-0.665432,1.3452256999999999
14.66344,-0.665432,1.3452256999999999
17.420912,-2.0920415,0.54096264
17.420912,-2.0920415,0.54096264
17.420912,-2.0920415,0.54096264
17.420912,-2.0920415,0.54096264
6.8601727,-2.5803439999999997,3.0016246
6.8601727,-2.5803439999999997,3.0016246
6.8601727,-2.5803439999999997,3.0016246
7.214431299999999,-0.043085523,3.518651
7.214431299999999,-0.043085523,3.518651
7.214431299999999,-0.043085523,3.518651
7.214431299999999,-0.043085523,3.518651
7.214431299999999,-0.043085523,3.518651
7.855927,-0.20585304,3.3654580000000003
7.855927,-0.20585304,3.3654580000000003
7.855927,-0.20585304,3.3654580000000003
7.855927,-0.20585304,3.3654580000000003
9.2825365,-1.7473572,1.2303311000000001
9.2825365,-1.7473572,1.2303311000000001
9.2825365,-1.7473572,1.2303311000000001
9.2825365,-1.7473572,1.2303311000000001
15.898558,-3.231414,-0.5218136
15.898558,-3.231414,-0.5218136
15.898558,-3.231414,-0.5218136
15.898558,-3.231414,-0.5218136
11.934689500000001,-2.2931072999999995,-0.27287498
11.934689500000001,-2.2931072999999995,-0.27287498
11.934689500000001,-2.2931072999999995,-0.27287498
11.934689500000001,-2.2931072999999995,-0.27287498
4.9356860000000005,0.56968635,1.8143792
4.9356860000000005,0.56968635,1.8143792
4.9356860000000005,0.56968635,1.8143792
4.9356860000000005,0.56968635,1.8143792
6.678256,-1.1250108,-0.6079846
6.678256,-1.1250108,-0.6079846
6.678256,-1.1250108,-0.6079846
6.678256,-1.1250108,-0.6079846
5.376116000000001,-0.56968635,0.30159867
5.376116000000001,-0.56968635,0.30159867
5.376116000000001,-0.56968635,0.30159867
5.376116000000001,-0.56968635,0.30159867
16.645372000000002,-2.513322,0.3877697
16.645372000000002,-2.513322,0.3877697
16.645372000000002,-2.513322,0.3877697
16.645372000000002,-2.513322,0.3877697
15.5060005,-3.3080106,1.9771467
15.5060005,-3.3080106,1.9771467
15.5060005,-3.3080106,1.9771467
15.5060005,-3.3080106,1.9771467
5.452712,-0.2920241,3.8920587999999996
5.452712,-0.2920241,3.8920587999999996
5.452712,-0.2920241,3.8920587999999996
5.452712,-0.2920241,3.8920587999999996
8.258059,0.0,2.321831
8.258059,0.0,2.321831
8.258059,0.0,2.321831
8.11444,-0.99096704,2.3888528
8.11444,-0.99096704,2.3888528
8.11444,-0.99096704,2.3888528
8.11444,-0.99096704,2.3888528
10.374036,-2.0633178,1.4026731000000001
10.374036,-2.0633178,1.4026731000000001
10.374036,-2.0633178,1.4026731000000001
10.374036,-2.0633178,1.4026731000000001
16.95176,-3.0686467,-0.77075213
16.95176,-3.0686467,-0.77075213
16.95176,-3.0686467,-0.77075213
16.95176,-3.0686467,-0.77075213
9.54105,-1.0962871,0.50266445
9.54105,-1.0962871,0.50266445
9.54105,-1.0962871,0.50266445
9.54105,-1.0962871,0.50266445
8.191036,0.4164934,1.1920328000000002
8.191036,0.4164934,1.1920328000000002
8.191036,0.4164934,1.1920328000000002
5.519734,-1.862252,-0.20585304
5.519734,-1.862252,-0.20585304
5.519734,-1.862252,-0.20585304
5.519734,-1.862252,-0.20585304
5.06973,-1.1154363,1.1058618
5.06973,-1.1154363,1.1058618
5.06973,-1.1154363,1.1058618
5.06973,-1.1154363,1.1058618
12.710229,-1.3548003,0.9718179
12.710229,-1.3548003,0.9718179
12.710229,-1.3548003,0.9718179
12.710229,-1.3548003,0.9718179
12.710229,-1.3548003,0.9718179
12.710229,-1.3548003,0.9718179
12.710229,-1.3548003,0.9718179
12.710229,-1.3548003,0.9718179
7.8367777,-2.8963046,3.2792869
7.8367777,-2.8963046,3.2792869
7.8367777,-2.8963046,3.2792869
9.483603,-0.76117754,2.0824668
9.483603,-0.76117754,2.0824668
9.483603,-0.76117754,2.0824668
9.483603,-0.76117754,2.0824668
9.483603,-0.76117754,2.0824668
7.9995449999999995,-1.1058618,2.3505547000000004
7.9995449999999995,-1.1058618,2.3505547000000004
7.9995449999999995,-1.1058618,2.3505547000000004
7.9995449999999995,-1.1058618,2.3505547000000004
7.2240057,-2.0920415,1.5845897
7.2240057,-2.0920415,1.5845897
7.2240057,-2.0920415,1.5845897
7.2240057,-2.0920415,1.5845897
11.972988,-2.360129,0.751603
11.972988,-2.360129,0.751603
11.972988,-2.360129,0.751603
11.972988,-2.360129,0.751603
16.808142,-1.7569318999999999,-0.19627848
16.808142,-1.7569318999999999,-0.19627848
16.808142,-1.7569318999999999,-0.19627848
16.808142,-1.7569318999999999,-0.19627848
7.137835000000001,-1.5941644,1.6516117
7.137835000000001,-1.5941644,1.6516117
7.137835000000001,-1.5941644,1.6516117
7.137835000000001,-1.5941644,1.6516117
6.4963393,-0.8952214,0.77075213
6.4963393,-0.8952214,0.77075213
6.4963393,-0.8952214,0.77075213
6.4963393,-0.8952214,0.77075213
5.5101595,-1.7473572,0.8952214
5.5101595,-1.7473572,0.8952214
5.5101595,-1.7473572,0.8952214
5.5101595,-1.7473572,0.8952214
6.821874,-1.0867126,2.2260852000000004
6.821874,-1.0867126,2.2260852000000004
6.821874,-1.0867126,2.2260852000000004
15.869833999999999,-2.733537,1.7282081999999999
15.869833999999999,-2.733537,1.7282081999999999
15.869833999999999,-2.733537,1.7282081999999999
15.869833999999999,-2.733537,1.7282081999999999
15.869833999999999,-2.733537,1.7282081999999999
16.26239,-2.9154537,1.776081
16.26239,-2.9154537,1.776081
16.26239,-2.9154537,1.776081
16.26239,-2.9154537,1.776081
7.3676243,-2.9154537,2.6090677
7.3676243,-2.9154537,2.6090677
7.3676243,-2.9154537,2.6090677
8.21976,-0.99096704,2.2452345
8.21976,-0.99096704,2.2452345
8.21976,-0.99096704,2.2452345
8.21976,-0.99096704,2.2452345
8.21976,-0.99096704,2.2452345
6.8793216,-1.9196993000000002,2.867581
6.8793216,-1.9196993000000002,2.867581
6.8793216,-1.9196993000000002,2.867581
6.2952733,-3.0207740000000003,1.5750152
6.2952733,-3.0207740000000003,1.5750152
6.2952733,-3.0207740000000003,1.5750152
6.2952733,-3.0207740000000003,1.5750152
11.953838000000001,-3.5952474999999997,0.56968635
11.953838000000001,-3.5952474999999997,0.56968635
11.953838000000001,-3.5952474999999997,0.56968635
11.953838000000001,-3.5952474999999997,0.56968635
11.953838000000001,-3.5952474999999997,0.56968635
15.448553,-3.7388659,1.0005416
15.448553,-3.7388659,1.0005416
15.448553,-3.7388659,1.0005416
7.9899707,-2.3505547000000004,2.9633265
7.9899707,-2.3505547000000004,2.9633265
7.9899707,-2.3505547000000004,2.9633265
7.9899707,-2.3505547000000004,2.9633265
6.6016593,-0.12925656,2.2452345
6.6016593,-0.12925656,2.2452345
6.6016593,-0.12925656,2.2452345
6.6016593,-0.12925656,2.2452345
6.6016593,-0.12925656,2.2452345
5.309094,-0.665432,1.709059
5.309094,-0.665432,1.709059
5.309094,-0.665432,1.709059
5.309094,-0.665432,1.709059
6.1420803,-0.78032666,0.91437054
6.1420803,-0.78032666,0.91437054
6.1420803,-0.78032666,0.91437054
16.856014000000002,-2.2452345,0.2920241
16.856014000000002,-2.2452345,0.2920241
16.856014000000002,-2.2452345,0.2920241
16.856014000000002,-2.2452345,0.2920241
19.594337,-4.0931244,1.4026731000000001
19.594337,-4.0931244,1.4026731000000001
19.594337,-4.0931244,1.4026731000000001
19.594337,-4.0931244,1.4026731000000001
13.160233499999999,-3.1356685,2.7814097
13.160233499999999,-3.1356685,2.7814097
13.160233499999999,-3.1356685,2.7814097
13.160233499999999,-3.1356685,2.7814097
7.7793303,0.42606795,2.6186423
7.7793303,0.42606795,2.6186423
7.7793303,0.42606795,2.6186423
7.7793303,0.42606795,2.6186423
6.0080366,-0.110107444,0.93351966
6.0080366,-0.110107444,0.93351966
6.0080366,-0.110107444,0.93351966
6.0080366,-0.110107444,0.93351966
6.5825105,-1.6611862000000002,-0.8760723
6.5825105,-1.6611862000000002,-0.8760723
6.5825105,-1.6611862000000002,-0.8760723
6.5825105,-1.6611862000000002,-0.8760723
9.215514,-3.2505634,-0.17712937
9.215514,-3.2505634,-0.17712937
9.215514,-3.2505634,-0.17712937
9.215514,-3.2505634,-0.17712937
15.046422,-2.9537517999999996,0.37819514
15.046422,-2.9537517999999996,0.37819514
15.046422,-2.9537517999999996,0.37819514
15.046422,-2.9537517999999996,0.37819514
12.872996,-2.34098,0.7324539000000001
12.872996,-2.34098,0.7324539000000001
12.872996,-2.34098,0.7324539000000001
12.872996,-2.34098,0.7324539000000001
9.474028,-1.6324625,1.3643749
9.474028,-1.6324625,1.3643749
9.474028,-1.6324625,1.3643749
9.474028,-1.6324625,1.3643749
8.152739,-0.18670394,1.8909756999999998
8.152739,-0.18670394,1.8909756999999998
8.152739,-0.18670394,1.8909756999999998
8.152739,-0.18670394,1.8909756999999998
5.7016506,0.6271336999999999,1.1537346000000002
5.7016506,0.6271336999999999,1.1537346000000002
5.7016506,0.6271336999999999,1.1537346000000002
5.7016506,0.6271336999999999,1.1537346000000002
6.4197426,-1.4888442,-0.43564250000000004
6.4197426,-1.4888442,-0.43564250000000004
6.4197426,-1.4888442,-0.43564250000000004
6.4197426,-1.4888442,-0.43564250000000004
11.044255,-3.1356685,-1.5175678999999997
11.044255,-3.1356685,-1.5175678999999997
11.044255,-3.1356685,-1.5175678999999997
11.044255,-3.1356685,-1.5175678999999997
11.044255,-3.1356685,-1.5175678999999997
14.09854,-3.5378,-1.2111819
14.09854,-3.5378,-1.2111819
14.09854,-3.5378,-1.2111819
12.365545,-4.658024,-0.8281995000000001
12.365545,-4.658024,-0.8281995000000001
12.365545,-4.658024,-0.8281995000000001
12.365545,-4.658024,-0.8281995000000001
10.230417999999998,-1.9867213,1.4792696
10.230417999999998,-1.9867213,1.4792696
10.230417999999998,-1.9867213,1.4792696
10.230417999999998,-1.9867213,1.4792696
10.230417999999998,-1.9867213,1.4792696
8.392102000000001,-0.46436617,1.6133133999999998
8.392102000000001,-0.46436617,1.6133133999999998
8.392102000000001,-0.46436617,1.6133133999999998
7.683584700000001,-0.42606795,1.6037389
7.683584700000001,-0.42606795,1.6037389
7.683584700000001,-0.42606795,1.6037389
7.683584700000001,-0.42606795,1.6037389
9.292110000000001,-1.7856555,1.2303311000000001
9.292110000000001,-1.7856555,1.2303311000000001
9.292110000000001,-1.7856555,1.2303311000000001
9.292110000000001,-1.7856555,1.2303311000000001
9.292110000000001,-1.7856555,1.2303311000000001
11.1208515,-2.0441686999999997,1.7665064
11.1208515,-2.0441686999999997,1.7665064
11.1208515,-2.0441686999999997,1.7665064
11.1208515,-2.0441686999999997,1.7665064
13.600663,-2.2165107999999996,1.6516117
13.600663,-2.2165107999999996,1.6516117
13.600663,-2.2165107999999996,1.6516117
9.636795,-1.383524,0.83777404
9.636795,-1.383524,0.83777404
9.636795,-1.383524,0.83777404
9.636795,-1.383524,0.83777404
9.636795,-1.383524,0.83777404
11.331491999999999,-0.32074776,-0.26330042
11.331491999999999,-0.32074776,-0.26330042
11.331491999999999,-0.32074776,-0.26330042
11.331491999999999,-0.32074776,-0.26330042
8.631466,-0.49308985,-0.665432
8.631466,-0.49308985,-0.665432
8.631466,-0.49308985,-0.665432
6.0176110000000005,0.0,-0.09095833
6.0176110000000005,0.0,-0.09095833
6.0176110000000005,0.0,-0.09095833
6.0176110000000005,0.0,-0.09095833
6.0176110000000005,0.0,-0.09095833
5.7016506,0.05266008,-0.7228793
5.7016506,0.05266008,-0.7228793
5.7016506,0.05266008,-0.7228793
5.7016506,0.05266008,-0.7228793
6.505913700000001,-0.20585304,-0.23457673
6.505913700000001,-0.20585304,-0.23457673
6.505913700000001,-0.20585304,-0.23457673
6.9654926999999995,-1.7952299999999999,-0.30159867
6.9654926999999995,-1.7952299999999999,-0.30159867
6.9654926999999995,-1.7952299999999999,-0.30159867
6.9654926999999995,-1.7952299999999999,-0.30159867
6.9654926999999995,-1.7952299999999999,-0.30159867
13.926198000000001,-3.4899273,-0.64628285
13.926198000000001,-3.4899273,-0.64628285
13.926198000000001,-3.4899273,-0.64628285
13.926198000000001,-3.4899273,-0.64628285
16.444307000000002,-4.246317400000001,0.92394507
16.444307000000002,-4.246317400000001,0.92394507
16.444307000000002,-4.246317400000001,0.92394507
16.444307000000002,-4.246317400000001,0.92394507
10.077225,-2.5420458,3.3463089999999998
10.077225,-2.5420458,3.3463089999999998
10.077225,-2.5420458,3.3463089999999998
10.077225,-2.5420458,3.3463089999999998
4.926111,-0.63670826,3.3463089999999998
4.926111,-0.63670826,3.3463089999999998
4.926111,-0.63670826,3.3463089999999998
4.926111,-0.63670826,3.3463089999999998
6.8122997000000005,-1.1345854,2.3984275
6.8122997000000005,-1.1345854,2.3984275
6.8122997000000005,-1.1345854,2.3984275
6.8122997000000005,-1.1345854,2.3984275
9.742115,-2.3792782000000003,2.2739582
9.742115,-2.3792782000000003,2.2739582
9.742115,-2.3792782000000003,2.2739582
9.742115,-2.3792782000000003,2.2739582
10.326163000000001,-1.6324625,0.99096704
10.326163000000001,-1.6324625,0.99096704
10.326163000000001,-1.6324625,0.99096704
10.326163000000001,-1.6324625,0.99096704
17.746449,-3.4037561000000003,-3.078221
17.746449,-3.4037561000000003,-3.078221
17.746449,-3.4037561000000003,-3.078221
17.746449,-3.4037561000000003,-3.078221
10.326163000000001,0.751603,-0.00478728
10.326163000000001,0.751603,-0.00478728
10.326163000000001,0.751603,-0.00478728
10.326163000000001,0.751603,-0.00478728
7.080387599999999,1.948423,0.61755913
7.080387599999999,1.948423,0.61755913
7.080387599999999,1.948423,0.61755913
7.080387599999999,1.948423,0.61755913
5.711225499999999,-0.7228793,-1.1250108
5.711225499999999,-0.7228793,-1.1250108
5.711225499999999,-0.7228793,-1.1250108
5.711225499999999,-0.7228793,-1.1250108
5.979312999999999,-0.64628285,0.03351096
5.979312999999999,-0.64628285,0.03351096
5.979312999999999,-0.64628285,0.03351096
5.979312999999999,-0.64628285,0.03351096
11.283619999999999,-1.5941644,-0.3111732
11.283619999999999,-1.5941644,-0.3111732
11.283619999999999,-1.5941644,-0.3111732
11.283619999999999,-1.5941644,-0.3111732
16.463457000000002,-3.0494976,0.12925656
16.463457000000002,-3.0494976,0.12925656
16.463457000000002,-3.0494976,0.12925656
16.463457000000002,-3.0494976,0.12925656
11.992137,-2.2739582,3.059072
11.992137,-2.2739582,3.059072
11.992137,-2.2739582,3.059072
6.946343400000001,-0.5218136,2.7909843999999997
6.946343400000001,-0.5218136,2.7909843999999997
6.946343400000001,-0.5218136,2.7909843999999997
6.946343400000001,-0.5218136,2.7909843999999997
6.946343400000001,-0.5218136,2.7909843999999997
6.7740016,-1.6228879999999999,1.3739493999999999
6.7740016,-1.6228879999999999,1.3739493999999999
6.7740016,-1.6228879999999999,1.3739493999999999
6.7740016,-1.6228879999999999,1.3739493999999999
7.281453,-1.9675721999999998,1.1920328000000002
7.281453,-1.9675721999999998,1.1920328000000002
7.281453,-1.9675721999999998,1.1920328000000002
11.752773,-1.1345854,0.8186249
11.752773,-1.1345854,0.8186249
11.752773,-1.1345854,0.8186249
11.752773,-1.1345854,0.8186249
11.752773,-1.1345854,0.8186249
19.019865,-2.513322,-1.5462915000000002
19.019865,-2.513322,-1.5462915000000002
19.019865,-2.513322,-1.5462915000000002
19.019865,-2.513322,-1.5462915000000002
9.234664,-0.78990126,0.15798025
9.234664,-0.78990126,0.15798025
9.234664,-0.78990126,0.15798025
7.156984,1.0675635,0.37819514
7.156984,1.0675635,0.37819514
7.156984,1.0675635,0.37819514
7.156984,1.0675635,0.37819514
7.156984,1.0675635,0.37819514
4.150572,-0.8186249,-0.751603
4.150572,-0.8186249,-0.751603
4.150572,-0.8186249,-0.751603
4.150572,-0.8186249,-0.751603
5.0122824,-0.70373017,-0.44521707
5.0122824,-0.70373017,-0.44521707
5.0122824,-0.70373017,-0.44521707
5.0122824,-0.70373017,-0.44521707
12.729378,-1.2973529,-1.1154363
12.729378,-1.2973529,-1.1154363
12.729378,-1.2973529,-1.1154363
12.729378,-1.2973529,-1.1154363
16.760267000000002,-2.1590632999999997,-0.32074776
16.760267000000002,-2.1590632999999997,-0.32074776
16.760267000000002,-2.1590632999999997,-0.32074776
16.760267000000002,-2.1590632999999997,-0.32074776
12.049584,-3.2984362000000003,1.5941644
12.049584,-3.2984362000000003,1.5941644
12.049584,-3.2984362000000003,1.5941644
12.049584,-3.2984362000000003,1.5941644
7.7506065,-1.1250108,3.039923
7.7506065,-1.1250108,3.039923
7.7506065,-1.1250108,3.039923
7.7506065,-1.1250108,3.039923
6.544212,-0.5888355,2.8388572
6.544212,-0.5888355,2.8388572
6.544212,-0.5888355,2.8388572
6.544212,-0.5888355,2.8388572
7.7984796,-2.034594,1.2399056
7.7984796,-2.034594,1.2399056
7.7984796,-2.034594,1.2399056
7.7984796,-2.034594,1.2399056
10.077225,-2.427151,0.8760723
10.077225,-2.427151,0.8760723
10.077225,-2.427151,0.8760723
10.077225,-2.427151,0.8760723
13.303852,-1.776081,-0.27287498
13.303852,-1.776081,-0.27287498
13.303852,-1.776081,-0.27287498
13.303852,-1.776081,-0.27287498
16.023027,-1.5941644,-0.8186249
16.023027,-1.5941644,-0.8186249
16.023027,-1.5941644,-0.8186249
16.023027,-1.5941644,-0.8186249
6.333572,0.44521707,0.49308985
6.333572,0.44521707,0.49308985
6.333572,0.44521707,0.49308985
6.333572,0.44521707,0.49308985
6.151655,0.37819514,-0.751603
6.151655,0.37819514,-0.751603
6.151655,0.37819514,-0.751603
6.151655,0.37819514,-0.751603
3.7963133,-0.8090504,-1.3643749
3.7963133,-0.8090504,-1.3643749
3.7963133,-0.8090504,-1.3643749
3.7963133,-0.8090504,-1.3643749
12.288948,-1.1345854,-0.44521707
12.288948,-1.1345854,-0.44521707
12.288948,-1.1345854,-0.44521707
12.288948,-1.1345854,-0.44521707
18.560285999999998,-2.6377914000000002,0.13883112
18.560285999999998,-2.6377914000000002,0.13883112
18.560285999999998,-2.6377914000000002,0.13883112
18.560285999999998,-2.6377914000000002,0.13883112
9.234664,-1.9388485,3.4803526
9.234664,-1.9388485,3.4803526
9.234664,-1.9388485,3.4803526
9.234664,-1.9388485,3.4803526
7.329325999999999,-1.0388398,2.3026817000000004
7.329325999999999,-1.0388398,2.3026817000000004
7.329325999999999,-1.0388398,2.3026817000000004
7.329325999999999,-1.0388398,2.3026817000000004
7.635712,-0.63670826,2.4558747000000003
7.635712,-0.63670826,2.4558747000000003
7.635712,-0.63670826,2.4558747000000003
7.635712,-0.63670826,2.4558747000000003
8.210186,-1.4888442,1.6516117
8.210186,-1.4888442,1.6516117
8.210186,-1.4888442,1.6516117
8.210186,-1.4888442,1.6516117
12.911294999999999,-2.5516202,-0.71330476
12.911294999999999,-2.5516202,-0.71330476
12.911294999999999,-2.5516202,-0.71330476
17.047504,-2.8292825,-1.3548003
17.047504,-2.8292825,-1.3548003
17.047504,-2.8292825,-1.3548003
17.047504,-2.8292825,-1.3548003
17.047504,-2.8292825,-1.3548003
9.454879,-0.14840569,1.4313968000000001
9.454879,-0.14840569,1.4313968000000001
9.454879,-0.14840569,1.4313968000000001
9.454879,-0.14840569,1.4313968000000001
7.2623043,-0.6079846,0.4164934
7.2623043,-0.6079846,0.4164934
7.2623043,-0.6079846,0.4164934
7.2623043,-0.6079846,0.4164934
4.466532,-1.0292653,-0.40691882
4.466532,-1.0292653,-0.40691882
4.466532,-1.0292653,-0.40691882
4.466532,-1.0292653,-0.40691882
5.2707953000000005,0.45479164,1.948423
5.2707953000000005,0.45479164,1.948423
5.2707953000000005,0.45479164,1.948423
5.2707953000000005,0.45479164,1.948423
15.553873000000001,-1.1824582000000001,2.9920502
15.553873000000001,-1.1824582000000001,2.9920502
15.553873000000001,-1.1824582000000001,2.9920502
15.640044,-3.1835412999999995,1.5462915000000002
15.640044,-3.1835412999999995,1.5462915000000002
15.640044,-3.1835412999999995,1.5462915000000002
15.640044,-3.1835412999999995,1.5462915000000002
7.664436,-4.6388745,1.0292653
7.664436,-4.6388745,1.0292653
7.664436,-4.6388745,1.0292653
7.664436,-4.6388745,1.0292653
6.5633610000000004,-1.9962958,2.2356597999999996
6.5633610000000004,-1.9962958,2.2356597999999996
6.5633610000000004,-1.9962958,2.2356597999999996
6.5633610000000004,-1.9962958,2.2356597999999996
6.8601727,-1.6037389,3.1260939999999997
6.8601727,-1.6037389,3.1260939999999997
6.8601727,-1.6037389,3.1260939999999997
6.8601727,-1.6037389,3.1260939999999997
8.55487,-2.5994933,1.6420371999999999
8.55487,-2.5994933,1.6420371999999999
8.55487,-2.5994933,1.6420371999999999
8.55487,-2.5994933,1.6420371999999999
14.634716000000001,-2.752686,0.93351966
14.634716000000001,-2.752686,0.93351966
14.634716000000001,-2.752686,0.93351966
13.34215,-3.2505634,1.6228879999999999
13.34215,-3.2505634,1.6228879999999999
13.34215,-3.2505634,1.6228879999999999
13.34215,-3.2505634,1.6228879999999999
13.34215,-3.2505634,1.6228879999999999
8.746361,-1.6516117,3.7005677
8.746361,-1.6516117,3.7005677
8.746361,-1.6516117,3.7005677
8.746361,-1.6516117,3.7005677
5.6154795,-0.8473485999999999,4.08355
5.6154795,-0.8473485999999999,4.08355
5.6154795,-0.8473485999999999,4.08355
5.6154795,-0.8473485999999999,4.08355
3.3654580000000003,-0.7228793,1.6420371999999999
3.3654580000000003,-0.7228793,1.6420371999999999
3.3654580000000003,-0.7228793,1.6420371999999999
3.3654580000000003,-0.7228793,1.6420371999999999
7.7984796,-1.5462915000000002,-0.2920241
7.7984796,-1.5462915000000002,-0.2920241
7.7984796,-1.5462915000000002,-0.2920241
19.354975,-4.945260500000001,0.33032233
19.354975,-4.945260500000001,0.33032233
19.354975,-4.945260500000001,0.33032233
19.354975,-4.945260500000001,0.33032233
16.013453,-5.672927,2.1303396
16.013453,-5.672927,2.1303396
16.013453,-5.672927,2.1303396
16.013453,-5.672927,2.1303396
8.755936,-3.5952474999999997,2.1782124
8.755936,-3.5952474999999997,2.1782124
8.755936,-3.5952474999999997,2.1782124
8.755936,-3.5952474999999997,2.1782124
8.755936,-3.5952474999999997,2.1782124
5.500585,-2.254809,1.9101248
5.500585,-2.254809,1.9101248
5.500585,-2.254809,1.9101248
6.036760299999999,-3.3558834,1.1537346000000002
6.036760299999999,-3.3558834,1.1537346000000002
6.036760299999999,-3.3558834,1.1537346000000002
6.036760299999999,-3.3558834,1.1537346000000002
9.20594,-4.5239797,1.1537346000000002
9.20594,-4.5239797,1.1537346000000002
9.20594,-4.5239797,1.1537346000000002
9.20594,-4.5239797,1.1537346000000002
9.20594,-4.5239797,1.1537346000000002
12.58576,-3.7292912000000005,1.3930986
12.58576,-3.7292912000000005,1.3930986
12.58576,-3.7292912000000005,1.3930986
12.336822,-2.733537,0.49308985
12.336822,-2.733537,0.49308985
12.336822,-2.733537,0.49308985
12.336822,-2.733537,0.49308985
12.336822,-2.733537,0.49308985
12.499589,-2.733537,-1.0867126
12.499589,-2.733537,-1.0867126
12.499589,-2.733537,-1.0867126
12.499589,-2.733537,-1.0867126
11.149575,-3.078221,-1.14416
11.149575,-3.078221,-1.14416
11.149575,-3.078221,-1.14416
8.296356,-1.0771381000000002,0.9718179
8.296356,-1.0771381000000002,0.9718179
8.296356,-1.0771381000000002,0.9718179
8.296356,-1.0771381000000002,0.9718179
6.898471000000001,-0.85692316,0.22500217
6.898471000000001,-0.85692316,0.22500217
6.898471000000001,-0.85692316,0.22500217
6.898471000000001,-0.85692316,0.22500217
6.898471000000001,-0.85692316,0.22500217
6.027186,-2.0920415,-0.17712937
6.027186,-2.0920415,-0.17712937
6.027186,-2.0920415,-0.17712937
6.027186,-2.0920415,-0.17712937
8.248484,-3.078221,-0.5505372
8.248484,-3.078221,-0.5505372
8.248484,-3.078221,-0.5505372
11.341067,-3.4995019999999997,-0.3111732
11.341067,-3.4995019999999997,-0.3111732
11.341067,-3.4995019999999997,-0.3111732
11.341067,-3.4995019999999997,-0.3111732
11.341067,-3.4995019999999997,-0.3111732
13.495343,-4.0356774,-0.36862057
13.495343,-4.0356774,-0.36862057
13.495343,-4.0356774,-0.36862057
13.495343,-4.0356774,-0.36862057
11.561282,-2.8484317999999997,1.1633091
11.561282,-2.8484317999999997,1.1633091
11.561282,-2.8484317999999997,1.1633091
7.3389006,-1.5750152,1.709059
7.3389006,-1.5750152,1.709059
7.3389006,-1.5750152,1.709059
7.3389006,-1.5750152,1.709059
7.3389006,-1.5750152,1.709059
4.916537,-0.54096264,1.9962958
4.916537,-0.54096264,1.9962958
4.916537,-0.54096264,1.9962958
4.916537,-0.54096264,1.9962958
5.4718614,-1.7952299999999999,1.9675721999999998
5.4718614,-1.7952299999999999,1.9675721999999998
5.4718614,-1.7952299999999999,1.9675721999999998
5.4718614,-1.7952299999999999,1.9675721999999998
7.683584700000001,-3.8154623999999995,2.3984275
7.683584700000001,-3.8154623999999995,2.3984275
7.683584700000001,-3.8154623999999995,2.3984275
7.683584700000001,-3.8154623999999995,2.3984275
7.875075999999999,-3.2792869,2.6952388
7.875075999999999,-3.2792869,2.6952388
7.875075999999999,-3.2792869,2.6952388
7.875075999999999,-3.2792869,2.6952388
10.94851,-2.2069361,1.7377827000000001
10.94851,-2.2069361,1.7377827000000001
10.94851,-2.2069361,1.7377827000000001
10.94851,-2.2069361,1.7377827000000001
18.349646,-3.3080106,-0.32074776
18.349646,-3.3080106,-0.32074776
18.349646,-3.3080106,-0.32074776
18.349646,-3.3080106,-0.32074776
10.565528,-3.0111992,1.2111819
10.565528,-3.0111992,1.2111819
10.565528,-3.0111992,1.2111819
10.565528,-3.0111992,1.2111819
4.73462,1.1058618,1.6420371999999999
4.73462,1.1058618,1.6420371999999999
4.73462,1.1058618,1.6420371999999999
6.9654926999999995,-1.7282081999999999,0.081383765
6.9654926999999995,-1.7282081999999999,0.081383765
6.9654926999999995,-1.7282081999999999,0.081383765
6.9654926999999995,-1.7282081999999999,0.081383765
6.2952733,-0.8473485999999999,0.9430941999999999
6.2952733,-0.8473485999999999,0.9430941999999999
6.2952733,-0.8473485999999999,0.9430941999999999
6.2952733,-0.8473485999999999,0.9430941999999999
6.2952733,-0.8473485999999999,0.9430941999999999
6.946343400000001,-0.9526688,1.3356511999999998
6.946343400000001,-0.9526688,1.3356511999999998
6.946343400000001,-0.9526688,1.3356511999999998
17.420912,-3.2026904,-1.776081
17.420912,-3.2026904,-1.776081
17.420912,-3.2026904,-1.776081
17.420912,-3.2026904,-1.776081
17.420912,-3.2026904,-1.776081
12.604909,-5.4048395,2.2452345
12.604909,-5.4048395,2.2452345
12.604909,-5.4048395,2.2452345
7.089962,-1.9101248,4.504830999999999
7.089962,-1.9101248,4.504830999999999
7.089962,-1.9101248,4.504830999999999
7.089962,-1.9101248,4.504830999999999
8.34423,-0.36862057,4.6771727
8.34423,-0.36862057,4.6771727
8.34423,-0.36862057,4.6771727
8.34423,-0.36862057,4.6771727
7.7506065,-0.7228793,4.0356774
7.7506065,-0.7228793,4.0356774
7.7506065,-0.7228793,4.0356774
7.7506065,-0.7228793,4.0356774
10.412334,-2.7814097,2.0728923999999997
10.412334,-2.7814097,2.0728923999999997
10.412334,-2.7814097,2.0728923999999997
10.412334,-2.7814097,2.0728923999999997
14.060242,-2.4654493,-0.23457673
14.060242,-2.4654493,-0.23457673
14.060242,-2.4654493,-0.23457673
14.060242,-2.4654493,-0.23457673
15.927280999999999,-1.9675721999999998,-0.63670826
15.927280999999999,-1.9675721999999998,-0.63670826
15.927280999999999,-1.9675721999999998,-0.63670826
15.927280999999999,-1.9675721999999998,-0.63670826
15.927280999999999,-1.9675721999999998,-0.63670826
7.1186857,0.22500217,0.71330476
7.1186857,0.22500217,0.71330476
7.1186857,0.22500217,0.71330476
4.0069537,-0.2154276,0.30159867
4.0069537,-0.2154276,0.30159867
4.0069537,-0.2154276,0.30159867
4.0069537,-0.2154276,0.30159867
4.3707867,-1.1920328000000002,-0.48351530000000004
4.3707867,-1.1920328000000002,-0.48351530000000004
4.3707867,-1.1920328000000002,-0.48351530000000004
4.3707867,-1.1920328000000002,-0.48351530000000004
4.3707867,-1.1920328000000002,-0.48351530000000004
7.5112429999999994,-0.8760723,0.6845810999999999
7.5112429999999994,-0.8760723,0.6845810999999999
7.5112429999999994,-0.8760723,0.6845810999999999
16.128347,-2.3792782000000003,0.5218136
16.128347,-2.3792782000000003,0.5218136
16.128347,-2.3792782000000003,0.5218136
16.128347,-2.3792782000000003,0.5218136
15.381532,-3.7867386,2.2260852000000004
15.381532,-3.7867386,2.2260852000000004
15.381532,-3.7867386,2.2260852000000004
15.381532,-3.7867386,2.2260852000000004
15.381532,-3.7867386,2.2260852000000004
5.1654754,-1.7952299999999999,4.102699299999999
5.1654754,-1.7952299999999999,4.102699299999999
5.1654754,-1.7952299999999999,4.102699299999999
7.4442205,0.8664976999999999,3.3654580000000003
7.4442205,0.8664976999999999,3.3654580000000003
7.4442205,0.8664976999999999,3.3654580000000003
7.4442205,0.8664976999999999,3.3654580000000003
7.4442205,-1.1728836,2.7814097
7.4442205,-1.1728836,2.7814097
7.4442205,-1.1728836,2.7814097
7.4442205,-1.1728836,2.7814097
7.4442205,-1.1728836,2.7814097
7.951672599999999,-2.3697037999999995,1.3548003
7.951672599999999,-2.3697037999999995,1.3548003
7.951672599999999,-2.3697037999999995,1.3548003
7.951672599999999,-2.3697037999999995,1.3548003
17.593254,-4.6867475999999995,-2.1877869999999997
17.593254,-4.6867475999999995,-2.1877869999999997
17.593254,-4.6867475999999995,-2.1877869999999997
12.978316,-1.5941644,1.6516117
12.978316,-1.5941644,1.6516117
12.978316,-1.5941644,1.6516117
12.978316,-1.5941644,1.6516117
7.616563,2.752686,1.0675635
7.616563,2.752686,1.0675635
7.616563,2.752686,1.0675635
7.616563,2.752686,1.0675635
7.616563,2.752686,1.0675635
5.988887999999999,-2.5516202,-1.5462915000000002
5.988887999999999,-2.5516202,-1.5462915000000002
5.988887999999999,-2.5516202,-1.5462915000000002
3.671844,-0.2920241,0.8473485999999999
3.671844,-0.2920241,0.8473485999999999
3.671844,-0.2920241,0.8473485999999999
3.671844,-0.2920241,0.8473485999999999
3.671844,-0.2920241,0.8473485999999999
11.26447,0.6845810999999999,0.0
11.26447,0.6845810999999999,0.0
11.26447,0.6845810999999999,0.0
11.26447,0.6845810999999999,0.0
19.594337,-2.5037475,-0.19627848
19.594337,-2.5037475,-0.19627848
19.594337,-2.5037475,-0.19627848
9.617646,-1.9388485,2.9154537
9.617646,-1.9388485,2.9154537
9.617646,-1.9388485,2.9154537
9.617646,-1.9388485,2.9154537
9.617646,-1.9388485,2.9154537
6.9176197,-0.42606795,1.9771467
6.9176197,-0.42606795,1.9771467
6.9176197,-0.42606795,1.9771467
6.9176197,-0.42606795,1.9771467
6.639958,-0.9430941999999999,2.34098
6.639958,-0.9430941999999999,2.34098
6.639958,-0.9430941999999999,2.34098
6.639958,-0.9430941999999999,2.34098
6.180379,-2.254809,2.5324712000000003
6.180379,-2.254809,2.5324712000000003
6.180379,-2.254809,2.5324712000000003
6.180379,-2.254809,2.5324712000000003
9.924032,-3.039923,1.2973529
9.924032,-3.039923,1.2973529
9.924032,-3.039923,1.2973529
9.924032,-3.039923,1.2973529
17.976236,-1.9196993000000002,-0.71330476
17.976236,-1.9196993000000002,-0.71330476
17.976236,-1.9196993000000002,-0.71330476
17.976236,-1.9196993000000002,-0.71330476
13.859176999999999,-2.5037475,-0.32074776
13.859176999999999,-2.5037475,-0.32074776
13.859176999999999,-2.5037475,-0.32074776
13.859176999999999,-2.5037475,-0.32074776
7.7601814,-0.014361841,-0.48351530000000004
7.7601814,-0.014361841,-0.48351530000000004
7.7601814,-0.014361841,-0.48351530000000004
7.7601814,-0.014361841,-0.48351530000000004
4.96441,-0.7994758000000001,-0.6271336999999999
4.96441,-0.7994758000000001,-0.6271336999999999
4.96441,-0.7994758000000001,-0.6271336999999999
4.96441,-0.7994758000000001,-0.6271336999999999
4.5622783,-0.6271336999999999,-0.05266008
4.5622783,-0.6271336999999999,-0.05266008
4.5622783,-0.6271336999999999,-0.05266008
4.5622783,-0.6271336999999999,-0.05266008
7.664436,-0.10053288,0.043085523
7.664436,-0.10053288,0.043085523
7.664436,-0.10053288,0.043085523
7.664436,-0.10053288,0.043085523
18.617732999999998,-1.9005502,-0.46436617
18.617732999999998,-1.9005502,-0.46436617
18.617732999999998,-1.9005502,-0.46436617
18.617732999999998,-1.9005502,-0.46436617
14.634716000000001,-3.8633351,1.9292740000000002
14.634716000000001,-3.8633351,1.9292740000000002
14.634716000000001,-3.8633351,1.9292740000000002
14.634716000000001,-3.8633351,1.9292740000000002
7.5303917,-1.0484143,2.9441773999999996
7.5303917,-1.0484143,2.9441773999999996
7.5303917,-1.0484143,2.9441773999999996
7.5303917,-1.0484143,2.9441773999999996
6.8888964999999995,0.63670826,2.6090677
6.8888964999999995,0.63670826,2.6090677
6.8888964999999995,0.63670826,2.6090677
6.8888964999999995,0.63670826,2.6090677
6.5729356,-0.69415563,2.3026817000000004
6.5729356,-0.69415563,2.3026817000000004
6.5729356,-0.69415563,2.3026817000000004
6.5729356,-0.69415563,2.3026817000000004
8.688913000000001,-2.7048132000000003,0.8473485999999999
8.688913000000001,-2.7048132000000003,0.8473485999999999
8.688913000000001,-2.7048132000000003,0.8473485999999999
8.688913000000001,-2.7048132000000003,0.8473485999999999
14.902803,-2.3026817000000004,-0.6750065
14.902803,-2.3026817000000004,-0.6750065
14.902803,-2.3026817000000004,-0.6750065
14.902803,-2.3026817000000004,-0.6750065
18.23475,-1.3069274,-1.2590546999999999
18.23475,-1.3069274,-1.2590546999999999
18.23475,-1.3069274,-1.2590546999999999
18.23475,-1.3069274,-1.2590546999999999
10.5080805,-2.2643836,0.28244954
10.5080805,-2.2643836,0.28244954
10.5080805,-2.2643836,0.28244954
10.5080805,-2.2643836,0.28244954
4.83994,-0.03351096,0.8090504
4.83994,-0.03351096,0.8090504
4.83994,-0.03351096,0.8090504
4.83994,-0.03351096,0.8090504
3.1165195,-0.19627848,-0.110107444
3.1165195,-0.19627848,-0.110107444
3.1165195,-0.19627848,-0.110107444
4.150572,-1.0579889,0.20585304
4.150572,-1.0579889,0.20585304
4.150572,-1.0579889,0.20585304
4.150572,-1.0579889,0.20585304
4.150572,-1.0579889,0.20585304
8.1623125,-0.30159867,0.64628285
8.1623125,-0.30159867,0.64628285
8.1623125,-0.30159867,0.64628285
8.1623125,-0.30159867,0.64628285
18.971989999999998,-2.513322,1.2973529
18.971989999999998,-2.513322,1.2973529
18.971989999999998,-2.513322,1.2973529
18.971989999999998,-2.513322,1.2973529
15.438979000000002,-3.8729098,2.7431116
15.438979000000002,-3.8729098,2.7431116
15.438979000000002,-3.8729098,2.7431116
15.438979000000002,-3.8729098,2.7431116
7.2240057,-4.3707867,2.3314054
7.2240057,-4.3707867,2.3314054
7.2240057,-4.3707867,2.3314054
7.2240057,-4.3707867,2.3314054
4.9835587,-2.1111906000000005,2.8388572
4.9835587,-2.1111906000000005,2.8388572
4.9835587,-2.1111906000000005,2.8388572
4.9835587,-2.1111906000000005,2.8388572
5.4718614,-2.101616,2.3697037999999995
5.4718614,-2.101616,2.3697037999999995
5.4718614,-2.101616,2.3697037999999995
5.4718614,-2.101616,2.3697037999999995
13.543216000000001,-3.0877957,0.6271336999999999
13.543216000000001,-3.0877957,0.6271336999999999
13.543216000000001,-3.0877957,0.6271336999999999
13.543216000000001,-3.0877957,0.6271336999999999
19.546464999999998,-5.759098000000001,-0.3398969
19.546464999999998,-5.759098000000001,-0.3398969
19.546464999999998,-5.759098000000001,-0.3398969
19.546464999999998,-5.759098000000001,-0.3398969
14.720885999999998,-1.6420371999999999,0.2920241
14.720885999999998,-1.6420371999999999,0.2920241
14.720885999999998,-1.6420371999999999,0.2920241
14.720885999999998,-1.6420371999999999,0.2920241
8.66019,-0.014361841,-0.2920241
8.66019,-0.014361841,-0.2920241
8.66019,-0.014361841,-0.2920241
8.66019,-0.014361841,-0.2920241
6.630383,-2.6186423,-2.3984275
6.630383,-2.6186423,-2.3984275
6.630383,-2.6186423,-2.3984275
6.630383,-2.6186423,-2.3984275
6.400593799999999,-1.1920328000000002,-0.78990126
6.400593799999999,-1.1920328000000002,-0.78990126
6.400593799999999,-1.1920328000000002,-0.78990126
6.400593799999999,-1.1920328000000002,-0.78990126
9.31126,-0.7228793,0.014361841
9.31126,-0.7228793,0.014361841
9.31126,-0.7228793,0.014361841
9.31126,-0.7228793,0.014361841
12.518738,-0.28244954,-0.11968201
12.518738,-0.28244954,-0.11968201
12.518738,-0.28244954,-0.11968201
12.518738,-0.28244954,-0.11968201
12.279374,-0.9718179,0.83777404
12.279374,-0.9718179,0.83777404
12.279374,-0.9718179,0.83777404
12.279374,-0.9718179,0.83777404
9.8953085,-2.2835326,2.0537431
9.8953085,-2.2835326,2.0537431
9.8953085,-2.2835326,2.0537431
9.8953085,-2.2835326,2.0537431
9.54105,-0.44521707,2.408002
9.54105,-0.44521707,2.408002
9.54105,-0.44521707,2.408002
9.54105,-0.44521707,2.408002
10.488931,0.16755481,2.4654493
10.488931,0.16755481,2.4654493
10.488931,0.16755481,2.4654493
10.488931,0.16755481,2.4654493
9.96233,-2.0633178,0.8090504
9.96233,-2.0633178,0.8090504
9.96233,-2.0633178,0.8090504
9.96233,-2.0633178,0.8090504
10.000628,-3.604822,-0.22500217
10.000628,-3.604822,-0.22500217
10.000628,-3.604822,-0.22500217
10.096374,-1.6803354,0.751603
10.096374,-1.6803354,0.751603
10.096374,-1.6803354,0.751603
10.096374,-1.6803354,0.751603
9.75169,-1.0771381000000002,1.0579889
9.75169,-1.0771381000000002,1.0579889
9.75169,-1.0771381000000002,1.0579889
9.75169,-1.0771381000000002,1.0579889
9.75169,-1.0771381000000002,1.0579889
9.225089,-1.709059,0.023936402000000002
9.225089,-1.709059,0.023936402000000002
9.225089,-1.709059,0.023936402000000002
9.20594,-1.6228879999999999,-0.36862057
9.20594,-1.6228879999999999,-0.36862057
9.20594,-1.6228879999999999,-0.36862057
9.20594,-1.6228879999999999,-0.36862057
9.20594,-1.6228879999999999,-0.36862057
9.780414,-1.3548003,-0.359046
9.780414,-1.3548003,-0.359046
9.780414,-1.3548003,-0.359046
10.307014,-1.14416,-0.2441513
10.307014,-1.14416,-0.2441513
10.307014,-1.14416,-0.2441513
10.307014,-1.14416,-0.2441513
10.498505999999999,-1.3930986,-0.25372586
10.498505999999999,-1.3930986,-0.25372586
10.498505999999999,-1.3930986,-0.25372586
10.498505999999999,-1.3930986,-0.25372586
10.498505999999999,-1.3930986,-0.25372586
9.665519,-1.1633091,0.10053288
9.665519,-1.1633091,0.10053288
9.665519,-1.1633091,0.10053288
10.125097,-0.63670826,0.4164934
10.125097,-0.63670826,0.4164934
10.125097,-0.63670826,0.4164934
10.125097,-0.63670826,0.4164934
10.125097,-0.63670826,0.4164934
9.914457,-1.0484143,0.062234644000000006
9.914457,-1.0484143,0.062234644000000006
9.914457,-1.0484143,0.062234644000000006
9.368708,-2.0633178,-0.39734426
9.368708,-2.0633178,-0.39734426
9.368708,-2.0633178,-0.39734426
9.368708,-2.0633178,-0.39734426
9.368708,-2.0633178,-0.39734426
9.7899885,-2.321831,-0.39734426
9.7899885,-2.321831,-0.39734426
9.7899885,-2.321831,-0.39734426
9.7899885,-2.321831,-0.39734426
10.364462,-1.6994845,0.12925656
10.364462,-1.6994845,0.12925656
10.364462,-1.6994845,0.12925656
10.239991999999999,-1.776081,0.19627848
10.239991999999999,-1.776081,0.19627848
10.239991999999999,-1.776081,0.19627848
10.239991999999999,-1.776081,0.19627848
10.239991999999999,-1.776081,0.19627848
9.971905,-2.034594,-0.28244954
9.971905,-2.034594,-0.28244954
9.971905,-2.034594,-0.28244954
9.866585,-2.0058703,-0.359046
9.866585,-2.0058703,-0.359046
9.866585,-2.0058703,-0.359046
9.866585,-2.0058703,-0.359046
9.8953085,-1.7186337,-0.15798025
9.8953085,-1.7186337,-0.15798025
9.8953085,-1.7186337,-0.15798025
9.8953085,-1.7186337,-0.15798025
9.971905,-1.6133133999999998,-0.0718092
9.971905,-1.6133133999999998,-0.0718092
9.971905,-1.6133133999999998,-0.0718092
9.971905,-1.6133133999999998,-0.0718092
9.943181,-1.4505458999999998,0.10053288
9.943181,-1.4505458999999998,0.10053288
9.943181,-1.4505458999999998,0.10053288
9.943181,-1.4505458999999998,0.10053288
9.5889225,-1.3356511999999998,0.4164934
9.5889225,-1.3356511999999998,0.4164934
9.5889225,-1.3356511999999998,0.4164934
9.5889225,-1.3356511999999998,0.4164934
9.914457,-1.4601203999999999,0.48351530000000004
9.914457,-1.4601203999999999,0.48351530000000004
9.914457,-1.4601203999999999,0.48351530000000004
9.914457,-1.4601203999999999,0.48351530000000004
10.220842999999999,-1.6516117,0.33032233
10.220842999999999,-1.6516117,0.33032233
10.220842999999999,-1.6516117,0.33032233
10.220842999999999,-1.6516117,0.33032233
9.991054,-1.6994845,0.2441513
9.991054,-1.6994845,0.2441513
9.991054,-1.6994845,0.2441513
9.991054,-1.6994845,0.2441513
9.742115,-1.6803354,0.13883112
9.742115,-1.6803354,0.13883112
9.742115,-1.6803354,0.13883112
9.742115,-1.6803354,0.13883112
9.761265,-1.6899098999999997,0.00478728
9.761265,-1.6899098999999997,0.00478728
9.761265,-1.6899098999999997,0.00478728
9.732541000000001,-1.8048046999999998,-0.062234644000000006
9.732541000000001,-1.8048046999999998,-0.062234644000000006
9.732541000000001,-1.8048046999999998,-0.062234644000000006
9.732541000000001,-1.8048046999999998,-0.062234644000000006
9.732541000000001,-1.8048046999999998,-0.062234644000000006
9.8953085,-1.8048046999999998,-0.03351096
9.8953085,-1.8048046999999998,-0.03351096
9.8953085,-1.8048046999999998,-0.03351096
9.8953085,-1.8048046999999998,-0.03351096
9.675094,-1.709059,0.34947145
9.675094,-1.709059,0.34947145
9.675094,-1.709059,0.34947145
9.799562,-1.862252,0.512239
9.799562,-1.862252,0.512239
9.799562,-1.862252,0.512239
9.799562,-1.862252,0.512239
9.799562,-1.862252,0.512239
10.153821,-1.948423,0.56968635
10.153821,-1.948423,0.56968635
10.153821,-1.948423,0.56968635
9.847435,-1.7186337,0.11968201
9.847435,-1.7186337,0.11968201
9.847435,-1.7186337,0.11968201
9.847435,-1.7186337,0.11968201
10.938935,-1.3165021000000001,0.00478728
10.938935,-1.3165021000000001,0.00478728
10.938935,-1.3165021000000001,0.00478728
10.938935,-1.3165021000000001,0.00478728
8.966576,-1.2973529,0.22500217
8.966576,-1.2973529,0.22500217
8.966576,-1.2973529,0.22500217
8.966576,-1.2973529,0.22500217
8.966576,-1.2973529,0.22500217
8.564445,-1.3548003,0.043085523
8.564445,-1.3548003,0.043085523
8.564445,-1.3548003,0.043085523
9.799562,-1.9579976000000003,-0.8664976999999999
9.799562,-1.9579976000000003,-0.8664976999999999
9.799562,-1.9579976000000003,-0.8664976999999999
9.799562,-1.9579976000000003,-0.8664976999999999
10.354887,-2.4463003,-0.5792609000000001
10.354887,-2.4463003,-0.5792609000000001
10.354887,-2.4463003,-0.5792609000000001
10.354887,-2.4463003,-0.5792609000000001
10.134672,-1.7952299999999999,-0.043085523
10.134672,-1.7952299999999999,-0.043085523
10.134672,-1.7952299999999999,-0.043085523
10.134672,-1.7952299999999999,-0.043085523
10.335738000000001,-2.0537431,0.062234644000000006
10.335738000000001,-2.0537431,0.062234644000000006
10.335738000000001,-2.0537431,0.062234644000000006
10.335738000000001,-2.0537431,0.062234644000000006
10.335738000000001,-2.0537431,0.062234644000000006
10.776167999999998,-1.6037389,0.56968635
10.776167999999998,-1.6037389,0.56968635
10.776167999999998,-1.6037389,0.56968635
10.680422,-1.0579889,0.90479594
10.680422,-1.0579889,0.90479594
10.680422,-1.0579889,0.90479594
10.680422,-1.0579889,0.90479594
10.077225,-0.8186249,0.8856468000000001
10.077225,-0.8186249,0.8856468000000001
10.077225,-0.8186249,0.8856468000000001
10.077225,-0.8186249,0.8856468000000001
9.655944,-0.40691882,0.9430941999999999
9.655944,-0.40691882,0.9430941999999999
9.655944,-0.40691882,0.9430941999999999
9.655944,-0.40691882,0.9430941999999999
9.617646,-0.28244954,0.91437054
9.617646,-0.28244954,0.91437054
9.617646,-0.28244954,0.91437054
9.617646,-0.28244954,0.91437054
9.617646,-0.28244954,0.91437054
9.445304,-0.93351966,0.6079846
9.445304,-0.93351966,0.6079846
9.445304,-0.93351966,0.6079846
9.809137,-1.7282081999999999,0.22500217
9.809137,-1.7282081999999999,0.22500217
9.809137,-1.7282081999999999,0.22500217
9.809137,-1.7282081999999999,0.22500217
10.316589,-2.0250196,0.18670394
10.316589,-2.0250196,0.18670394
10.316589,-2.0250196,0.18670394
10.316589,-2.0250196,0.18670394
10.278291000000001,-1.8239537000000001,0.36862057
10.278291000000001,-1.8239537000000001,0.36862057
10.278291000000001,-1.8239537000000001,0.36862057
10.278291000000001,-1.8239537000000001,0.36862057
9.96233,-1.7186337,0.17712937
9.96233,-1.7186337,0.17712937
9.96233,-1.7186337,0.17712937
9.96233,-1.7186337,0.17712937
9.569773,-1.8239537000000001,-0.17712937
9.569773,-1.8239537000000001,-0.17712937
9.569773,-1.8239537000000001,-0.17712937
9.569773,-1.8239537000000001,-0.17712937
9.675094,-1.9962958,-0.37819514
9.675094,-1.9962958,-0.37819514
9.675094,-1.9962958,-0.37819514
9.952755999999999,-1.8718264999999998,-0.09095833
9.952755999999999,-1.8718264999999998,-0.09095833
9.952755999999999,-1.8718264999999998,-0.09095833
9.952755999999999,-1.8718264999999998,-0.09095833
9.952755999999999,-1.8718264999999998,-0.09095833
9.7899885,-1.5175678999999997,0.28244954
9.7899885,-1.5175678999999997,0.28244954
9.7899885,-1.5175678999999997,0.28244954
10.096374,-1.3069274,0.26330042
10.096374,-1.3069274,0.26330042
10.096374,-1.3069274,0.26330042
10.096374,-1.3069274,0.26330042
9.933606,-1.2303311000000001,0.33032233
9.933606,-1.2303311000000001,0.33032233
9.933606,-1.2303311000000001,0.33032233
9.933606,-1.2303311000000001,0.33032233
10.048501,-1.5079931999999998,0.34947145
10.048501,-1.5079931999999998,0.34947145
10.048501,-1.5079931999999998,0.34947145
10.048501,-1.5079931999999998,0.34947145
10.498505999999999,-2.5516202,0.54096264
10.498505999999999,-2.5516202,0.54096264
10.498505999999999,-2.5516202,0.54096264
10.498505999999999,-2.5516202,0.54096264
10.278291000000001,-4.2654667,0.34947145
10.278291000000001,-4.2654667,0.34947145
10.278291000000001,-4.2654667,0.34947145
10.278291000000001,-4.2654667,0.34947145
10.239991999999999,-5.2037735000000005,1.4601203999999999
10.239991999999999,-5.2037735000000005,1.4601203999999999
10.239991999999999,-5.2037735000000005,1.4601203999999999
10.239991999999999,-5.2037735000000005,1.4601203999999999
10.163396,-6.2091026,2.321831
10.163396,-6.2091026,2.321831
10.163396,-6.2091026,2.321831
10.125097,-5.9697385,2.972901
10.125097,-5.9697385,2.972901
10.125097,-5.9697385,2.972901
10.125097,-5.9697385,2.972901
10.125097,-5.9697385,2.972901
9.943181,-5.7016506,3.5665237999999997
9.943181,-5.7016506,3.5665237999999997
9.943181,-5.7016506,3.5665237999999997
9.052747,-5.653778,3.8824842000000004
9.052747,-5.653778,3.8824842000000004
9.052747,-5.653778,3.8824842000000004
9.052747,-5.653778,3.8824842000000004
7.980396300000001,-5.021857,4.7441945
7.980396300000001,-5.021857,4.7441945
7.980396300000001,-5.021857,4.7441945
7.980396300000001,-5.021857,4.7441945
7.1186857,-3.930357,5.692076
7.1186857,-3.930357,5.692076
7.1186857,-3.930357,5.692076
7.1186857,-3.930357,5.692076
5.9697385,-3.1643922000000004,6.151655
5.9697385,-3.1643922000000004,6.151655
5.9697385,-3.1643922000000004,6.151655
5.9697385,-3.1643922000000004,6.151655
4.7441945,-1.948423,6.649532300000001
4.7441945,-1.948423,6.649532300000001
4.7441945,-1.948423,6.649532300000001
4.7441945,-1.948423,6.649532300000001
3.5760984,-0.6271336999999999,6.8410234
3.5760984,-0.6271336999999999,6.8410234
3.5760984,-0.6271336999999999,6.8410234
3.5760984,-0.6271336999999999,6.8410234
2.714388,1.3452256999999999,6.850598
2.714388,1.3452256999999999,6.850598
2.714388,1.3452256999999999,6.850598
2.714388,1.3452256999999999,6.850598
2.4845984,3.0303482999999996,7.243155000000001
2.4845984,3.0303482999999996,7.243155000000001
2.4845984,3.0303482999999996,7.243155000000001
2.4845984,3.0303482999999996,7.243155000000001
2.1590632999999997,3.8729098,7.0612383
2.1590632999999997,3.8729098,7.0612383
2.1590632999999997,3.8729098,7.0612383
2.1590632999999997,3.8729098,7.0612383
2.2835326,5.1654754,7.520817299999999
2.2835326,5.1654754,7.520817299999999
2.2835326,5.1654754,7.520817299999999
2.2835326,5.1654754,7.520817299999999
2.149489,5.462287,7.243155000000001
2.149489,5.462287,7.243155000000001
2.149489,5.462287,7.243155000000001
2.149489,5.462287,7.243155000000001
2.0824668,4.916537,7.1091112999999995
2.0824668,4.916537,7.1091112999999995
2.0824668,4.916537,7.1091112999999995
2.0824668,4.916537,7.1091112999999995
3.2888615,0.6750065,8.889978999999999
3.2888615,0.6750065,8.889978999999999
3.2888615,0.6750065,8.889978999999999
3.2888615,0.6750065,8.889978999999999
3.1835412999999995,0.61755913,8.947427000000001
3.1835412999999995,0.61755913,8.947427000000001
3.1835412999999995,0.61755913,8.947427000000001
3.3271596,0.48351530000000004,9.062322
3.3271596,0.48351530000000004,9.062322
3.3271596,0.48351530000000004,9.062322
3.3271596,0.48351530000000004,9.062322
3.4037561000000003,0.59841,9.234664
3.4037561000000003,0.59841,9.234664
3.4037561000000003,0.59841,9.234664
3.4037561000000003,0.59841,9.234664
3.3941817000000003,0.37819514,9.138917999999999
3.3941817000000003,0.37819514,9.138917999999999
3.3941817000000003,0.37819514,9.138917999999999
3.3941817000000003,0.37819514,9.138917999999999
3.3080106,0.359046,9.062322
3.3080106,0.359046,9.062322
3.3080106,0.359046,9.062322
3.3080106,0.359046,9.062322
3.3941817000000003,0.34947145,9.014449
3.3941817000000003,0.34947145,9.014449
3.3941817000000003,0.34947145,9.014449
3.3941817000000003,0.34947145,9.014449
3.384607,0.3877697,8.976150500000001
3.384607,0.3877697,8.976150500000001
3.384607,0.3877697,8.976150500000001
3.3941817000000003,0.2441513,9.004874000000001
3.3941817000000003,0.2441513,9.004874000000001
3.3941817000000003,0.2441513,9.004874000000001
3.3941817000000003,0.2441513,9.004874000000001
3.3558834,0.2441513,8.928278
3.3558834,0.2441513,8.928278
3.3558834,0.2441513,8.928278
3.3558834,0.2441513,8.928278
3.2792869,0.36862057,8.832532
3.2792869,0.36862057,8.832532
3.2792869,0.36862057,8.832532
3.2792869,0.36862057,8.832532
3.0973704,0.3398969,8.506997
3.0973704,0.3398969,8.506997
3.0973704,0.3398969,8.506997
3.0973704,0.3398969,8.506997
2.867581,0.40691882,8.334655
2.867581,0.40691882,8.334655
2.867581,0.40691882,8.334655
2.867581,0.40691882,8.334655
2.972901,0.48351530000000004,8.602742
2.972901,0.48351530000000004,8.602742
2.972901,0.48351530000000004,8.602742
2.972901,0.48351530000000004,8.602742
2.714388,0.8090504,8.018694
2.714388,0.8090504,8.018694
2.714388,0.8090504,8.018694
2.4558747000000003,0.8090504,7.386773599999999
2.4558747000000003,0.8090504,7.386773599999999
2.4558747000000003,0.8090504,7.386773599999999
2.4558747000000003,0.8090504,7.386773599999999
2.4558747000000003,0.8090504,7.386773599999999
3.1069447999999995,0.512239,7.855927
3.1069447999999995,0.512239,7.855927
3.1069447999999995,0.512239,7.855927
3.1069447999999995,0.512239,7.855927
3.9399316,0.6558574,7.741032000000001
3.9399316,0.6558574,7.741032000000001
3.9399316,0.6558574,7.741032000000001
3.9399316,0.6558574,7.741032000000001
5.1654754,-0.081383765,6.831449
5.1654754,-0.081383765,6.831449
5.1654754,-0.081383765,6.831449
5.1654754,-0.081383765,6.831449
6.9654926999999995,-2.5803439999999997,6.180379
6.9654926999999995,-2.5803439999999997,6.180379
6.9654926999999995,-2.5803439999999997,6.180379
6.9654926999999995,-2.5803439999999997,6.180379
8.277207,-3.5665237999999997,6.0750585
8.277207,-3.5665237999999997,6.0750585
8.277207,-3.5665237999999997,6.0750585
8.277207,-3.5665237999999997,6.0750585
8.487848,-2.8388572,5.38569
8.487848,-2.8388572,5.38569
8.487848,-2.8388572,5.38569
8.487848,-2.8388572,5.38569
9.110194,-3.5569491,3.9590807
9.110194,-3.5569491,3.9590807
9.110194,-3.5569491,3.9590807
9.110194,-3.5569491,3.9590807
10.125097,-4.1122737,2.9441773999999996
10.125097,-4.1122737,2.9441773999999996
10.125097,-4.1122737,2.9441773999999996
10.814466,-3.9878044000000004,2.2931072999999995
10.814466,-3.9878044000000004,2.2931072999999995
10.814466,-3.9878044000000004,2.2931072999999995
10.814466,-3.9878044000000004,2.2931072999999995
11.072979,-3.1835412999999995,1.862252
11.072979,-3.1835412999999995,1.862252
11.072979,-3.1835412999999995,1.862252
11.072979,-3.1835412999999995,1.862252
11.072979,-3.1835412999999995,1.862252
10.757019,-3.7005677,1.2303311000000001
10.757019,-3.7005677,1.2303311000000001
10.757019,-3.7005677,1.2303311000000001
10.527229,-4.648448999999999,-0.25372586
10.527229,-4.648448999999999,-0.25372586
10.527229,-4.648448999999999,-0.25372586
10.527229,-4.648448999999999,-0.25372586
10.527229,-4.648448999999999,-0.25372586
10.335738000000001,-3.7963133,-0.54096264
10.335738000000001,-3.7963133,-0.54096264
10.335738000000001,-3.7963133,-0.54096264
10.335738000000001,-3.7963133,-0.54096264
9.799562,-2.2452345,-0.7228793
9.799562,-2.2452345,-0.7228793
9.799562,-2.2452345,-0.7228793
9.339984,-1.3739493999999999,-0.5218136
9.339984,-1.3739493999999999,-0.5218136
9.339984,-1.3739493999999999,-0.5218136
9.339984,-1.3739493999999999,-0.5218136
10.077225,-2.1973617,-0.93351966
10.077225,-2.1973617,-0.93351966
10.077225,-2.1973617,-0.93351966
10.077225,-2.1973617,-0.93351966
10.077225,-2.1973617,-0.93351966
10.536804,-2.1973617,-0.32074776
10.536804,-2.1973617,-0.32074776
10.536804,-2.1973617,-0.32074776
10.536804,-2.1973617,-0.32074776
10.105948,-1.5654407,0.5313880999999999
10.105948,-1.5654407,0.5313880999999999
10.105948,-1.5654407,0.5313880999999999
10.000628,-1.5462915000000002,-0.6079846
10.000628,-1.5462915000000002,-0.6079846
10.000628,-1.5462915000000002,-0.6079846
10.000628,-1.5462915000000002,-0.6079846
10.000628,-1.5462915000000002,-0.6079846
9.924032,-0.90479594,-0.9430941999999999
9.924032,-0.90479594,-0.9430941999999999
9.924032,-0.90479594,-0.9430941999999999
9.924032,-0.90479594,-0.9430941999999999
10.010203,-0.85692316,-0.98139244
10.010203,-0.85692316,-0.98139244
10.010203,-0.85692316,-0.98139244
9.809137,-0.78990126,-0.78990126
9.809137,-0.78990126,-0.78990126
9.809137,-0.78990126,-0.78990126
9.809137,-0.78990126,-0.78990126
9.809137,-0.78990126,-0.78990126
9.98148,-0.90479594,-0.512239
9.98148,-0.90479594,-0.512239
9.98148,-0.90479594,-0.512239
9.98148,-0.90479594,-0.512239
10.211267999999999,-0.92394507,-0.59841
10.211267999999999,-0.92394507,-0.59841
10.211267999999999,-0.92394507,-0.59841
10.211267999999999,-0.92394507,-0.59841
10.048501,-0.5505372,-0.54096264
10.048501,-0.5505372,-0.54096264
10.048501,-0.5505372,-0.54096264
10.048501,-0.5505372,-0.54096264
10.000628,-0.56968635,-0.43564250000000004
10.000628,-0.56968635,-0.43564250000000004
10.000628,-0.56968635,-0.43564250000000004
10.000628,-0.56968635,-0.43564250000000004
10.048501,-0.76117754,-0.33032233
10.048501,-0.76117754,-0.33032233
10.048501,-0.76117754,-0.33032233
10.048501,-0.76117754,-0.33032233
10.0868,-0.85692316,-0.14840569
10.0868,-0.85692316,-0.14840569
10.0868,-0.85692316,-0.14840569
10.0868,-0.85692316,-0.14840569
10.048501,-0.98139244,-0.023936402000000002
10.048501,-0.98139244,-0.023936402000000002
10.048501,-0.98139244,-0.023936402000000002
10.048501,-0.98139244,-0.023936402000000002
9.924032,-1.0388398,-0.20585304
9.924032,-1.0388398,-0.20585304
9.924032,-1.0388398,-0.20585304
9.924032,-1.0388398,-0.20585304
10.144247,-1.1728836,-0.30159867
10.144247,-1.1728836,-0.30159867
10.144247,-1.1728836,-0.30159867
10.144247,-1.1728836,-0.30159867
9.96233,-0.98139244,0.4164934
9.96233,-0.98139244,0.4164934
9.96233,-0.98139244,0.4164934
9.96233,-0.98139244,0.4164934
9.722966,-1.4792696,0.15798025
9.722966,-1.4792696,0.15798025
9.722966,-1.4792696,0.15798025
9.722966,-1.4792696,0.15798025
9.818711,-1.2016073,-0.32074776
9.818711,-1.2016073,-0.32074776
9.818711,-1.2016073,-0.32074776
9.818711,-1.2016073,-0.32074776
10.249566999999999,-1.2303311000000001,-0.37819514
10.249566999999999,-1.2303311000000001,-0.37819514
10.249566999999999,-1.2303311000000001,-0.37819514
10.249566999999999,-1.2303311000000001,-0.37819514
9.675094,-1.5271424,-0.12925656
9.675094,-1.5271424,-0.12925656
9.675094,-1.5271424,-0.12925656
9.675094,-1.5271424,-0.12925656
9.847435,-1.4505458999999998,-0.2154276
9.847435,-1.4505458999999998,-0.2154276
9.847435,-1.4505458999999998,-0.2154276
9.847435,-1.4505458999999998,-0.2154276
10.144247,-1.4888442,-0.56968635
10.144247,-1.4888442,-0.56968635
10.144247,-1.4888442,-0.56968635
10.144247,-1.4888442,-0.56968635
9.924032,-1.4218222,-0.5505372
9.924032,-1.4218222,-0.5505372
9.924032,-1.4218222,-0.5505372
9.924032,-1.4218222,-0.5505372
9.866585,-0.8473485999999999,-0.42606795
9.866585,-0.8473485999999999,-0.42606795
9.866585,-0.8473485999999999,-0.42606795
9.866585,-0.8473485999999999,-0.42606795
10.0868,-0.8186249,-0.64628285
10.0868,-0.8186249,-0.64628285
10.0868,-0.8186249,-0.64628285
10.0868,-0.8186249,-0.64628285
9.847435,-1.0388398,-0.5505372
9.847435,-1.0388398,-0.5505372
9.847435,-1.0388398,-0.5505372
9.847435,-1.0388398,-0.5505372
9.837861,-1.3260766000000002,-0.44521707
9.837861,-1.3260766000000002,-0.44521707
9.837861,-1.3260766000000002,-0.44521707
9.837861,-1.3260766000000002,-0.44521707
10.153821,-1.3260766000000002,-0.5218136
10.153821,-1.3260766000000002,-0.5218136
10.153821,-1.3260766000000002,-0.5218136
10.153821,-1.3260766000000002,-0.5218136
10.153821,-1.3260766000000002,-0.5218136
9.75169,-1.2207563999999997,-0.5218136
9.75169,-1.2207563999999997,-0.5218136
9.75169,-1.2207563999999997,-0.5218136
9.742115,-1.2590546999999999,-0.7324539000000001
9.742115,-1.2590546999999999,-0.7324539000000001
9.742115,-1.2590546999999999,-0.7324539000000001
9.742115,-1.2590546999999999,-0.7324539000000001
9.971905,-1.2494801000000002,-0.71330476
9.971905,-1.2494801000000002,-0.71330476
9.971905,-1.2494801000000002,-0.71330476
9.971905,-1.2494801000000002,-0.71330476
9.971905,-1.2494801000000002,-0.71330476
10.163396,-1.2782038,-0.54096264
10.163396,-1.2782038,-0.54096264
10.163396,-1.2782038,-0.54096264
10.125097,-1.383524,-0.359046
10.125097,-1.383524,-0.359046
10.125097,-1.383524,-0.359046
10.125097,-1.383524,-0.359046
9.933606,-1.2494801000000002,-0.2154276
9.933606,-1.2494801000000002,-0.2154276
9.933606,-1.2494801000000002,-0.2154276
9.933606,-1.2494801000000002,-0.2154276
9.933606,-1.2494801000000002,-0.2154276
10.000628,-1.2590546999999999,-0.44521707
10.000628,-1.2590546999999999,-0.44521707
10.000628,-1.2590546999999999,-0.44521707
10.000628,-1.2590546999999999,-0.44521707
9.952755999999999,-1.1633091,-0.56011176
9.952755999999999,-1.1633091,-0.56011176
9.952755999999999,-1.1633091,-0.56011176
9.742115,-1.0675635,-0.6845810999999999
9.742115,-1.0675635,-0.6845810999999999
9.742115,-1.0675635,-0.6845810999999999
9.742115,-1.0675635,-0.6845810999999999
9.742115,-1.0675635,-0.6845810999999999
9.98148,-0.99096704,-0.64628285
9.98148,-0.99096704,-0.64628285
9.98148,-0.99096704,-0.64628285
9.98148,-0.99096704,-0.64628285
10.038927000000001,-1.2686293,-0.5313880999999999
10.038927000000001,-1.2686293,-0.5313880999999999
10.038927000000001,-1.2686293,-0.5313880999999999
10.019777000000001,-1.3260766000000002,-0.3398969
10.019777000000001,-1.3260766000000002,-0.3398969
10.019777000000001,-1.3260766000000002,-0.3398969
10.019777000000001,-1.3260766000000002,-0.3398969
10.019777000000001,-1.3260766000000002,-0.3398969
9.924032,-1.4505458999999998,-0.40691882
9.924032,-1.4505458999999998,-0.40691882
9.924032,-1.4505458999999998,-0.40691882
9.924032,-1.4505458999999998,-0.40691882
10.058076,-1.3930986,-0.40691882
10.058076,-1.3930986,-0.40691882
10.058076,-1.3930986,-0.40691882
9.96233,-1.3356511999999998,-0.48351530000000004
9.96233,-1.3356511999999998,-0.48351530000000004
9.96233,-1.3356511999999998,-0.48351530000000004
9.96233,-1.3356511999999998,-0.48351530000000004
9.96233,-1.3356511999999998,-0.48351530000000004
9.885734,-1.1920328000000002,-0.56968635
9.885734,-1.1920328000000002,-0.56968635
9.885734,-1.1920328000000002,-0.56968635
9.885734,-1.1920328000000002,-0.56968635
9.847435,-1.14416,-0.56011176
9.847435,-1.14416,-0.56011176
9.847435,-1.14416,-0.56011176
9.847435,-1.14416,-0.56011176
9.914457,-1.1824582000000001,-0.47394073
9.914457,-1.1824582000000001,-0.47394073
9.914457,-1.1824582000000001,-0.47394073
9.914457,-1.1824582000000001,-0.47394073
9.847435,-1.1537346000000002,-0.18670394
9.847435,-1.1537346000000002,-0.18670394
9.847435,-1.1537346000000002,-0.18670394
9.847435,-1.1537346000000002,-0.18670394
9.8953085,-1.2973529,-0.2441513
9.8953085,-1.2973529,-0.2441513
9.8953085,-1.2973529,-0.2441513
9.8953085,-1.2973529,-0.2441513
9.952755999999999,-1.2399056,-0.36862057
9.952755999999999,-1.2399056,-0.36862057
9.952755999999999,-1.2399056,-0.36862057
9.952755999999999,-1.2399056,-0.36862057
10.019777000000001,-1.1824582000000001,-0.42606795
10.019777000000001,-1.1824582000000001,-0.42606795
10.019777000000001,-1.1824582000000001,-0.42606795
10.019777000000001,-1.1824582000000001,-0.42606795
9.952755999999999,-1.2207563999999997,-0.33032233
9.952755999999999,-1.2207563999999997,-0.33032233
9.952755999999999,-1.2207563999999997,-0.33032233
9.943181,-1.4505458999999998,-0.34947145
9.943181,-1.4505458999999998,-0.34947145
9.943181,-1.4505458999999998,-0.34947145
9.943181,-1.4505458999999998,-0.34947145
9.943181,-1.4505458999999998,-0.34947145
10.010203,-1.5271424,-0.3111732
10.010203,-1.5271424,-0.3111732
10.010203,-1.5271424,-0.3111732
10.010203,-1.5271424,-0.3111732
10.000628,-1.6611862000000002,-0.2441513
10.000628,-1.6611862000000002,-0.2441513
10.000628,-1.6611862000000002,-0.2441513
9.914457,-1.4601203999999999,-0.2441513
9.914457,-1.4601203999999999,-0.2441513
9.914457,-1.4601203999999999,-0.2441513
9.914457,-1.4601203999999999,-0.2441513
9.914457,-1.4601203999999999,-0.2441513
9.8953085,-1.3260766000000002,-0.4164934
9.8953085,-1.3260766000000002,-0.4164934
9.8953085,-1.3260766000000002,-0.4164934
9.8953085,-1.3260766000000002,-0.4164934
9.828286,-1.2590546999999999,-0.42606795
9.828286,-1.2590546999999999,-0.42606795
9.828286,-1.2590546999999999,-0.42606795
9.828286,-1.2590546999999999,-0.42606795
9.924032,-1.2686293,-0.34947145
9.924032,-1.2686293,-0.34947145
9.924032,-1.2686293,-0.34947145
9.924032,-1.2686293,-0.34947145
9.96233,-1.4409714,-0.32074776
9.96233,-1.4409714,-0.32074776
9.96233,-1.4409714,-0.32074776
9.96233,-1.4409714,-0.32074776
9.96233,-1.6037389,-0.15798025
9.96233,-1.6037389,-0.15798025
9.96233,-1.6037389,-0.15798025
9.96233,-1.6037389,-0.15798025
10.010203,-1.6899098999999997,-0.043085523
10.010203,-1.6899098999999997,-0.043085523
10.010203,-1.6899098999999997,-0.043085523
10.010203,-1.6899098999999997,-0.043085523
9.904882,-1.5845897,-0.12925656
9.904882,-1.5845897,-0.12925656
9.904882,-1.5845897,-0.12925656
9.904882,-1.5845897,-0.12925656
9.876159,-1.3643749,-0.36862057
9.876159,-1.3643749,-0.36862057
9.876159,-1.3643749,-0.36862057
9.876159,-1.3643749,-0.36862057
9.8953085,-1.2590546999999999,-0.512239
9.8953085,-1.2590546999999999,-0.512239
9.8953085,-1.2590546999999999,-0.512239
9.75169,-1.469695,-0.42606795
9.75169,-1.469695,-0.42606795
9.75169,-1.469695,-0.42606795
9.75169,-1.469695,-0.42606795
9.75169,-1.469695,-0.42606795
9.502751,-1.7856555,-0.32074776
9.502751,-1.7856555,-0.32074776
9.502751,-1.7856555,-0.32074776
9.675094,-1.9579976000000003,-0.46436617
9.675094,-1.9579976000000003,-0.46436617
9.675094,-1.9579976000000003,-0.46436617
9.675094,-1.9579976000000003,-0.46436617
10.651698,-2.015445,-0.6750065
10.651698,-2.015445,-0.6750065
10.651698,-2.015445,-0.6750065
10.651698,-2.015445,-0.6750065
10.651698,-2.015445,-0.6750065
9.96233,-1.9867213,-0.5792609000000001
9.96233,-1.9867213,-0.5792609000000001
9.96233,-1.9867213,-0.5792609000000001
9.253813000000001,-2.015445,-0.665432
9.253813000000001,-2.015445,-0.665432
9.253813000000001,-2.015445,-0.665432
9.253813000000001,-2.015445,-0.665432
9.426155,-2.0250196,-0.6750065
9.426155,-2.0250196,-0.6750065
9.426155,-2.0250196,-0.6750065
9.426155,-2.0250196,-0.6750065
9.96233,-2.1973617,-0.6750065
9.96233,-2.1973617,-0.6750065
9.96233,-2.1973617,-0.6750065
9.96233,-2.1973617,-0.6750065
9.96233,-2.1973617,-0.6750065
9.98148,-2.034594,-0.7994758000000001
9.98148,-2.034594,-0.7994758000000001
9.98148,-2.034594,-0.7994758000000001
9.655944,-0.5792609000000001,-0.359046
9.655944,-0.5792609000000001,-0.359046
9.655944,-0.5792609000000001,-0.359046
9.655944,-0.5792609000000001,-0.359046
10.71872,0.00478728,-0.665432
10.71872,0.00478728,-0.665432
10.71872,0.00478728,-0.665432
10.71872,0.00478728,-0.665432
10.71872,0.00478728,-0.665432
10.498505999999999,-0.85692316,-1.0962871
10.498505999999999,-0.85692316,-1.0962871
10.498505999999999,-0.85692316,-1.0962871
10.833615,-1.1728836,-0.6750065
10.833615,-1.1728836,-0.6750065
10.833615,-1.1728836,-0.6750065
10.833615,-1.1728836,-0.6750065
10.833615,-1.1728836,-0.6750065
10.239991999999999,-0.6845810999999999,0.61755913
10.239991999999999,-0.6845810999999999,0.61755913
10.239991999999999,-0.6845810999999999,0.61755913
8.018694,-0.6558574,0.512239
8.018694,-0.6558574,0.512239
8.018694,-0.6558574,0.512239
8.018694,-0.6558574,0.512239
7.0612383,-0.70373017,0.3111732
7.0612383,-0.70373017,0.3111732
7.0612383,-0.70373017,0.3111732
7.0612383,-0.70373017,0.3111732
7.482519,-1.1345854,0.56011176
