accx,accy,accz
-3.2409887000000004,1.9196993000000002,9.225089
-3.2409887000000004,1.9196993000000002,9.225089
-3.3941817000000003,1.9771467,8.698488000000001
-3.3941817000000003,1.9771467,8.698488000000001
-3.3941817000000003,1.9771467,8.698488000000001
-3.3941817000000003,1.9771467,8.698488000000001
-3.6239712,2.0633178,8.200611
-3.6239712,2.0633178,8.200611
-3.6239712,2.0633178,8.200611
-3.6239712,2.0633178,8.200611
-3.844186,1.7473572,6.850598
-3.844186,1.7473572,6.850598
-3.844186,1.7473572,6.850598
-4.131423000000001,0.665432,5.452712
-4.131423000000001,0.665432,5.452712
-4.131423000000001,0.665432,5.452712
-4.131423000000001,0.665432,5.452712
-4.9069624,-0.8281995000000001,5.950589
-4.9069624,-0.8281995000000001,5.950589
-4.9069624,-0.8281995000000001,5.950589
-4.9069624,-0.8281995000000001,5.950589
-4.9069624,-0.8281995000000001,5.950589
-5.309094,-1.8909756999999998,4.954835
-5.309094,-1.8909756999999998,4.954835
-5.309094,-1.8909756999999998,4.954835
-5.309094,-1.8909756999999998,4.954835
-6.094208,-4.0644007,4.9835587
-6.094208,-4.0644007,4.9835587
-6.094208,-4.0644007,4.9835587
-8.708063000000001,-4.96441,4.2080193
-8.708063000000001,-4.96441,4.2080193
-8.708063000000001,-4.96441,4.2080193
-8.708063000000001,-4.96441,4.2080193
-10.833615,-4.763344,2.6090677
-10.833615,-4.763344,2.6090677
-10.833615,-4.763344,2.6090677
-10.833615,-4.763344,2.6090677
-10.938935,-5.5101595,-0.20585304
-10.938935,-5.5101595,-0.20585304
-10.938935,-5.5101595,-0.20585304
-10.938935,-5.5101595,-0.20585304
-10.594251,-6.438892,-1.1154363
-10.594251,-6.438892,-1.1154363
-10.594251,-6.438892,-1.1154363
-10.594251,-6.438892,-1.1154363
-10.594251,-6.438892,-1.1154363
-9.091045,-4.1888704,-0.40691882
-9.091045,-4.1888704,-0.40691882
-9.091045,-4.1888704,-0.40691882
-9.244238000000001,-3.5952474999999997,-1.0675635
-9.244238000000001,-3.5952474999999997,-1.0675635
-9.244238000000001,-3.5952474999999997,-1.0675635
-9.244238000000001,-3.5952474999999997,-1.0675635
-9.263388,-2.8197080000000003,-1.1633091
-9.263388,-2.8197080000000003,-1.1633091
-9.263388,-2.8197080000000003,-1.1633091
-9.263388,-2.8197080000000003,-1.1633091
-9.263388,-2.8197080000000003,-1.1633091
-9.129342999999999,-2.561195,-0.71330476
-9.129342999999999,-2.561195,-0.71330476
-9.129342999999999,-2.561195,-0.71330476
-9.062322,-3.2505634,-0.9718179
-9.062322,-3.2505634,-0.9718179
-9.062322,-3.2505634,-0.9718179
-9.062322,-3.2505634,-0.9718179
-9.244238000000001,-2.5803439999999997,-0.33032233
-9.244238000000001,-2.5803439999999997,-0.33032233
-9.244238000000001,-2.5803439999999997,-0.33032233
-9.244238000000001,-2.5803439999999997,-0.33032233
-9.445304,-1.7952299999999999,0.05266008
-9.445304,-1.7952299999999999,0.05266008
-9.445304,-1.7952299999999999,0.05266008
-9.445304,-1.7952299999999999,0.05266008
-9.445304,-1.7952299999999999,0.05266008
-9.320834,-1.9579976000000003,-0.6271336999999999
-9.320834,-1.9579976000000003,-0.6271336999999999
-9.320834,-1.9579976000000003,-0.6271336999999999
-9.18679,-2.0920415,-0.8473485999999999
-9.18679,-2.0920415,-0.8473485999999999
-9.18679,-2.0920415,-0.8473485999999999
-9.18679,-2.0920415,-0.8473485999999999
-9.100619,-2.2931072999999995,-0.5888355
-9.100619,-2.2931072999999995,-0.5888355
-9.100619,-2.2931072999999995,-0.5888355
-9.100619,-2.2931072999999995,-0.5888355
-9.2825365,-2.4750240000000003,-0.45479164
-9.2825365,-2.4750240000000003,-0.45479164
-9.2825365,-2.4750240000000003,-0.45479164
-9.2825365,-2.4750240000000003,-0.45479164
-9.272962,-2.3697037999999995,-0.43564250000000004
-9.272962,-2.3697037999999995,-0.43564250000000004
-9.272962,-2.3697037999999995,-0.43564250000000004
-9.272962,-2.3697037999999995,-0.43564250000000004
-9.263388,-2.1877869999999997,-0.54096264
-9.263388,-2.1877869999999997,-0.54096264
-9.263388,-2.1877869999999997,-0.54096264
-9.263388,-2.1877869999999997,-0.54096264
-9.20594,-2.2260852000000004,-0.6079846
-9.20594,-2.2260852000000004,-0.6079846
-9.20594,-2.2260852000000004,-0.6079846
-9.263388,-2.360129,-0.512239
-9.263388,-2.360129,-0.512239
-9.263388,-2.360129,-0.512239
-9.263388,-2.360129,-0.512239
-9.215514,-2.3984275,-0.5313880999999999
-9.215514,-2.3984275,-0.5313880999999999
-9.215514,-2.3984275,-0.5313880999999999
-9.215514,-2.3984275,-0.5313880999999999
-9.215514,-2.2931072999999995,-0.48351530000000004
-9.215514,-2.2931072999999995,-0.48351530000000004
-9.215514,-2.2931072999999995,-0.48351530000000004
-9.215514,-2.2931072999999995,-0.48351530000000004
-9.20594,-2.2452345,-0.43564250000000004
-9.20594,-2.2452345,-0.43564250000000004
-9.20594,-2.2452345,-0.43564250000000004
-9.20594,-2.2452345,-0.43564250000000004
-9.177217,-2.2739582,-0.56011176
-9.177217,-2.2739582,-0.56011176
-9.177217,-2.2739582,-0.56011176
-9.177217,-2.2739582,-0.56011176
-9.301685,-2.2260852000000004,-0.56968635
-9.301685,-2.2260852000000004,-0.56968635
-9.301685,-2.2260852000000004,-0.56968635
-9.301685,-2.2260852000000004,-0.56968635
-9.31126,-2.1590632999999997,-0.512239
-9.31126,-2.1590632999999997,-0.512239
-9.31126,-2.1590632999999997,-0.512239
-9.263388,-2.2260852000000004,-0.48351530000000004
-9.263388,-2.2260852000000004,-0.48351530000000004
-9.263388,-2.2260852000000004,-0.48351530000000004
-9.263388,-2.2260852000000004,-0.48351530000000004
-9.263388,-2.2260852000000004,-0.48351530000000004
-9.20594,-2.321831,-0.5218136
-9.20594,-2.321831,-0.5218136
-9.20594,-2.321831,-0.5218136
-9.225089,-2.34098,-0.5505372
-9.225089,-2.34098,-0.5505372
-9.225089,-2.34098,-0.5505372
-9.225089,-2.34098,-0.5505372
-9.215514,-2.2643836,-0.5218136
-9.215514,-2.2643836,-0.5218136
-9.215514,-2.2643836,-0.5218136
-9.215514,-2.2643836,-0.5218136
-9.234664,-2.1877869999999997,-0.49308985
-9.234664,-2.1877869999999997,-0.49308985
-9.234664,-2.1877869999999997,-0.49308985
-9.234664,-2.1877869999999997,-0.49308985
-9.225089,-2.1973617,-0.512239
-9.225089,-2.1973617,-0.512239
-9.225089,-2.1973617,-0.512239
-9.225089,-2.1973617,-0.512239
-9.292110000000001,-2.2835326,-0.5313880999999999
-9.292110000000001,-2.2835326,-0.5313880999999999
-9.292110000000001,-2.2835326,-0.5313880999999999
-9.292110000000001,-2.2835326,-0.5313880999999999
-9.263388,-2.2356597999999996,-0.50266445
-9.263388,-2.2356597999999996,-0.50266445
-9.263388,-2.2356597999999996,-0.50266445
-9.263388,-2.2356597999999996,-0.50266445
-9.244238000000001,-2.1782124,-0.54096264
-9.244238000000001,-2.1782124,-0.54096264
-9.244238000000001,-2.1782124,-0.54096264
-9.263388,-2.2165107999999996,-0.59841
-9.263388,-2.2165107999999996,-0.59841
-9.263388,-2.2165107999999996,-0.59841
-9.263388,-2.2165107999999996,-0.59841
-9.301685,-2.1782124,-0.5505372
-9.301685,-2.1782124,-0.5505372
-9.301685,-2.1782124,-0.5505372
-9.301685,-2.1782124,-0.5505372
-9.215514,-2.1590632999999997,-0.48351530000000004
-9.215514,-2.1590632999999997,-0.48351530000000004
-9.215514,-2.1590632999999997,-0.48351530000000004
-9.215514,-2.1590632999999997,-0.48351530000000004
-9.272962,-2.149489,-0.5313880999999999
-9.272962,-2.149489,-0.5313880999999999
-9.272962,-2.149489,-0.5313880999999999
-9.272962,-2.149489,-0.5313880999999999
-9.234664,-2.149489,-0.5792609000000001
-9.234664,-2.149489,-0.5792609000000001
-9.234664,-2.149489,-0.5792609000000001
-9.234664,-2.149489,-0.5792609000000001
-9.263388,-2.2356597999999996,-0.5313880999999999
-9.263388,-2.2356597999999996,-0.5313880999999999
-9.263388,-2.2356597999999996,-0.5313880999999999
-9.253813000000001,-2.2835326,-0.50266445
-9.253813000000001,-2.2835326,-0.50266445
-9.253813000000001,-2.2835326,-0.50266445
-9.253813000000001,-2.2835326,-0.50266445
-9.253813000000001,-2.2835326,-0.50266445
-9.225089,-2.168638,-0.5313880999999999
-9.225089,-2.168638,-0.5313880999999999
-9.225089,-2.168638,-0.5313880999999999
-9.263388,-2.1782124,-0.5313880999999999
-9.263388,-2.1782124,-0.5313880999999999
-9.263388,-2.1782124,-0.5313880999999999
-9.263388,-2.1782124,-0.5313880999999999
-9.244238000000001,-2.2643836,-0.49308985
-9.244238000000001,-2.2643836,-0.49308985
-9.244238000000001,-2.2643836,-0.49308985
-9.244238000000001,-2.2643836,-0.49308985
-9.253813000000001,-2.2931072999999995,-0.49308985
-9.253813000000001,-2.2931072999999995,-0.49308985
-9.253813000000001,-2.2931072999999995,-0.49308985
-9.253813000000001,-2.2931072999999995,-0.49308985
-9.2825365,-2.2165107999999996,-0.5218136
-9.2825365,-2.2165107999999996,-0.5218136
-9.2825365,-2.2165107999999996,-0.5218136
-9.2825365,-2.2165107999999996,-0.5218136
-9.234664,-2.254809,-0.54096264
-9.234664,-2.254809,-0.54096264
-9.234664,-2.254809,-0.54096264
-9.234664,-2.254809,-0.54096264
-9.225089,-2.2739582,-0.512239
-9.225089,-2.2739582,-0.512239
-9.225089,-2.2739582,-0.512239
-9.225089,-2.2739582,-0.512239
-9.253813000000001,-2.3697037999999995,-0.50266445
-9.253813000000001,-2.3697037999999995,-0.50266445
-9.253813000000001,-2.3697037999999995,-0.50266445
-9.225089,-2.2739582,-0.56011176
-9.225089,-2.2739582,-0.56011176
-9.225089,-2.2739582,-0.56011176
-9.225089,-2.2739582,-0.56011176
-9.225089,-2.2739582,-0.56011176
-9.2825365,-2.1973617,-0.49308985
-9.2825365,-2.1973617,-0.49308985
-9.2825365,-2.1973617,-0.49308985
-9.215514,-2.254809,-0.5505372
-9.215514,-2.254809,-0.5505372
-9.215514,-2.254809,-0.5505372
-9.215514,-2.254809,-0.5505372
-9.215514,-2.254809,-0.49308985
-9.215514,-2.254809,-0.49308985
-9.215514,-2.254809,-0.49308985
-9.215514,-2.254809,-0.49308985
-9.196365,-2.2931072999999995,-0.48351530000000004
-9.196365,-2.2931072999999995,-0.48351530000000004
-9.196365,-2.2931072999999995,-0.48351530000000004
-9.196365,-2.2931072999999995,-0.48351530000000004
-9.2825365,-2.2835326,-0.40691882
-9.2825365,-2.2835326,-0.40691882
-9.2825365,-2.2835326,-0.40691882
-9.2825365,-2.2835326,-0.40691882
-9.272962,-2.3026817000000004,-0.54096264
-9.272962,-2.3026817000000004,-0.54096264
-9.272962,-2.3026817000000004,-0.54096264
-9.253813000000001,-2.1877869999999997,-0.512239
-9.253813000000001,-2.1877869999999997,-0.512239
-9.253813000000001,-2.1877869999999997,-0.512239
-9.253813000000001,-2.1877869999999997,-0.512239
-9.215514,-2.1973617,-0.4164934
-9.215514,-2.1973617,-0.4164934
-9.215514,-2.1973617,-0.4164934
-9.215514,-2.1973617,-0.4164934
-9.272962,-2.3026817000000004,-0.45479164
-9.272962,-2.3026817000000004,-0.45479164
-9.272962,-2.3026817000000004,-0.45479164
-9.272962,-2.3026817000000004,-0.45479164
-9.292110000000001,-2.2739582,-0.5218136
-9.292110000000001,-2.2739582,-0.5218136
-9.292110000000001,-2.2739582,-0.5218136
-9.292110000000001,-2.2739582,-0.5218136
-9.253813000000001,-2.1303396,-0.4164934
-9.253813000000001,-2.1303396,-0.4164934
-9.253813000000001,-2.1303396,-0.4164934
-9.253813000000001,-2.1303396,-0.4164934
-9.234664,-2.1877869999999997,-0.47394073
-9.234664,-2.1877869999999997,-0.47394073
-9.234664,-2.1877869999999997,-0.47394073
-9.244238000000001,-2.1877869999999997,-0.48351530000000004
-9.244238000000001,-2.1877869999999997,-0.48351530000000004
-9.244238000000001,-2.1877869999999997,-0.48351530000000004
-9.244238000000001,-2.1877869999999997,-0.48351530000000004
-9.244238000000001,-2.1877869999999997,-0.48351530000000004
-9.253813000000001,-2.2069361,-0.44521707
-9.253813000000001,-2.2069361,-0.44521707
-9.253813000000001,-2.2069361,-0.44521707
-9.2825365,-2.2356597999999996,-0.48351530000000004
-9.2825365,-2.2356597999999996,-0.48351530000000004
-9.2825365,-2.2356597999999996,-0.48351530000000004
-9.2825365,-2.2356597999999996,-0.48351530000000004
-9.272962,-2.1973617,-0.42606795
-9.272962,-2.1973617,-0.42606795
-9.272962,-2.1973617,-0.42606795
-9.272962,-2.1973617,-0.42606795
-9.225089,-2.168638,-0.42606795
-9.225089,-2.168638,-0.42606795
-9.225089,-2.168638,-0.42606795
-9.225089,-2.168638,-0.42606795
-9.263388,-2.1590632999999997,-0.44521707
-9.263388,-2.1590632999999997,-0.44521707
-9.263388,-2.1590632999999997,-0.44521707
-9.263388,-2.1590632999999997,-0.44521707
-9.31126,-2.1207652,-0.32074776
-9.31126,-2.1207652,-0.32074776
-9.31126,-2.1207652,-0.32074776
-9.31126,-2.1207652,-0.32074776
-9.368708,-2.0058703,-0.18670394
-9.368708,-2.0058703,-0.18670394
-9.368708,-2.0058703,-0.18670394
-9.368708,-2.0058703,-0.18670394
-9.397431,-1.8909756999999998,-0.2441513
-9.397431,-1.8909756999999998,-0.2441513
-9.397431,-1.8909756999999998,-0.2441513
-9.253813000000001,-1.9292740000000002,-0.2441513
-9.253813000000001,-1.9292740000000002,-0.2441513
-9.253813000000001,-1.9292740000000002,-0.2441513
-9.253813000000001,-1.9292740000000002,-0.2441513
-9.033598,-2.2260852000000004,-0.30159867
-9.033598,-2.2260852000000004,-0.30159867
-9.033598,-2.2260852000000004,-0.30159867
-9.033598,-2.2260852000000004,-0.30159867
-8.34423,-2.2165107999999996,-0.43564250000000004
-8.34423,-2.2165107999999996,-0.43564250000000004
-8.34423,-2.2165107999999996,-0.43564250000000004
-8.34423,-2.2165107999999996,-0.43564250000000004
-8.842107,-2.2452345,-0.91437054
-8.842107,-2.2452345,-0.91437054
-8.842107,-2.2452345,-0.91437054
-8.842107,-2.2452345,-0.91437054
-10.163396,-1.7856555,-1.6324625
-10.163396,-1.7856555,-1.6324625
-10.163396,-1.7856555,-1.6324625
-10.163396,-1.7856555,-1.6324625
-10.172971,-2.0250196,-1.7473572
-10.172971,-2.0250196,-1.7473572
-10.172971,-2.0250196,-1.7473572
-10.172971,-2.0250196,-1.7473572
-10.000628,-2.0633178,-1.6420371999999999
-10.000628,-2.0633178,-1.6420371999999999
-10.000628,-2.0633178,-1.6420371999999999
-10.000628,-2.0633178,-1.6420371999999999
-9.033598,-2.101616,-1.4409714
-9.033598,-2.101616,-1.4409714
-9.033598,-2.101616,-1.4409714
-9.033598,-2.101616,-1.4409714
-7.4920936000000005,-2.1973617,-1.2207563999999997
-7.4920936000000005,-2.1973617,-1.2207563999999997
-7.4920936000000005,-2.1973617,-1.2207563999999997
-7.4920936000000005,-2.1973617,-1.2207563999999997
-5.653778,-2.2165107999999996,-0.6271336999999999
-5.653778,-2.2165107999999996,-0.6271336999999999
-5.653778,-2.2165107999999996,-0.6271336999999999
-5.653778,-2.2165107999999996,-0.6271336999999999
-5.883567299999999,-2.1207652,-0.49308985
-5.883567299999999,-2.1207652,-0.49308985
-5.883567299999999,-2.1207652,-0.49308985
-5.883567299999999,-2.1207652,-0.49308985
-6.3527207,-2.5899186000000003,-0.751603
-6.3527207,-2.5899186000000003,-0.751603
-6.3527207,-2.5899186000000003,-0.751603
-12.011286,-3.451629,-1.2207563999999997
-12.011286,-3.451629,-1.2207563999999997
-12.011286,-3.451629,-1.2207563999999997
-12.011286,-3.451629,-1.2207563999999997
-12.011286,-3.451629,-1.2207563999999997
-15.247487,-4.466532,-0.5792609000000001
-15.247487,-4.466532,-0.5792609000000001
-15.247487,-4.466532,-0.5792609000000001
-14.941101999999999,-2.6090677,-1.2590546999999999
-14.941101999999999,-2.6090677,-1.2590546999999999
-14.941101999999999,-2.6090677,-1.2590546999999999
-14.941101999999999,-2.6090677,-1.2590546999999999
-12.805975,-0.014361841,-2.2931072999999995
-12.805975,-0.014361841,-2.2931072999999995
-12.805975,-0.014361841,-2.2931072999999995
-12.805975,-0.014361841,-2.2931072999999995
-9.138917999999999,-1.2207563999999997,-1.2877783999999999
-9.138917999999999,-1.2207563999999997,-1.2877783999999999
-9.138917999999999,-1.2207563999999997,-1.2877783999999999
-9.138917999999999,-1.2207563999999997,-1.2877783999999999
-8.889978999999999,-0.83777404,-1.8718264999999998
-8.889978999999999,-0.83777404,-1.8718264999999998
-8.889978999999999,-0.83777404,-1.8718264999999998
-8.889978999999999,-0.83777404,-1.8718264999999998
-6.9559183,-0.062234644000000006,-1.4984187
-6.9559183,-0.062234644000000006,-1.4984187
-6.9559183,-0.062234644000000006,-1.4984187
-6.9559183,-0.062234644000000006,-1.4984187
-4.8303657,-0.48351530000000004,-0.71330476
-4.8303657,-0.48351530000000004,-0.71330476
-4.8303657,-0.48351530000000004,-0.71330476
-4.8303657,-0.48351530000000004,-0.71330476
-7.291027499999999,-1.2303311000000001,-0.9430941999999999
-7.291027499999999,-1.2303311000000001,-0.9430941999999999
-7.291027499999999,-1.2303311000000001,-0.9430941999999999
-7.291027499999999,-1.2303311000000001,-0.9430941999999999
-12.882571,-2.561195,-1.3452256999999999
-12.882571,-2.561195,-1.3452256999999999
-12.882571,-2.561195,-1.3452256999999999
-12.882571,-2.561195,-1.3452256999999999
-15.783663,-2.7431116,-2.321831
-15.783663,-2.7431116,-2.321831
-15.783663,-2.7431116,-2.321831
-15.783663,-2.7431116,-2.321831
-10.881488000000001,-3.0207740000000003,-1.6611862000000002
-10.881488000000001,-3.0207740000000003,-1.6611862000000002
-10.881488000000001,-3.0207740000000003,-1.6611862000000002
-10.881488000000001,-3.0207740000000003,-1.6611862000000002
-9.2825365,-3.212265,-0.56011176
-9.2825365,-3.212265,-0.56011176
-9.2825365,-3.212265,-0.56011176
-9.2825365,-3.212265,-0.56011176
-8.200611,-3.5760984,-0.6271336999999999
-8.200611,-3.5760984,-0.6271336999999999
-8.200611,-3.5760984,-0.6271336999999999
-8.200611,-3.5760984,-0.6271336999999999
-6.113357,-3.4707782,-0.0718092
-6.113357,-3.4707782,-0.0718092
-6.113357,-3.4707782,-0.0718092
-6.113357,-3.4707782,-0.0718092
-7.2623043,-3.2218397000000003,-0.15798025
-7.2623043,-3.2218397000000003,-0.15798025
-7.2623043,-3.2218397000000003,-0.15798025
-7.2623043,-3.2218397000000003,-0.15798025
-9.071896,-4.0261025,-0.3398969
-9.071896,-4.0261025,-0.3398969
-9.071896,-4.0261025,-0.3398969
-9.071896,-4.0261025,-0.3398969
-12.633633,-5.098453500000001,-0.36862057
-12.633633,-5.098453500000001,-0.36862057
-12.633633,-5.098453500000001,-0.36862057
-12.633633,-5.098453500000001,-0.36862057
-17.669851,-4.7250457,-1.5558661
-17.669851,-4.7250457,-1.5558661
-17.669851,-4.7250457,-1.5558661
-17.669851,-4.7250457,-1.5558661
-13.753855999999999,-4.0261025,-0.043085523
-13.753855999999999,-4.0261025,-0.043085523
-13.753855999999999,-4.0261025,-0.043085523
-13.753855999999999,-4.0261025,-0.043085523
-10.584677000000001,-3.4324798999999997,-1.6324625
-10.584677000000001,-3.4324798999999997,-1.6324625
-10.584677000000001,-3.4324798999999997,-1.6324625
-10.584677000000001,-3.4324798999999997,-1.6324625
-5.778247400000001,-1.7952299999999999,-0.47394073
-5.778247400000001,-1.7952299999999999,-0.47394073
-5.778247400000001,-1.7952299999999999,-0.47394073
-5.778247400000001,-1.7952299999999999,-0.47394073
-4.0739756,-0.6845810999999999,-0.00478728
-4.0739756,-0.6845810999999999,-0.00478728
-4.0739756,-0.6845810999999999,-0.00478728
-4.0739756,-0.6845810999999999,-0.00478728
-6.103782,-1.7377827000000001,-0.7324539000000001
-6.103782,-1.7377827000000001,-0.7324539000000001
-6.103782,-1.7377827000000001,-0.7324539000000001
-6.103782,-1.7377827000000001,-0.7324539000000001
-11.858092999999998,-1.1345854,-3.0686467
-11.858092999999998,-1.1345854,-3.0686467
-11.858092999999998,-1.1345854,-3.0686467
-11.858092999999998,-1.1345854,-3.0686467
-14.500670999999999,-1.6994845,-3.193116
-14.500670999999999,-1.6994845,-3.193116
-14.500670999999999,-1.6994845,-3.193116
-14.500670999999999,-1.6994845,-3.193116
-15.151742,-2.9346027,-2.4845984
-15.151742,-2.9346027,-2.4845984
-15.151742,-2.9346027,-2.4845984
-15.151742,-2.9346027,-2.4845984
-12.729378,-3.3750327000000007,-1.5558661
-12.729378,-3.3750327000000007,-1.5558661
-12.729378,-3.3750327000000007,-1.5558661
-12.729378,-3.3750327000000007,-1.5558661
-9.904882,-3.7388659,-0.5313880999999999
-9.904882,-3.7388659,-0.5313880999999999
-9.904882,-3.7388659,-0.5313880999999999
-9.904882,-3.7388659,-0.5313880999999999
-7.8272033,-3.8633351,-0.61755913
-7.8272033,-3.8633351,-0.61755913
-7.8272033,-3.8633351,-0.61755913
-7.2623043,-2.733537,-0.30159867
-7.2623043,-2.733537,-0.30159867
-7.2623043,-2.733537,-0.30159867
-7.2623043,-2.733537,-0.30159867
-7.396348,-2.800559,-0.78990126
-7.396348,-2.800559,-0.78990126
-7.396348,-2.800559,-0.78990126
-7.396348,-2.800559,-0.78990126
-8.5740185,-4.3707867,-0.71330476
-8.5740185,-4.3707867,-0.71330476
-8.5740185,-4.3707867,-0.71330476
-8.5740185,-4.3707867,-0.71330476
-12.432567,-5.4335629999999995,-0.9622433000000001
-12.432567,-5.4335629999999995,-0.9622433000000001
-12.432567,-5.4335629999999995,-0.9622433000000001
-12.432567,-5.4335629999999995,-0.9622433000000001
-16.358137,-4.0644007,-0.47394073
-16.358137,-4.0644007,-0.47394073
-16.358137,-4.0644007,-0.47394073
-16.358137,-4.0644007,-0.47394073
-15.132593,-4.7920675,-0.23457673
-15.132593,-4.7920675,-0.23457673
-15.132593,-4.7920675,-0.23457673
-15.132593,-4.7920675,-0.23457673
-13.591088000000001,-2.5899186000000003,-1.4984187
-13.591088000000001,-2.5899186000000003,-1.4984187
-13.591088000000001,-2.5899186000000003,-1.4984187
-9.474028,-1.3930986,-0.30159867
-9.474028,-1.3930986,-0.30159867
-9.474028,-1.3930986,-0.30159867
-9.474028,-1.3930986,-0.30159867
-6.984642,-1.2207563999999997,0.15798025
-6.984642,-1.2207563999999997,0.15798025
-6.984642,-1.2207563999999997,0.15798025
-6.984642,-1.2207563999999997,0.15798025
-5.0601554,-0.91437054,0.081383765
-5.0601554,-0.91437054,0.081383765
-5.0601554,-0.91437054,0.081383765
-5.0601554,-0.91437054,0.081383765
-5.950589,-0.110107444,-0.20585304
-5.950589,-0.110107444,-0.20585304
-5.950589,-0.110107444,-0.20585304
-5.950589,-0.110107444,-0.20585304
-10.871913000000001,-1.6420371999999999,-1.9388485
-10.871913000000001,-1.6420371999999999,-1.9388485
-10.871913000000001,-1.6420371999999999,-1.9388485
-10.871913000000001,-1.6420371999999999,-1.9388485
-15.027272,-4.1122737,-1.7282081999999999
-15.027272,-4.1122737,-1.7282081999999999
-15.027272,-4.1122737,-1.7282081999999999
-15.027272,-4.1122737,-1.7282081999999999
-13.99322,-3.5665237999999997,-1.5941644
-13.99322,-3.5665237999999997,-1.5941644
-13.99322,-3.5665237999999997,-1.5941644
-12.614484,-4.3516379999999995,-1.6324625
-12.614484,-4.3516379999999995,-1.6324625
-12.614484,-4.3516379999999995,-1.6324625
-12.614484,-4.3516379999999995,-1.6324625
-12.614484,-4.3516379999999995,-1.6324625
-9.732541000000001,-4.916537,-1.7377827000000001
-9.732541000000001,-4.916537,-1.7377827000000001
-9.732541000000001,-4.916537,-1.7377827000000001
-7.9899707,-4.4856815,0.16755481
-7.9899707,-4.4856815,0.16755481
-7.9899707,-4.4856815,0.16755481
-7.9899707,-4.4856815,0.16755481
-7.329325999999999,-2.561195,0.15798025
-7.329325999999999,-2.561195,0.15798025
-7.329325999999999,-2.561195,0.15798025
-7.329325999999999,-2.561195,0.15798025
-7.2623043,-3.4612036,-0.014361841
-7.2623043,-3.4612036,-0.014361841
-7.2623043,-3.4612036,-0.014361841
-7.2623043,-3.4612036,-0.014361841
-10.527229,-5.7208,-0.09095833
-10.527229,-5.7208,-0.09095833
-10.527229,-5.7208,-0.09095833
-10.527229,-5.7208,-0.09095833
-15.017698000000001,-6.180379,-0.751603
-15.017698000000001,-6.180379,-0.751603
-15.017698000000001,-6.180379,-0.751603
-15.017698000000001,-6.180379,-0.751603
-18.052834,-5.1271772,-0.5218136
-18.052834,-5.1271772,-0.5218136
-18.052834,-5.1271772,-0.5218136
-15.008123000000001,-2.2069361,0.37819514
-15.008123000000001,-2.2069361,0.37819514
-15.008123000000001,-2.2069361,0.37819514
-15.008123000000001,-2.2069361,0.37819514
-9.550624000000001,-1.3548003,-0.64628285
-9.550624000000001,-1.3548003,-0.64628285
-9.550624000000001,-1.3548003,-0.64628285
-9.550624000000001,-1.3548003,-0.64628285
-6.4963393,-1.7186337,-1.0005416
-6.4963393,-1.7186337,-1.0005416
-6.4963393,-1.7186337,-1.0005416
-6.4963393,-1.7186337,-1.0005416
-6.7931504,-0.9622433000000001,0.00478728
-6.7931504,-0.9622433000000001,0.00478728
-6.7931504,-0.9622433000000001,0.00478728
-6.7931504,-0.9622433000000001,0.00478728
-7.568689999999999,-0.98139244,-1.4792696
-7.568689999999999,-0.98139244,-1.4792696
-7.568689999999999,-0.98139244,-1.4792696
-7.568689999999999,-0.98139244,-1.4792696
-9.320834,-1.6420371999999999,-0.9430941999999999
-9.320834,-1.6420371999999999,-0.9430941999999999
-9.320834,-1.6420371999999999,-0.9430941999999999
-9.320834,-1.6420371999999999,-0.9430941999999999
-12.059159,-2.7622607000000006,-0.22500217
-12.059159,-2.7622607000000006,-0.22500217
-12.059159,-2.7622607000000006,-0.22500217
-13.782579,-3.231414,-1.8239537000000001
-13.782579,-3.231414,-1.8239537000000001
-13.782579,-3.231414,-1.8239537000000001
-13.782579,-3.231414,-1.8239537000000001
-13.782579,-3.231414,-1.8239537000000001
-12.892146,-3.6622693999999996,-1.3452256999999999
-12.892146,-3.6622693999999996,-1.3452256999999999
-12.892146,-3.6622693999999996,-1.3452256999999999
-12.576185,-4.3612123,-0.54096264
-12.576185,-4.3612123,-0.54096264
-12.576185,-4.3612123,-0.54096264
-12.576185,-4.3612123,-0.54096264
-11.484685,-4.4473834000000005,-0.9526688
-11.484685,-4.4473834000000005,-0.9526688
-11.484685,-4.4473834000000005,-0.9526688
-11.484685,-4.4473834000000005,-0.9526688
-7.5399666,-3.4995019999999997,0.59841
-7.5399666,-3.4995019999999997,0.59841
-7.5399666,-3.4995019999999997,0.59841
-7.5399666,-3.4995019999999997,0.59841
-6.170804,-3.0686467,0.45479164
-6.170804,-3.0686467,0.45479164
-6.170804,-3.0686467,0.45479164
-6.170804,-3.0686467,0.45479164
-9.703816999999999,-5.538883,-1.3643749
-9.703816999999999,-5.538883,-1.3643749
-9.703816999999999,-5.538883,-1.3643749
-9.703816999999999,-5.538883,-1.3643749
-14.682589000000002,-6.8601727,-0.61755913
-14.682589000000002,-6.8601727,-0.61755913
-14.682589000000002,-6.8601727,-0.61755913
-14.682589000000002,-6.8601727,-0.61755913
-16.674097,-3.0111992,1.1633091
-16.674097,-3.0111992,1.1633091
-16.674097,-3.0111992,1.1633091
-15.601747,-3.8824842000000004,-0.6750065
-15.601747,-3.8824842000000004,-0.6750065
-15.601747,-3.8824842000000004,-0.6750065
-15.601747,-3.8824842000000004,-0.6750065
-11.379365,-2.4654493,-1.2016073
-11.379365,-2.4654493,-1.2016073
-11.379365,-2.4654493,-1.2016073
-11.379365,-2.4654493,-1.2016073
-8.976150500000001,-1.4409714,-0.44521707
-8.976150500000001,-1.4409714,-0.44521707
-8.976150500000001,-1.4409714,-0.44521707
-8.976150500000001,-1.4409714,-0.44521707
-6.9176197,-0.92394507,-0.5218136
-6.9176197,-0.92394507,-0.5218136
-6.9176197,-0.92394507,-0.5218136
-6.9176197,-0.92394507,-0.5218136
-6.936769,-0.46436617,-0.6079846
-6.936769,-0.46436617,-0.6079846
-6.936769,-0.46436617,-0.6079846
-6.936769,-0.46436617,-0.6079846
-6.0750585,-1.3069274,-0.6845810999999999
-6.0750585,-1.3069274,-0.6845810999999999
-6.0750585,-1.3069274,-0.6845810999999999
-6.0750585,-1.3069274,-0.6845810999999999
-8.794233,-2.4175766,-0.83777404
-8.794233,-2.4175766,-0.83777404
-8.794233,-2.4175766,-0.83777404
-12.145328999999998,-3.5090763999999997,-1.1728836
-12.145328999999998,-3.5090763999999997,-1.1728836
-12.145328999999998,-3.5090763999999997,-1.1728836
-12.145328999999998,-3.5090763999999997,-1.1728836
-15.879408999999999,-3.8058877,-2.4750240000000003
-15.879408999999999,-3.8058877,-2.4750240000000003
-15.879408999999999,-3.8058877,-2.4750240000000003
-15.879408999999999,-3.8058877,-2.4750240000000003
-11.800646,-2.9250283,-1.0196906
-11.800646,-2.9250283,-1.0196906
-11.800646,-2.9250283,-1.0196906
-11.800646,-2.9250283,-1.0196906
-9.952755999999999,-3.8920587999999996,-0.56011176
-9.952755999999999,-3.8920587999999996,-0.56011176
-9.952755999999999,-3.8920587999999996,-0.56011176
-9.952755999999999,-3.8920587999999996,-0.56011176
-8.248484,-5.031431700000001,-0.18670394
-8.248484,-5.031431700000001,-0.18670394
-8.248484,-5.031431700000001,-0.18670394
-8.248484,-5.031431700000001,-0.18670394
-10.383611,-4.0548263,-0.023936402000000002
-10.383611,-4.0548263,-0.023936402000000002
-10.383611,-4.0548263,-0.023936402000000002
-11.810221,-5.567607,-0.05266008
-11.810221,-5.567607,-0.05266008
-11.810221,-5.567607,-0.05266008
-11.810221,-5.567607,-0.05266008
-11.810221,-5.567607,-0.05266008
-15.496426000000001,-9.349558,0.3398969
-15.496426000000001,-9.349558,0.3398969
-15.496426000000001,-9.349558,0.3398969
-12.020861,-8.047417999999999,1.14416
-12.020861,-8.047417999999999,1.14416
-12.020861,-8.047417999999999,1.14416
-12.020861,-8.047417999999999,1.14416
-15.247487,-2.867581,-2.3792782000000003
-15.247487,-2.867581,-2.3792782000000003
-15.247487,-2.867581,-2.3792782000000003
-15.247487,-2.867581,-2.3792782000000003
-16.425158,-2.0920415,-3.4995019999999997
-16.425158,-2.0920415,-3.4995019999999997
-16.425158,-2.0920415,-3.4995019999999997
-16.425158,-2.0920415,-3.4995019999999997
-10.986808,-1.0292653,-3.3558834
-10.986808,-1.0292653,-3.3558834
-10.986808,-1.0292653,-3.3558834
-10.986808,-1.0292653,-3.3558834
-8.851681,-2.034594,-5.1367517
-8.851681,-2.034594,-5.1367517
-8.851681,-2.034594,-5.1367517
-8.851681,-2.034594,-5.1367517
-8.305931,-1.7665064,-4.7441945
-8.305931,-1.7665064,-4.7441945
-8.305931,-1.7665064,-4.7441945
-8.305931,-1.7665064,-4.7441945
-7.875075999999999,-1.5079931999999998,-3.5952474999999997
-7.875075999999999,-1.5079931999999998,-3.5952474999999997
-7.875075999999999,-1.5079931999999998,-3.5952474999999997
-8.372953,-1.2782038,-2.2069361
-8.372953,-1.2782038,-2.2069361
-8.372953,-1.2782038,-2.2069361
-8.372953,-1.2782038,-2.2069361
-8.439975,-2.0633178,-0.14840569
-8.439975,-2.0633178,-0.14840569
-8.439975,-2.0633178,-0.14840569
-8.439975,-2.0633178,-0.14840569
-10.517653999999999,-3.2697124,0.512239
-10.517653999999999,-3.2697124,0.512239
-10.517653999999999,-3.2697124,0.512239
-10.517653999999999,-3.2697124,0.512239
-11.484685,-1.9196993000000002,-0.40691882
-11.484685,-1.9196993000000002,-0.40691882
-11.484685,-1.9196993000000002,-0.40691882
-11.484685,-1.9196993000000002,-0.40691882
-13.00704,-2.149489,-0.9718179
-13.00704,-2.149489,-0.9718179
-13.00704,-2.149489,-0.9718179
-13.00704,-2.149489,-0.9718179
-11.446387,-1.4792696,0.3877697
-11.446387,-1.4792696,0.3877697
-11.446387,-1.4792696,0.3877697
-11.446387,-1.4792696,0.3877697
-9.244238000000001,-1.2877783999999999,0.3398969
-9.244238000000001,-1.2877783999999999,0.3398969
-9.244238000000001,-1.2877783999999999,0.3398969
-9.244238000000001,-1.2877783999999999,0.3398969
-9.20594,-2.1207652,0.42606795
-9.20594,-2.1207652,0.42606795
-9.20594,-2.1207652,0.42606795
-9.244238000000001,-2.408002,0.70373017
-9.244238000000001,-2.408002,0.70373017
-9.244238000000001,-2.408002,0.70373017
-9.244238000000001,-2.408002,0.70373017
-9.359133,-2.2165107999999996,0.19627848
-9.359133,-2.2165107999999996,0.19627848
-9.359133,-2.2165107999999996,0.19627848
-9.359133,-2.2165107999999996,0.19627848
-10.632549000000001,-2.3505547000000004,-0.081383765
-10.632549000000001,-2.3505547000000004,-0.081383765
-10.632549000000001,-2.3505547000000004,-0.081383765
-10.632549000000001,-2.3505547000000004,-0.081383765
-12.011286,-2.905879,-1.7952299999999999
-12.011286,-2.905879,-1.7952299999999999
-12.011286,-2.905879,-1.7952299999999999
-12.011286,-2.905879,-1.7952299999999999
-10.814466,0.751603,-3.0973704
-10.814466,0.751603,-3.0973704
-10.814466,0.751603,-3.0973704
-10.814466,0.751603,-3.0973704
-13.380448000000001,-2.1877869999999997,-2.4750240000000003
-13.380448000000001,-2.1877869999999997,-2.4750240000000003
-13.380448000000001,-2.1877869999999997,-2.4750240000000003
-13.380448000000001,-2.1877869999999997,-2.4750240000000003
-11.293194,-3.1260939999999997,-3.193116
-11.293194,-3.1260939999999997,-3.193116
-11.293194,-3.1260939999999997,-3.193116
-9.483603,-0.23457673,-3.2984362000000003
-9.483603,-0.23457673,-3.2984362000000003
-9.483603,-0.23457673,-3.2984362000000003
-9.483603,-0.23457673,-3.2984362000000003
-7.386773599999999,-1.3739493999999999,-2.7048132000000003
-7.386773599999999,-1.3739493999999999,-2.7048132000000003
-7.386773599999999,-1.3739493999999999,-2.7048132000000003
-7.386773599999999,-1.3739493999999999,-2.7048132000000003
-5.155901,-1.4313968000000001,-2.513322
-5.155901,-1.4313968000000001,-2.513322
-5.155901,-1.4313968000000001,-2.513322
-5.155901,-1.4313968000000001,-2.513322
-5.7686725,-1.1345854,-0.78990126
-5.7686725,-1.1345854,-0.78990126
-5.7686725,-1.1345854,-0.78990126
-5.7686725,-1.1345854,-0.78990126
-7.434646000000001,-1.6899098999999997,0.8090504
-7.434646000000001,-1.6899098999999997,0.8090504
-7.434646000000001,-1.6899098999999997,0.8090504
-7.434646000000001,-1.6899098999999997,0.8090504
-10.642124,-2.7048132000000003,-0.00478728
-10.642124,-2.7048132000000003,-0.00478728
-10.642124,-2.7048132000000003,-0.00478728
-10.642124,-2.7048132000000003,-0.00478728
-16.693247,-3.8537605000000004,-1.8143792
-16.693247,-3.8537605000000004,-1.8143792
-16.693247,-3.8537605000000004,-1.8143792
-16.693247,-3.8537605000000004,-1.8143792
-16.329411999999998,-3.0973704,-0.93351966
-16.329411999999998,-3.0973704,-0.93351966
-16.329411999999998,-3.0973704,-0.93351966
-16.329411999999998,-3.0973704,-0.93351966
-10.249566999999999,-2.647366,0.7420284
-10.249566999999999,-2.647366,0.7420284
-10.249566999999999,-2.647366,0.7420284
-10.249566999999999,-2.647366,0.7420284
-8.803808,-3.2505634,0.13883112
-8.803808,-3.2505634,0.13883112
-8.803808,-3.2505634,0.13883112
-8.803808,-3.2505634,0.13883112
-6.8793216,-3.4995019999999997,0.71330476
-6.8793216,-3.4995019999999997,0.71330476
-6.8793216,-3.4995019999999997,0.71330476
-6.8793216,-3.4995019999999997,0.71330476
-4.294190400000001,-1.5079931999999998,1.2782038
-4.294190400000001,-1.5079931999999998,1.2782038
-4.294190400000001,-1.5079931999999998,1.2782038
-4.294190400000001,-1.5079931999999998,1.2782038
-6.630383,-3.193116,-0.18670394
-6.630383,-3.193116,-0.18670394
-6.630383,-3.193116,-0.18670394
-6.630383,-3.193116,-0.18670394
-10.220842999999999,-5.0793040000000005,1.1537346000000002
-10.220842999999999,-5.0793040000000005,1.1537346000000002
-10.220842999999999,-5.0793040000000005,1.1537346000000002
-10.220842999999999,-5.0793040000000005,1.1537346000000002
-15.611320499999998,-5.5580324999999995,0.2920241
-15.611320499999998,-5.5580324999999995,0.2920241
-15.611320499999998,-5.5580324999999995,0.2920241
-15.611320499999998,-5.5580324999999995,0.2920241
-17.564531,-5.567607,0.023936402000000002
-17.564531,-5.567607,0.023936402000000002
-17.564531,-5.567607,0.023936402000000002
-17.564531,-5.567607,0.023936402000000002
-13.878325,-2.1207652,0.17712937
-13.878325,-2.1207652,0.17712937
-13.878325,-2.1207652,0.17712937
-13.878325,-2.1207652,0.17712937
-8.085716,-1.2686293,-0.023936402000000002
-8.085716,-1.2686293,-0.023936402000000002
-8.085716,-1.2686293,-0.023936402000000002
-8.085716,-1.2686293,-0.023936402000000002
-4.763344,-1.4409714,-0.14840569
-4.763344,-1.4409714,-0.14840569
-4.763344,-1.4409714,-0.14840569
-4.763344,-1.4409714,-0.14840569
-4.6293,0.13883112,-0.49308985
-4.6293,0.13883112,-0.49308985
-4.6293,0.13883112,-0.49308985
-4.6293,0.13883112,-0.49308985
-6.946343400000001,-0.3398969,-0.9526688
-6.946343400000001,-0.3398969,-0.9526688
-6.946343400000001,-0.3398969,-0.9526688
-6.946343400000001,-0.3398969,-0.9526688
-12.2410755,-1.5079931999999998,-1.1824582000000001
-12.2410755,-1.5079931999999998,-1.1824582000000001
-12.2410755,-1.5079931999999998,-1.1824582000000001
-12.2410755,-1.5079931999999998,-1.1824582000000001
-16.683672,-2.4654493,-2.321831
-16.683672,-2.4654493,-2.321831
-16.683672,-2.4654493,-2.321831
-16.683672,-2.4654493,-2.321831
-16.683672,-2.4654493,-2.321831
-15.391106,-4.2080193,-1.2590546999999999
-15.391106,-4.2080193,-1.2590546999999999
-15.391106,-4.2080193,-1.2590546999999999
-12.834699,-3.4420545,-0.6558574
-12.834699,-3.4420545,-0.6558574
-12.834699,-3.4420545,-0.6558574
-12.834699,-3.4420545,-0.6558574
-12.834699,-3.4420545,-0.6558574
-10.441058,-3.2505634,-0.32074776
-10.441058,-3.2505634,-0.32074776
-10.441058,-3.2505634,-0.32074776
-10.441058,-3.2505634,-0.32074776
-7.6740103,-3.8154623999999995,0.39734426
-7.6740103,-3.8154623999999995,0.39734426
-7.6740103,-3.8154623999999995,0.39734426
-5.6825019999999995,-3.078221,0.43564250000000004
-5.6825019999999995,-3.078221,0.43564250000000004
-5.6825019999999995,-3.078221,0.43564250000000004
-5.6825019999999995,-3.078221,0.43564250000000004
-5.6825019999999995,-3.078221,0.43564250000000004
-5.711225499999999,-4.102699299999999,0.3111732
-5.711225499999999,-4.102699299999999,0.3111732
-5.711225499999999,-4.102699299999999,0.3111732
-5.711225499999999,-4.102699299999999,0.3111732
-10.421909,-5.567607,-0.05266008
-10.421909,-5.567607,-0.05266008
-10.421909,-5.567607,-0.05266008
-10.421909,-5.567607,-0.05266008
-17.229422,-4.9069624,-1.4409714
-17.229422,-4.9069624,-1.4409714
-17.229422,-4.9069624,-1.4409714
-17.229422,-4.9069624,-1.4409714
-16.061325,-3.7484405,0.43564250000000004
-16.061325,-3.7484405,0.43564250000000004
-16.061325,-3.7484405,0.43564250000000004
-13.476192999999999,-1.7569318999999999,-0.54096264
-13.476192999999999,-1.7569318999999999,-0.54096264
-13.476192999999999,-1.7569318999999999,-0.54096264
-13.476192999999999,-1.7569318999999999,-0.54096264
-13.476192999999999,-1.7569318999999999,-0.54096264
-8.784659,-1.6611862000000002,-1.4409714
-8.784659,-1.6611862000000002,-1.4409714
-8.784659,-1.6611862000000002,-1.4409714
-8.784659,-1.6611862000000002,-1.4409714
-5.5963306,0.665432,-0.48351530000000004
-5.5963306,0.665432,-0.48351530000000004
-5.5963306,0.665432,-0.48351530000000004
-5.5963306,0.665432,-0.48351530000000004
-4.4952559999999995,-0.751603,0.110107444
-4.4952559999999995,-0.751603,0.110107444
-4.4952559999999995,-0.751603,0.110107444
-4.4952559999999995,-0.751603,0.110107444
-6.946343400000001,-0.3398969,-1.6994845
-6.946343400000001,-0.3398969,-1.6994845
-6.946343400000001,-0.3398969,-1.6994845
-11.695326,-0.8760723,-1.5654407
-11.695326,-0.8760723,-1.5654407
-11.695326,-0.8760723,-1.5654407
-11.695326,-0.8760723,-1.5654407
-11.695326,-0.8760723,-1.5654407
-15.419829,-2.733537,-1.3739493999999999
-15.419829,-2.733537,-1.3739493999999999
-15.419829,-2.733537,-1.3739493999999999
-15.419829,-2.733537,-1.3739493999999999
-15.247487,-4.8303657,-1.1058618
-15.247487,-4.8303657,-1.1058618
-15.247487,-4.8303657,-1.1058618
-15.247487,-4.8303657,-1.1058618
-14.175137,-3.8824842000000004,-0.90479594
-14.175137,-3.8824842000000004,-0.90479594
-14.175137,-3.8824842000000004,-0.90479594
-11.072979,-3.5569491,-0.7324539000000001
-11.072979,-3.5569491,-0.7324539000000001
-11.072979,-3.5569491,-0.7324539000000001
-11.072979,-3.5569491,-0.7324539000000001
-8.947427000000001,-3.6143966,-0.26330042
-8.947427000000001,-3.6143966,-0.26330042
-8.947427000000001,-3.6143966,-0.26330042
-8.947427000000001,-3.6143966,-0.26330042
-6.256975,-3.690993,-0.09095833
-6.256975,-3.690993,-0.09095833
-6.256975,-3.690993,-0.09095833
-6.256975,-3.690993,-0.09095833
-6.036760299999999,-3.231414,-0.7324539000000001
-6.036760299999999,-3.231414,-0.7324539000000001
-6.036760299999999,-3.231414,-0.7324539000000001
-6.036760299999999,-3.231414,-0.7324539000000001
-6.036760299999999,-3.231414,-0.7324539000000001
-7.329325999999999,-4.150572,-0.7324539000000001
-7.329325999999999,-4.150572,-0.7324539000000001
-7.329325999999999,-4.150572,-0.7324539000000001
-14.720885999999998,-5.5963306,-1.1154363
-14.720885999999998,-5.5963306,-1.1154363
-14.720885999999998,-5.5963306,-1.1154363
-14.720885999999998,-5.5963306,-1.1154363
-14.720885999999998,-5.5963306,-1.1154363
-17.928364000000002,-3.9782297999999994,1.2207563999999997
-17.928364000000002,-3.9782297999999994,1.2207563999999997
-17.928364000000002,-3.9782297999999994,1.2207563999999997
-17.928364000000002,-3.9782297999999994,1.2207563999999997
-18.608158,-1.9196993000000002,0.8952214
-18.608158,-1.9196993000000002,0.8952214
-18.608158,-1.9196993000000002,0.8952214
-12.183628,1.7665064,0.22500217
-12.183628,1.7665064,0.22500217
-12.183628,1.7665064,0.22500217
-12.183628,1.7665064,0.22500217
-12.183628,1.7665064,0.22500217
-7.788905000000001,1.0579889,-0.19627848
-7.788905000000001,1.0579889,-0.19627848
-7.788905000000001,1.0579889,-0.19627848
-7.788905000000001,1.0579889,-0.19627848
-2.0058703,2.5324712000000003,1.6611862000000002
-2.0058703,2.5324712000000003,1.6611862000000002
-2.0058703,2.5324712000000003,1.6611862000000002
-2.0058703,2.5324712000000003,1.6611862000000002
-3.9590807,-0.30159867,-0.30159867
-3.9590807,-0.30159867,-0.30159867
-3.9590807,-0.30159867,-0.30159867
-3.9590807,-0.30159867,-0.30159867
-7.626137299999999,-0.4164934,-0.42606795
-7.626137299999999,-0.4164934,-0.42606795
-7.626137299999999,-0.4164934,-0.42606795
-7.626137299999999,-0.4164934,-0.42606795
-11.36979,-2.1399142999999996,0.3111732
-11.36979,-2.1399142999999996,0.3111732
-11.36979,-2.1399142999999996,0.3111732
-11.36979,-2.1399142999999996,0.3111732
-19.603912,-2.0058703,-2.8580062
-19.603912,-2.0058703,-2.8580062
-19.603912,-2.0058703,-2.8580062
-18.656029999999998,-3.777164,-0.28244954
-18.656029999999998,-3.777164,-0.28244954
-18.656029999999998,-3.777164,-0.28244954
-18.656029999999998,-3.777164,-0.28244954
-18.656029999999998,-3.777164,-0.28244954
-12.662355999999999,-2.101616,0.5505372
-12.662355999999999,-2.101616,0.5505372
-12.662355999999999,-2.101616,0.5505372
-7.396348,-2.972901,-0.16755481
-7.396348,-2.972901,-0.16755481
-7.396348,-2.972901,-0.16755481
-7.396348,-2.972901,-0.16755481
-4.2654667,-3.6335455999999997,-0.91437054
-4.2654667,-3.6335455999999997,-0.91437054
-4.2654667,-3.6335455999999997,-0.91437054
-4.2654667,-3.6335455999999997,-0.91437054
-2.2835326,-3.2026904,-1.6037389
-2.2835326,-3.2026904,-1.6037389
-2.2835326,-3.2026904,-1.6037389
-2.2835326,-3.2026904,-1.6037389
-5.538883,-3.9495062999999995,-3.1452432
-5.538883,-3.9495062999999995,-3.1452432
-5.538883,-3.9495062999999995,-3.1452432
-5.538883,-3.9495062999999995,-3.1452432
-12.174053,-4.782493,-3.212265
-12.174053,-4.782493,-3.212265
-12.174053,-4.782493,-3.212265
-12.174053,-4.782493,-3.212265
-19.039013,-2.8580062,-0.43564250000000004
-19.039013,-2.8580062,-0.43564250000000004
-19.039013,-2.8580062,-0.43564250000000004
-19.039013,-2.8580062,-0.43564250000000004
-19.230504999999997,-2.360129,1.9292740000000002
-19.230504999999997,-2.360129,1.9292740000000002
-19.230504999999997,-2.360129,1.9292740000000002
-19.230504999999997,-2.360129,1.9292740000000002
-12.394267999999999,-0.7324539000000001,2.9441773999999996
-12.394267999999999,-0.7324539000000001,2.9441773999999996
-12.394267999999999,-0.7324539000000001,2.9441773999999996
-12.394267999999999,-0.7324539000000001,2.9441773999999996
-7.042089,-0.6271336999999999,1.5367169
-7.042089,-0.6271336999999999,1.5367169
-7.042089,-0.6271336999999999,1.5367169
-7.042089,-0.6271336999999999,1.5367169
-4.3803616,-0.081383765,-0.39734426
-4.3803616,-0.081383765,-0.39734426
-4.3803616,-0.081383765,-0.39734426
-4.3803616,-0.081383765,-0.39734426
-4.3324885,-0.14840569,-0.90479594
-4.3324885,-0.14840569,-0.90479594
-4.3324885,-0.14840569,-0.90479594
-4.3324885,-0.14840569,-0.90479594
-6.8027253,-0.56011176,-1.5750152
-6.8027253,-0.56011176,-1.5750152
-6.8027253,-0.56011176,-1.5750152
-6.8027253,-0.56011176,-1.5750152
-14.969825,-4.275041000000001,-2.9250283
-14.969825,-4.275041000000001,-2.9250283
-14.969825,-4.275041000000001,-2.9250283
-14.969825,-4.275041000000001,-2.9250283
-17.937939,-5.5101595,-2.2452345
-17.937939,-5.5101595,-2.2452345
-17.937939,-5.5101595,-2.2452345
-17.937939,-5.5101595,-2.2452345
-14.893229000000002,-3.8250370000000005,-0.50266445
-14.893229000000002,-3.8250370000000005,-0.50266445
-14.893229000000002,-3.8250370000000005,-0.50266445
-14.893229000000002,-3.8250370000000005,-0.50266445
-9.770839,-3.6526947,-0.4164934
-9.770839,-3.6526947,-0.4164934
-9.770839,-3.6526947,-0.4164934
-9.770839,-3.6526947,-0.4164934
-5.988887999999999,-4.4856815,0.081383765
-5.988887999999999,-4.4856815,0.081383765
-5.988887999999999,-4.4856815,0.081383765
-5.988887999999999,-4.4856815,0.081383765
-4.1409974,-2.6760897999999997,0.014361841
-4.1409974,-2.6760897999999997,0.014361841
-4.1409974,-2.6760897999999997,0.014361841
-4.1409974,-2.6760897999999997,0.014361841
-5.4335629999999995,-3.5952474999999997,0.34947145
-5.4335629999999995,-3.5952474999999997,0.34947145
-5.4335629999999995,-3.5952474999999997,0.34947145
-5.4335629999999995,-3.5952474999999997,0.34947145
-11.791071,-6.936769,-1.8526775000000002
-11.791071,-6.936769,-1.8526775000000002
-11.791071,-6.936769,-1.8526775000000002
-11.791071,-6.936769,-1.8526775000000002
-17.143251,-7.022939999999999,0.014361841
-17.143251,-7.022939999999999,0.014361841
-17.143251,-7.022939999999999,0.014361841
-17.143251,-7.022939999999999,0.014361841
-17.143251,-7.022939999999999,0.014361841
-16.501755,-4.456958,-0.50266445
-16.501755,-4.456958,-0.50266445
-16.501755,-4.456958,-0.50266445
-12.56661,-2.5037475,-1.5271424
-12.56661,-2.5037475,-1.5271424
-12.56661,-2.5037475,-1.5271424
-12.56661,-2.5037475,-1.5271424
-12.56661,-2.5037475,-1.5271424
-8.382527,-2.0537431,-2.561195
-8.382527,-2.0537431,-2.561195
-8.382527,-2.0537431,-2.561195
-8.382527,-2.0537431,-2.561195
-5.960164,-0.03351096,-2.4463003
-5.960164,-0.03351096,-2.4463003
-5.960164,-0.03351096,-2.4463003
-3.9590807,-0.15798025,-1.4026731000000001
-3.9590807,-0.15798025,-1.4026731000000001
-3.9590807,-0.15798025,-1.4026731000000001
-3.9590807,-0.15798025,-1.4026731000000001
-3.9590807,-0.15798025,-1.4026731000000001
-7.654861,-2.6569404999999997,-2.9824755
-7.654861,-2.6569404999999997,-2.9824755
-7.654861,-2.6569404999999997,-2.9824755
-7.654861,-2.6569404999999997,-2.9824755
-17.344316,-4.1984449999999995,-5.672927
-17.344316,-4.1984449999999995,-5.672927
-17.344316,-4.1984449999999995,-5.672927
-17.344316,-4.1984449999999995,-5.672927
-17.344316,-4.1984449999999995,-5.672927
-17.344316,-4.1984449999999995,-5.672927
-17.344316,-4.1984449999999995,-5.672927
-12.5474615,-4.0356774,-0.8856468000000001
-12.5474615,-4.0356774,-0.8856468000000001
-12.5474615,-4.0356774,-0.8856468000000001
-12.5474615,-4.0356774,-0.8856468000000001
-10.134672,-3.671844,-0.6750065
-10.134672,-3.671844,-0.6750065
-10.134672,-3.671844,-0.6750065
-10.134672,-3.671844,-0.6750065
-9.445304,-4.0069537,-0.13883112
-9.445304,-4.0069537,-0.13883112
-9.445304,-4.0069537,-0.13883112
-10.144247,-3.6431203,-0.18670394
-10.144247,-3.6431203,-0.18670394
-10.144247,-3.6431203,-0.18670394
-10.144247,-3.6431203,-0.18670394
-10.144247,-3.6431203,-0.18670394
-10.632549000000001,-3.9112080000000002,1.0388398
-10.632549000000001,-3.9112080000000002,1.0388398
-10.632549000000001,-3.9112080000000002,1.0388398
-11.475111,-4.466532,0.00478728
-11.475111,-4.466532,0.00478728
-11.475111,-4.466532,0.00478728
-11.475111,-4.466532,0.00478728
-13.016615,-3.9878044000000004,-1.709059
-13.016615,-3.9878044000000004,-1.709059
-13.016615,-3.9878044000000004,-1.709059
-13.016615,-3.9878044000000004,-1.709059
-13.016615,-3.9878044000000004,-1.709059
-11.637878,-0.6845810999999999,-2.4463003
-11.637878,-0.6845810999999999,-2.4463003
-11.637878,-0.6845810999999999,-2.4463003
-13.99322,-1.2207563999999997,-2.9250283
-13.99322,-1.2207563999999997,-2.9250283
-13.99322,-1.2207563999999997,-2.9250283
-13.99322,-1.2207563999999997,-2.9250283
-11.475111,-2.4367256,-3.1356685
-11.475111,-2.4367256,-3.1356685
-11.475111,-2.4367256,-3.1356685
-11.475111,-2.4367256,-3.1356685
-9.885734,-1.2207563999999997,-2.9441773999999996
-9.885734,-1.2207563999999997,-2.9441773999999996
-9.885734,-1.2207563999999997,-2.9441773999999996
-9.885734,-1.2207563999999997,-2.9441773999999996
-8.794233,-0.83777404,-2.9537517999999996
-8.794233,-0.83777404,-2.9537517999999996
-8.794233,-0.83777404,-2.9537517999999996
-8.794233,-0.83777404,-2.9537517999999996
-7.808053999999999,-0.9718179,-2.0824668
-7.808053999999999,-0.9718179,-2.0824668
-7.808053999999999,-0.9718179,-2.0824668
-6.831449,-1.5654407,-1.0484143
-6.831449,-1.5654407,-1.0484143
-6.831449,-1.5654407,-1.0484143
-6.831449,-1.5654407,-1.0484143
-6.831449,-1.5654407,-1.0484143
-8.286782,-1.9579976000000003,-1.1154363
-8.286782,-1.9579976000000003,-1.1154363
-8.286782,-1.9579976000000003,-1.1154363
-9.885734,-3.2218397000000003,-1.0196906
-9.885734,-3.2218397000000003,-1.0196906
-9.885734,-3.2218397000000003,-1.0196906
-9.885734,-3.2218397000000003,-1.0196906
-11.752773,-2.4750240000000003,-1.3069274
-11.752773,-2.4750240000000003,-1.3069274
-11.752773,-2.4750240000000003,-1.3069274
-11.752773,-2.4750240000000003,-1.3069274
-11.657027000000001,-2.2165107999999996,-0.70373017
-11.657027000000001,-2.2165107999999996,-0.70373017
-11.657027000000001,-2.2165107999999996,-0.70373017
-11.657027000000001,-2.2165107999999996,-0.70373017
-10.852764,-2.3792782000000003,0.110107444
-10.852764,-2.3792782000000003,0.110107444
-10.852764,-2.3792782000000003,0.110107444
-10.852764,-2.3792782000000003,0.110107444
-10.555953,-2.7622607000000006,0.27287498
-10.555953,-2.7622607000000006,0.27287498
-10.555953,-2.7622607000000006,0.27287498
-10.555953,-2.7622607000000006,0.27287498
-9.110194,-2.5037475,0.43564250000000004
-9.110194,-2.5037475,0.43564250000000004
-9.110194,-2.5037475,0.43564250000000004
-9.110194,-2.5037475,0.43564250000000004
-8.755936,-2.905879,0.6079846
-8.755936,-2.905879,0.6079846
-8.755936,-2.905879,0.6079846
-9.292110000000001,-3.451629,0.3877697
-9.292110000000001,-3.451629,0.3877697
-9.292110000000001,-3.451629,0.3877697
-9.292110000000001,-3.451629,0.3877697
-13.313426000000002,-3.5282254,-0.50266445
-13.313426000000002,-3.5282254,-0.50266445
-13.313426000000002,-3.5282254,-0.50266445
-13.313426000000002,-3.5282254,-0.50266445
-10.6134,-0.5218136,0.10053288
-10.6134,-0.5218136,0.10053288
-10.6134,-0.5218136,0.10053288
-10.6134,-0.5218136,0.10053288
-13.782579,-1.7473572,-1.9388485
-13.782579,-1.7473572,-1.9388485
-13.782579,-1.7473572,-1.9388485
-13.782579,-1.7473572,-1.9388485
-13.782579,-1.7473572,-1.9388485
-11.992137,-3.0016246,-1.7856555
-11.992137,-3.0016246,-1.7856555
-11.992137,-3.0016246,-1.7856555
-8.957002000000001,-1.2399056,-0.90479594
-8.957002000000001,-1.2399056,-0.90479594
-8.957002000000001,-1.2399056,-0.90479594
-8.957002000000001,-1.2399056,-0.90479594
-7.080387599999999,-1.6228879999999999,-1.4026731000000001
-7.080387599999999,-1.6228879999999999,-1.4026731000000001
-7.080387599999999,-1.6228879999999999,-1.4026731000000001
-7.080387599999999,-1.6228879999999999,-1.4026731000000001
-6.2378263,-1.383524,-0.45479164
-6.2378263,-1.383524,-0.45479164
-6.2378263,-1.383524,-0.45479164
-6.2378263,-1.383524,-0.45479164
-4.916537,-0.59841,-0.3111732
-4.916537,-0.59841,-0.3111732
-4.916537,-0.59841,-0.3111732
-4.916537,-0.59841,-0.3111732
-5.988887999999999,-1.3356511999999998,-0.36862057
-5.988887999999999,-1.3356511999999998,-0.36862057
-5.988887999999999,-1.3356511999999998,-0.36862057
-5.988887999999999,-1.3356511999999998,-0.36862057
-8.784659,-2.034594,-0.5218136
-8.784659,-2.034594,-0.5218136
-8.784659,-2.034594,-0.5218136
-8.784659,-2.034594,-0.5218136
-14.883655,-2.7431116,0.8664976999999999
-14.883655,-2.7431116,0.8664976999999999
-14.883655,-2.7431116,0.8664976999999999
-14.883655,-2.7431116,0.8664976999999999
-15.707067000000002,-2.2643836,-0.20585304
-15.707067000000002,-2.2643836,-0.20585304
-15.707067000000002,-2.2643836,-0.20585304
-15.707067000000002,-2.2643836,-0.20585304
-13.246405,-2.494173,-0.0718092
-13.246405,-2.494173,-0.0718092
-13.246405,-2.494173,-0.0718092
-13.246405,-2.494173,-0.0718092
-9.368708,-3.930357,0.12925656
-9.368708,-3.930357,0.12925656
-9.368708,-3.930357,0.12925656
-7.022939999999999,-4.9356860000000005,-0.09095833
-7.022939999999999,-4.9356860000000005,-0.09095833
-7.022939999999999,-4.9356860000000005,-0.09095833
-7.022939999999999,-4.9356860000000005,-0.09095833
-7.022939999999999,-4.9356860000000005,-0.09095833
-5.2133484,-2.3026817000000004,0.8856468000000001
-5.2133484,-2.3026817000000004,0.8856468000000001
-5.2133484,-2.3026817000000004,0.8856468000000001
-5.2133484,-2.3026817000000004,0.8856468000000001
-7.1665583,-1.5941644,1.4313968000000001
-7.1665583,-1.5941644,1.4313968000000001
-7.1665583,-1.5941644,1.4313968000000001
-11.59958,-3.231414,1.4218222
-11.59958,-3.231414,1.4218222
-11.59958,-3.231414,1.4218222
-11.59958,-3.231414,1.4218222
-11.59958,-3.231414,1.4218222
-18.32092,-4.1792955,-0.110107444
-18.32092,-4.1792955,-0.110107444
-18.32092,-4.1792955,-0.110107444
-16.204943,-3.604822,0.014361841
-16.204943,-3.604822,0.014361841
-16.204943,-3.604822,0.014361841
-16.204943,-3.604822,0.014361841
-14.577269,-3.1260939999999997,-0.5218136
-14.577269,-3.1260939999999997,-0.5218136
-14.577269,-3.1260939999999997,-0.5218136
-14.577269,-3.1260939999999997,-0.5218136
-14.577269,-3.1260939999999997,-0.5218136
-14.577269,-3.1260939999999997,-0.5218136
-14.577269,-3.1260939999999997,-0.5218136
-14.577269,-3.1260939999999997,-0.5218136
-6.256975,-0.28244954,-0.8090504
-6.256975,-0.28244954,-0.8090504
-6.256975,-0.28244954,-0.8090504
-6.256975,-0.28244954,-0.8090504
-6.3718699999999995,-0.49308985,-1.0771381000000002
-6.3718699999999995,-0.49308985,-1.0771381000000002
-6.3718699999999995,-0.49308985,-1.0771381000000002
-6.3718699999999995,-0.49308985,-1.0771381000000002
-7.022939999999999,0.11968201,-1.0196906
-7.022939999999999,0.11968201,-1.0196906
-7.022939999999999,0.11968201,-1.0196906
-7.022939999999999,0.11968201,-1.0196906
-8.612317,-0.71330476,-0.78032666
-8.612317,-0.71330476,-0.78032666
-8.612317,-0.71330476,-0.78032666
-8.612317,-0.71330476,-0.78032666
-11.963413000000001,-1.9962958,-1.3069274
-11.963413000000001,-1.9962958,-1.3069274
-11.963413000000001,-1.9962958,-1.3069274
-14.87408,-4.1409974,-1.7856555
-14.87408,-4.1409974,-1.7856555
-14.87408,-4.1409974,-1.7856555
-14.87408,-4.1409974,-1.7856555
-14.87408,-4.1409974,-1.7856555
-15.113443,-4.801642,-1.383524
-15.113443,-4.801642,-1.383524
-15.113443,-4.801642,-1.383524
-13.562365,-3.451629,-0.48351530000000004
-13.562365,-3.451629,-0.48351530000000004
-13.562365,-3.451629,-0.48351530000000004
-13.562365,-3.451629,-0.48351530000000004
-13.562365,-3.451629,-0.48351530000000004
-10.06765,-4.121848,-0.03351096
-10.06765,-4.121848,-0.03351096
-10.06765,-4.121848,-0.03351096
-10.06765,-4.121848,-0.03351096
-7.626137299999999,-3.3941817000000003,-0.3398969
-7.626137299999999,-3.3941817000000003,-0.3398969
-7.626137299999999,-3.3941817000000003,-0.3398969
-7.626137299999999,-3.3941817000000003,-0.3398969
-7.8176284,-3.5282254,-0.48351530000000004
-7.8176284,-3.5282254,-0.48351530000000004
-7.8176284,-3.5282254,-0.48351530000000004
-10.115523,-4.6867475999999995,-1.2207563999999997
-10.115523,-4.6867475999999995,-1.2207563999999997
-10.115523,-4.6867475999999995,-1.2207563999999997
-10.115523,-4.6867475999999995,-1.2207563999999997
-12.604909,-5.6633525,-0.37819514
-12.604909,-5.6633525,-0.37819514
-12.604909,-5.6633525,-0.37819514
-12.604909,-5.6633525,-0.37819514
-14.634716000000001,-3.8729098,0.42606795
-14.634716000000001,-3.8729098,0.42606795
-14.634716000000001,-3.8729098,0.42606795
-14.634716000000001,-3.8729098,0.42606795
-16.15707,-2.3984275,-0.6271336999999999
-16.15707,-2.3984275,-0.6271336999999999
-16.15707,-2.3984275,-0.6271336999999999
-16.15707,-2.3984275,-0.6271336999999999
-16.15707,-2.3984275,-0.6271336999999999
-9.837861,-0.3877697,0.3877697
-9.837861,-0.3877697,0.3877697
-9.837861,-0.3877697,0.3877697
-7.951672599999999,-0.7420284,-0.12925656
-7.951672599999999,-0.7420284,-0.12925656
-7.951672599999999,-0.7420284,-0.12925656
-7.951672599999999,-0.7420284,-0.12925656
-6.5154879999999995,0.6079846,-0.8473485999999999
-6.5154879999999995,0.6079846,-0.8473485999999999
-6.5154879999999995,0.6079846,-0.8473485999999999
-6.5154879999999995,0.6079846,-0.8473485999999999
-6.5154879999999995,0.6079846,-0.8473485999999999
-8.229335,0.00478728,-0.751603
-8.229335,0.00478728,-0.751603
-8.229335,0.00478728,-0.751603
-9.349558,-0.16755481,-1.1345854
-9.349558,-0.16755481,-1.1345854
-9.349558,-0.16755481,-1.1345854
-9.349558,-0.16755481,-1.1345854
-14.787908999999999,-2.3792782000000003,-2.1303396
-14.787908999999999,-2.3792782000000003,-2.1303396
-14.787908999999999,-2.3792782000000003,-2.1303396
-14.787908999999999,-2.3792782000000003,-2.1303396
-14.634716000000001,-2.2260852000000004,-1.5750152
-14.634716000000001,-2.2260852000000004,-1.5750152
-14.634716000000001,-2.2260852000000004,-1.5750152
-14.634716000000001,-2.2260852000000004,-1.5750152
-12.911294999999999,-3.0016246,-0.22500217
-12.911294999999999,-3.0016246,-0.22500217
-12.911294999999999,-3.0016246,-0.22500217
-12.911294999999999,-3.0016246,-0.22500217
-11.934689500000001,-3.2026904,-0.45479164
-11.934689500000001,-3.2026904,-0.45479164
-11.934689500000001,-3.2026904,-0.45479164
-11.934689500000001,-3.2026904,-0.45479164
-9.41658,-3.1739669999999998,0.13883112
-9.41658,-3.1739669999999998,0.13883112
-9.41658,-3.1739669999999998,0.13883112
-9.41658,-3.1739669999999998,0.13883112
-6.984642,-2.5707695,0.16755481
-6.984642,-2.5707695,0.16755481
-6.984642,-2.5707695,0.16755481
-7.1665583,-3.2888615,0.11968201
-7.1665583,-3.2888615,0.11968201
-7.1665583,-3.2888615,0.11968201
-7.1665583,-3.2888615,0.11968201
-7.1665583,-3.2888615,0.11968201
-9.397431,-4.6005764000000005,-0.05266008
-9.397431,-4.6005764000000005,-0.05266008
-9.397431,-4.6005764000000005,-0.05266008
-14.414501000000001,-4.1888704,-1.2207563999999997
-14.414501000000001,-4.1888704,-1.2207563999999997
-14.414501000000001,-4.1888704,-1.2207563999999997
-14.414501000000001,-4.1888704,-1.2207563999999997
-16.185795000000002,-3.7963133,0.40691882
-16.185795000000002,-3.7963133,0.40691882
-16.185795000000002,-3.7963133,0.40691882
-16.185795000000002,-3.7963133,0.40691882
-17.1624,-2.1973617,-0.05266008
-17.1624,-2.1973617,-0.05266008
-17.1624,-2.1973617,-0.05266008
-17.1624,-2.1973617,-0.05266008
-11.953838000000001,-0.8952214,-0.3877697
-11.953838000000001,-0.8952214,-0.3877697
-11.953838000000001,-0.8952214,-0.3877697
-11.953838000000001,-0.8952214,-0.3877697
-7.281453,-1.1920328000000002,0.34947145
-7.281453,-1.1920328000000002,0.34947145
-7.281453,-1.1920328000000002,0.34947145
-6.429317500000001,-0.85692316,-0.13883112
-6.429317500000001,-0.85692316,-0.13883112
-6.429317500000001,-0.85692316,-0.13883112
-6.429317500000001,-0.85692316,-0.13883112
-6.218677,-0.6845810999999999,-0.34947145
-6.218677,-0.6845810999999999,-0.34947145
-6.218677,-0.6845810999999999,-0.34947145
-6.218677,-0.6845810999999999,-0.34947145
-8.947427000000001,-4.016528,-1.1154363
-8.947427000000001,-4.016528,-1.1154363
-8.947427000000001,-4.016528,-1.1154363
-8.947427000000001,-4.016528,-1.1154363
-12.413418,-4.6293,-2.1111906000000005
-12.413418,-4.6293,-2.1111906000000005
-12.413418,-4.6293,-2.1111906000000005
-12.413418,-4.6293,-2.1111906000000005
-11.647452000000001,-4.456958,0.15798025
-11.647452000000001,-4.456958,0.15798025
-11.647452000000001,-4.456958,0.15798025
-11.647452000000001,-4.456958,0.15798025
-12.317672,-4.2271686,-0.5505372
-12.317672,-4.2271686,-0.5505372
-12.317672,-4.2271686,-0.5505372
-12.863422,-3.8824842000000004,-0.512239
-12.863422,-3.8824842000000004,-0.512239
-12.863422,-3.8824842000000004,-0.512239
-12.863422,-3.8824842000000004,-0.512239
-12.863422,-3.8824842000000004,-0.512239
-11.341067,-4.3612123,-0.12925656
-11.341067,-4.3612123,-0.12925656
-11.341067,-4.3612123,-0.12925656
-8.00912,-3.5378,-0.48351530000000004
-8.00912,-3.5378,-0.48351530000000004
-8.00912,-3.5378,-0.48351530000000004
-8.00912,-3.5378,-0.48351530000000004
-7.731457700000001,-2.9250283,-0.6845810999999999
-7.731457700000001,-2.9250283,-0.6845810999999999
-7.731457700000001,-2.9250283,-0.6845810999999999
-7.731457700000001,-2.9250283,-0.6845810999999999
-8.439975,-4.5144053,0.56011176
-8.439975,-4.5144053,0.56011176
-8.439975,-4.5144053,0.56011176
-8.439975,-4.5144053,0.56011176
-14.318755,-4.6005764000000005,-0.19627848
-14.318755,-4.6005764000000005,-0.19627848
-14.318755,-4.6005764000000005,-0.19627848
-14.318755,-4.6005764000000005,-0.19627848
-16.6358,-2.7622607000000006,-0.00478728
-16.6358,-2.7622607000000006,-0.00478728
-16.6358,-2.7622607000000006,-0.00478728
-16.6358,-2.7622607000000006,-0.00478728
-15.429404000000002,-2.1877869999999997,0.014361841
-15.429404000000002,-2.1877869999999997,0.014361841
-15.429404000000002,-2.1877869999999997,0.014361841
-15.429404000000002,-2.1877869999999997,0.014361841
-11.915541000000001,-1.3165021000000001,-0.42606795
-11.915541000000001,-1.3165021000000001,-0.42606795
-11.915541000000001,-1.3165021000000001,-0.42606795
-7.405922400000001,-0.48351530000000004,0.359046
-7.405922400000001,-0.48351530000000004,0.359046
-7.405922400000001,-0.48351530000000004,0.359046
-7.405922400000001,-0.48351530000000004,0.359046
-7.405922400000001,-0.48351530000000004,0.359046
-5.692076,-0.99096704,0.47394073
-5.692076,-0.99096704,0.47394073
-5.692076,-0.99096704,0.47394073
-5.538883,-0.8473485999999999,-0.14840569
-5.538883,-0.8473485999999999,-0.14840569
-5.538883,-0.8473485999999999,-0.14840569
-5.538883,-0.8473485999999999,-0.14840569
-5.6633525,-2.0058703,-0.56011176
-5.6633525,-2.0058703,-0.56011176
-5.6633525,-2.0058703,-0.56011176
-5.6633525,-2.0058703,-0.56011176
-12.375119,-6.2091026,-1.3260766000000002
-12.375119,-6.2091026,-1.3260766000000002
-12.375119,-6.2091026,-1.3260766000000002
-12.375119,-6.2091026,-1.3260766000000002
-14.376203,-3.3941817000000003,-0.16755481
-14.376203,-3.3941817000000003,-0.16755481
-14.376203,-3.3941817000000003,-0.16755481
-14.376203,-3.3941817000000003,-0.16755481
-14.318755,-4.1792955,0.014361841
-14.318755,-4.1792955,0.014361841
-14.318755,-4.1792955,0.014361841
-14.318755,-4.1792955,0.014361841
-12.308098,-4.466532,0.25372586
-12.308098,-4.466532,0.25372586
-12.308098,-4.466532,0.25372586
-9.780414,-3.6526947,0.17712937
-9.780414,-3.6526947,0.17712937
-9.780414,-3.6526947,0.17712937
-9.780414,-3.6526947,0.17712937
-7.042089,-3.9686553,0.27287498
-7.042089,-3.9686553,0.27287498
-7.042089,-3.9686553,0.27287498
-7.042089,-3.9686553,0.27287498
-5.8739930000000005,-3.193116,0.062234644000000006
-5.8739930000000005,-3.193116,0.062234644000000006
-5.8739930000000005,-3.193116,0.062234644000000006
-5.8739930000000005,-3.193116,0.062234644000000006
-6.9559183,-3.4229053999999994,-0.359046
-6.9559183,-3.4229053999999994,-0.359046
-6.9559183,-3.4229053999999994,-0.359046
-6.9559183,-3.4229053999999994,-0.359046
-10.479357,-4.5239797,-0.50266445
-10.479357,-4.5239797,-0.50266445
-10.479357,-4.5239797,-0.50266445
-10.479357,-4.5239797,-0.50266445
-17.344316,-5.4718614,-0.2441513
-17.344316,-5.4718614,-0.2441513
-17.344316,-5.4718614,-0.2441513
-17.344316,-5.4718614,-0.2441513
-16.664522,-3.3080106,-0.7228793
-16.664522,-3.3080106,-0.7228793
-16.664522,-3.3080106,-0.7228793
-16.204943,-0.47394073,-2.101616
-16.204943,-0.47394073,-2.101616
-16.204943,-0.47394073,-2.101616
-16.204943,-0.47394073,-2.101616
-16.204943,-0.47394073,-2.101616
-8.755936,-0.512239,-1.5175678999999997
-8.755936,-0.512239,-1.5175678999999997
-8.755936,-0.512239,-1.5175678999999997
-6.2282515,-2.9824755,-1.0196906
-6.2282515,-2.9824755,-1.0196906
-6.2282515,-2.9824755,-1.0196906
-6.2282515,-2.9824755,-1.0196906
-6.3718699999999995,-1.2111819,-1.7569318999999999
-6.3718699999999995,-1.2111819,-1.7569318999999999
-6.3718699999999995,-1.2111819,-1.7569318999999999
-6.3718699999999995,-1.2111819,-1.7569318999999999
-5.481436,-2.6952388,-0.8760723
-5.481436,-2.6952388,-0.8760723
-5.481436,-2.6952388,-0.8760723
-5.481436,-2.6952388,-0.8760723
-8.095291,-3.212265,-1.4409714
-8.095291,-3.212265,-1.4409714
-8.095291,-3.212265,-1.4409714
-8.095291,-3.212265,-1.4409714
-12.107032,-5.1367517,-2.8292825
-12.107032,-5.1367517,-2.8292825
-12.107032,-5.1367517,-2.8292825
-16.147495000000003,-5.395264599999999,-0.45479164
-16.147495000000003,-5.395264599999999,-0.45479164
-16.147495000000003,-5.395264599999999,-0.45479164
-16.147495000000003,-5.395264599999999,-0.45479164
-16.147495000000003,-5.395264599999999,-0.45479164
-13.610238,-3.0494976,-0.85692316
-13.610238,-3.0494976,-0.85692316
-13.610238,-3.0494976,-0.85692316
-11.197449,-3.4037561000000003,-0.359046
-11.197449,-3.4037561000000003,-0.359046
-11.197449,-3.4037561000000003,-0.359046
-11.197449,-3.4037561000000003,-0.359046
-10.230417999999998,-3.6431203,-0.30159867
-10.230417999999998,-3.6431203,-0.30159867
-10.230417999999998,-3.6431203,-0.30159867
-10.230417999999998,-3.6431203,-0.30159867
-12.030436,-4.284616000000001,-0.15798025
-12.030436,-4.284616000000001,-0.15798025
-12.030436,-4.284616000000001,-0.15798025
-12.030436,-4.284616000000001,-0.15798025
-12.0400095,-4.5527034,0.43564250000000004
-12.0400095,-4.5527034,0.43564250000000004
-12.0400095,-4.5527034,0.43564250000000004
-12.0400095,-4.5527034,0.43564250000000004
-13.074062,-4.4856815,-0.23457673
-13.074062,-4.4856815,-0.23457673
-13.074062,-4.4856815,-0.23457673
-13.074062,-4.4856815,-0.23457673
-6.2091026,-3.2888615,0.54096264
-6.2091026,-3.2888615,0.54096264
-6.2091026,-3.2888615,0.54096264
-9.742115,-3.0207740000000003,-1.8431028999999999
-9.742115,-3.0207740000000003,-1.8431028999999999
-9.742115,-3.0207740000000003,-1.8431028999999999
-9.742115,-3.0207740000000003,-1.8431028999999999
-13.4666195,-2.5803439999999997,-2.1207652
-13.4666195,-2.5803439999999997,-2.1207652
-13.4666195,-2.5803439999999997,-2.1207652
-13.4666195,-2.5803439999999997,-2.1207652
-11.092129,-1.2782038,-2.4654493
-11.092129,-1.2782038,-2.4654493
-11.092129,-1.2782038,-2.4654493
-11.092129,-1.2782038,-2.4654493
-10.785743,-0.42606795,-4.610151
-10.785743,-0.42606795,-4.610151
-10.785743,-0.42606795,-4.610151
-10.785743,-0.42606795,-4.610151
-10.287866000000001,-1.5079931999999998,-2.6952388
-10.287866000000001,-1.5079931999999998,-2.6952388
-10.287866000000001,-1.5079931999999998,-2.6952388
-10.287866000000001,-1.5079931999999998,-2.6952388
-10.287866000000001,-1.5079931999999998,-2.6952388
-8.018694,-1.3165021000000001,-2.3314054
-8.018694,-1.3165021000000001,-2.3314054
-8.018694,-1.3165021000000001,-2.3314054
-7.377198700000001,-2.1590632999999997,-2.015445
-7.377198700000001,-2.1590632999999997,-2.015445
-7.377198700000001,-2.1590632999999997,-2.015445
-7.377198700000001,-2.1590632999999997,-2.015445
-8.104865,-2.2931072999999995,-1.0196906
-8.104865,-2.2931072999999995,-1.0196906
-8.104865,-2.2931072999999995,-1.0196906
-8.104865,-2.2931072999999995,-1.0196906
-10.527229,-2.2356597999999996,0.13883112
-10.527229,-2.2356597999999996,0.13883112
-10.527229,-2.2356597999999996,0.13883112
-10.527229,-2.2356597999999996,0.13883112
-10.82404,-1.6803354,0.13883112
-10.82404,-1.6803354,0.13883112
-10.82404,-1.6803354,0.13883112
-10.82404,-1.6803354,0.13883112
-11.072979,-1.3069274,-0.6750065
-11.072979,-1.3069274,-0.6750065
-11.072979,-1.3069274,-0.6750065
-11.072979,-1.3069274,-0.6750065
-11.762347,-2.5420458,0.062234644000000006
-11.762347,-2.5420458,0.062234644000000006
-11.762347,-2.5420458,0.062234644000000006
-9.828286,-1.4218222,0.5505372
-9.828286,-1.4218222,0.5505372
-9.828286,-1.4218222,0.5505372
-9.828286,-1.4218222,0.5505372
-9.177217,-1.4313968000000001,0.45479164
-9.177217,-1.4313968000000001,0.45479164
-9.177217,-1.4313968000000001,0.45479164
-9.177217,-1.4313968000000001,0.45479164
-9.339984,-2.5516202,0.54096264
-9.339984,-2.5516202,0.54096264
-9.339984,-2.5516202,0.54096264
-9.339984,-2.5516202,0.54096264
-10.2016945,-2.647366,0.2154276
-10.2016945,-2.647366,0.2154276
-10.2016945,-2.647366,0.2154276
-10.2016945,-2.647366,0.2154276
-10.345312,-2.5803439999999997,-0.71330476
-10.345312,-2.5803439999999997,-0.71330476
-10.345312,-2.5803439999999997,-0.71330476
-10.345312,-2.5803439999999997,-0.71330476
-11.475111,-2.5420458,-1.0292653
-11.475111,-2.5420458,-1.0292653
-11.475111,-2.5420458,-1.0292653
-11.475111,-2.5420458,-1.0292653
-8.727212,-1.5175678999999997,0.0
-8.727212,-1.5175678999999997,0.0
-8.727212,-1.5175678999999997,0.0
-11.235746,-1.0005416,-1.383524
-11.235746,-1.0005416,-1.383524
-11.235746,-1.0005416,-1.383524
-11.235746,-1.0005416,-1.383524
-11.484685,-2.0537431,-1.14416
-11.484685,-2.0537431,-1.14416
-11.484685,-2.0537431,-1.14416
-11.484685,-2.0537431,-1.14416
-11.484685,-2.0537431,-1.14416
-8.497422,-1.6133133999999998,-0.42606795
-8.497422,-1.6133133999999998,-0.42606795
-8.497422,-1.6133133999999998,-0.42606795
-7.5782647,-1.2590546999999999,-0.7994758000000001
-7.5782647,-1.2590546999999999,-0.7994758000000001
-7.5782647,-1.2590546999999999,-0.7994758000000001
-7.5782647,-1.2590546999999999,-0.7994758000000001
-5.8739930000000005,-1.4984187,-0.43564250000000004
-5.8739930000000005,-1.4984187,-0.43564250000000004
-5.8739930000000005,-1.4984187,-0.43564250000000004
-5.8739930000000005,-1.4984187,-0.43564250000000004
-5.8739930000000005,-1.4984187,-0.43564250000000004
-4.236743,-0.78032666,0.043085523
-4.236743,-0.78032666,0.043085523
-4.236743,-0.78032666,0.043085523
-4.236743,-0.78032666,0.043085523
-6.0463347,-1.1250108,0.09095833
-6.0463347,-1.1250108,0.09095833
-6.0463347,-1.1250108,0.09095833
-8.152739,-1.8431028999999999,0.00478728
-8.152739,-1.8431028999999999,0.00478728
-8.152739,-1.8431028999999999,0.00478728
-8.152739,-1.8431028999999999,0.00478728
-8.152739,-1.8431028999999999,0.00478728
-15.716641000000001,-2.1590632999999997,-0.71330476
-15.716641000000001,-2.1590632999999997,-0.71330476
-15.716641000000001,-2.1590632999999997,-0.71330476
-15.716641000000001,-2.1590632999999997,-0.71330476
-18.857098,-2.149489,-1.2494801000000002
-18.857098,-2.149489,-1.2494801000000002
-18.857098,-2.149489,-1.2494801000000002
-14.424075,-1.7377827000000001,0.43564250000000004
-14.424075,-1.7377827000000001,0.43564250000000004
-14.424075,-1.7377827000000001,0.43564250000000004
-14.424075,-1.7377827000000001,0.43564250000000004
-14.424075,-1.7377827000000001,0.43564250000000004
-9.885734,-2.3888528,-0.05266008
-9.885734,-2.3888528,-0.05266008
-9.885734,-2.3888528,-0.05266008
-9.885734,-2.3888528,-0.05266008
-7.386773599999999,-3.039923,-0.03351096
-7.386773599999999,-3.039923,-0.03351096
-7.386773599999999,-3.039923,-0.03351096
-7.386773599999999,-3.039923,-0.03351096
-6.592085000000001,-2.149489,0.78032666
-6.592085000000001,-2.149489,0.78032666
-6.592085000000001,-2.149489,0.78032666
-6.592085000000001,-2.149489,0.78032666
-6.3431463,-2.360129,0.6271336999999999
-6.3431463,-2.360129,0.6271336999999999
-6.3431463,-2.360129,0.6271336999999999
-6.3431463,-2.360129,0.6271336999999999
-9.426155,-3.9782297999999994,-0.47394073
-9.426155,-3.9782297999999994,-0.47394073
-9.426155,-3.9782297999999994,-0.47394073
-9.426155,-3.9782297999999994,-0.47394073
-13.016615,-5.041005999999999,0.043085523
-13.016615,-5.041005999999999,0.043085523
-13.016615,-5.041005999999999,0.043085523
-13.016615,-5.041005999999999,0.043085523
-18.292198000000003,-0.2920241,0.8473485999999999
-18.292198000000003,-0.2920241,0.8473485999999999
-18.292198000000003,-0.2920241,0.8473485999999999
-18.292198000000003,-0.2920241,0.8473485999999999
-15.927280999999999,-1.3930986,-1.0484143
-15.927280999999999,-1.3930986,-1.0484143
-15.927280999999999,-1.3930986,-1.0484143
-11.657027000000001,-0.63670826,-1.2877783999999999
-11.657027000000001,-0.63670826,-1.2877783999999999
-11.657027000000001,-0.63670826,-1.2877783999999999
-11.657027000000001,-0.63670826,-1.2877783999999999
-11.657027000000001,-0.63670826,-1.2877783999999999
-6.4197426,-0.30159867,0.78990126
-6.4197426,-0.30159867,0.78990126
-6.4197426,-0.30159867,0.78990126
-6.4197426,-0.30159867,0.78990126
-6.2378263,-0.44521707,0.3398969
-6.2378263,-0.44521707,0.3398969
-6.2378263,-0.44521707,0.3398969
-6.467615599999999,-0.0718092,-1.4313968000000001
-6.467615599999999,-0.0718092,-1.4313968000000001
-6.467615599999999,-0.0718092,-1.4313968000000001
-6.467615599999999,-0.0718092,-1.4313968000000001
-6.467615599999999,-0.0718092,-1.4313968000000001
-8.803808,-0.7420284,-1.1633091
-8.803808,-0.7420284,-1.1633091
-8.803808,-0.7420284,-1.1633091
-8.803808,-0.7420284,-1.1633091
-13.974070999999999,-3.3175852,-1.2877783999999999
-13.974070999999999,-3.3175852,-1.2877783999999999
-13.974070999999999,-3.3175852,-1.2877783999999999
-13.974070999999999,-3.3175852,-1.2877783999999999
-17.258144,-3.2984362000000003,-1.8909756999999998
-17.258144,-3.2984362000000003,-1.8909756999999998
-17.258144,-3.2984362000000003,-1.8909756999999998
-17.258144,-3.2984362000000003,-1.8909756999999998
-18.76135,-3.0973704,-0.30159867
-18.76135,-3.0973704,-0.30159867
-18.76135,-3.0973704,-0.30159867
-18.76135,-3.0973704,-0.30159867
-12.729378,-3.0877957,-0.5888355
-12.729378,-3.0877957,-0.5888355
-12.729378,-3.0877957,-0.5888355
-12.729378,-3.0877957,-0.5888355
-8.679339,-2.5803439999999997,-0.03351096
-8.679339,-2.5803439999999997,-0.03351096
-8.679339,-2.5803439999999997,-0.03351096
-8.679339,-2.5803439999999997,-0.03351096
-8.305931,-2.6090677,-0.56011176
-8.305931,-2.6090677,-0.56011176
-8.305931,-2.6090677,-0.56011176
-8.305931,-2.6090677,-0.56011176
-8.717637,-4.6005764000000005,-0.91437054
-8.717637,-4.6005764000000005,-0.91437054
-8.717637,-4.6005764000000005,-0.91437054
-8.717637,-4.6005764000000005,-0.91437054
-11.101703,-6.132505999999999,-2.1399142999999996
-11.101703,-6.132505999999999,-2.1399142999999996
-11.101703,-6.132505999999999,-2.1399142999999996
-11.101703,-6.132505999999999,-2.1399142999999996
-14.912378,-3.8920587999999996,0.8952214
-14.912378,-3.8920587999999996,0.8952214
-14.912378,-3.8920587999999996,0.8952214
-14.912378,-3.8920587999999996,0.8952214
-16.559202,-2.6952388,0.90479594
-16.559202,-2.6952388,0.90479594
-16.559202,-2.6952388,0.90479594
-16.559202,-2.6952388,0.90479594
-13.141085,0.22500217,0.6845810999999999
-13.141085,0.22500217,0.6845810999999999
-13.141085,0.22500217,0.6845810999999999
-13.141085,0.22500217,0.6845810999999999
-7.769756,0.54096264,1.1824582000000001
-7.769756,0.54096264,1.1824582000000001
-7.769756,0.54096264,1.1824582000000001
-7.769756,0.54096264,1.1824582000000001
-6.831449,1.3356511999999998,0.25372586
-6.831449,1.3356511999999998,0.25372586
-6.831449,1.3356511999999998,0.25372586
-6.831449,1.3356511999999998,0.25372586
-6.218677,1.1633091,0.17712937
-6.218677,1.1633091,0.17712937
-6.218677,1.1633091,0.17712937
-6.218677,1.1633091,0.17712937
-10.172971,-0.359046,-0.8856468000000001
-10.172971,-0.359046,-0.8856468000000001
-10.172971,-0.359046,-0.8856468000000001
-10.172971,-0.359046,-0.8856468000000001
-18.091131,-1.9579976000000003,-2.666515
-18.091131,-1.9579976000000003,-2.666515
-18.091131,-1.9579976000000003,-2.666515
-18.091131,-1.9579976000000003,-2.666515
-18.273048,-3.4324798999999997,-2.2931072999999995
-18.273048,-3.4324798999999997,-2.2931072999999995
-18.273048,-3.4324798999999997,-2.2931072999999995
-18.273048,-3.4324798999999997,-2.2931072999999995
-15.103869,-3.3367343000000003,-0.40691882
-15.103869,-3.3367343000000003,-0.40691882
-15.103869,-3.3367343000000003,-0.40691882
-15.103869,-3.3367343000000003,-0.40691882
-11.475111,-3.2026904,-0.36862057
-11.475111,-3.2026904,-0.36862057
-11.475111,-3.2026904,-0.36862057
-11.475111,-3.2026904,-0.36862057
-7.3676243,-3.1643922000000004,-0.05266008
-7.3676243,-3.1643922000000004,-0.05266008
-7.3676243,-3.1643922000000004,-0.05266008
-7.3676243,-3.1643922000000004,-0.05266008
-7.042089,-2.647366,-0.19627848
-7.042089,-2.647366,-0.19627848
-7.042089,-2.647366,-0.19627848
-7.042089,-2.647366,-0.19627848
-7.042089,-2.647366,-0.19627848
-7.9037995,-3.777164,-0.92394507
-7.9037995,-3.777164,-0.92394507
-7.9037995,-3.777164,-0.92394507
-9.330409,-5.1367517,-1.2016073
-9.330409,-5.1367517,-1.2016073
-9.330409,-5.1367517,-1.2016073
-9.330409,-5.1367517,-1.2016073
-14.596417,-5.1271772,-0.2154276
-14.596417,-5.1271772,-0.2154276
-14.596417,-5.1271772,-0.2154276
-14.596417,-5.1271772,-0.2154276
-17.487934,-2.88673,0.46436617
-17.487934,-2.88673,0.46436617
-17.487934,-2.88673,0.46436617
-17.487934,-2.88673,0.46436617
-17.315592000000002,-0.17712937,-0.512239
-17.315592000000002,-0.17712937,-0.512239
-17.315592000000002,-0.17712937,-0.512239
-17.315592000000002,-0.17712937,-0.512239
-10.307014,-0.5888355,0.8952214
-10.307014,-0.5888355,0.8952214
-10.307014,-0.5888355,0.8952214
-10.307014,-0.5888355,0.8952214
-6.8601727,-0.8952214,0.30159867
-6.8601727,-0.8952214,0.30159867
-6.8601727,-0.8952214,0.30159867
-6.8601727,-0.8952214,0.30159867
-6.8601727,-0.8952214,0.30159867
-6.678256,0.17712937,-0.16755481
-6.678256,0.17712937,-0.16755481
-6.678256,0.17712937,-0.16755481
-5.414414,-0.7228793,-0.12925656
-5.414414,-0.7228793,-0.12925656
-5.414414,-0.7228793,-0.12925656
-5.414414,-0.7228793,-0.12925656
-6.2474008,-1.9005502,0.062234644000000006
-6.2474008,-1.9005502,0.062234644000000006
-6.2474008,-1.9005502,0.062234644000000006
-6.2474008,-1.9005502,0.062234644000000006
-6.2474008,-1.9005502,0.062234644000000006
-12.116607,-3.4324798999999997,-0.0718092
-12.116607,-3.4324798999999997,-0.0718092
-12.116607,-3.4324798999999997,-0.0718092
-17.583681,-3.451629,-1.7473572
-17.583681,-3.451629,-1.7473572
-17.583681,-3.451629,-1.7473572
-17.583681,-3.451629,-1.7473572
-17.583681,-3.451629,-1.7473572
-19.192207,-4.5622783,-0.5313880999999999
-19.192207,-4.5622783,-0.5313880999999999
-19.192207,-4.5622783,-0.5313880999999999
-19.192207,-4.5622783,-0.5313880999999999
-15.5060005,-3.3271596,-0.63670826
-15.5060005,-3.3271596,-0.63670826
-15.5060005,-3.3271596,-0.63670826
-11.063405,-3.4324798999999997,-0.70373017
-11.063405,-3.4324798999999997,-0.70373017
-11.063405,-3.4324798999999997,-0.70373017
-11.063405,-3.4324798999999997,-0.70373017
-11.063405,-3.4324798999999997,-0.70373017
-6.8027253,-3.690993,-0.5792609000000001
-6.8027253,-3.690993,-0.5792609000000001
-6.8027253,-3.690993,-0.5792609000000001
-6.8027253,-3.690993,-0.5792609000000001
-5.108028,-2.9824755,-0.78032666
-5.108028,-2.9824755,-0.78032666
-5.108028,-2.9824755,-0.78032666
-5.108028,-2.9824755,-0.78032666
-5.941015,-3.5760984,-1.4505458999999998
-5.941015,-3.5760984,-1.4505458999999998
-5.941015,-3.5760984,-1.4505458999999998
-5.941015,-3.5760984,-1.4505458999999998
-10.460207,-5.041005999999999,-2.168638
-10.460207,-5.041005999999999,-2.168638
-10.460207,-5.041005999999999,-2.168638
-10.460207,-5.041005999999999,-2.168638
-18.397517999999998,-6.630383,0.09095833
-18.397517999999998,-6.630383,0.09095833
-18.397517999999998,-6.630383,0.09095833
-18.397517999999998,-6.630383,0.09095833
-19.412422,0.5792609000000001,0.6558574
-19.412422,0.5792609000000001,0.6558574
-19.412422,0.5792609000000001,0.6558574
-19.412422,0.5792609000000001,0.6558574
-13.083637,-1.2111819,0.77075213
-13.083637,-1.2111819,0.77075213
-13.083637,-1.2111819,0.77075213
-13.083637,-1.2111819,0.77075213
-7.3676243,-0.77075213,1.4888442
-7.3676243,-0.77075213,1.4888442
-7.3676243,-0.77075213,1.4888442
-7.3676243,-0.77075213,1.4888442
-6.1229315,0.023936402000000002,0.59841
-6.1229315,0.023936402000000002,0.59841
-6.1229315,0.023936402000000002,0.59841
-6.1229315,0.023936402000000002,0.59841
-5.7495236,-0.3398969,-0.023936402000000002
-5.7495236,-0.3398969,-0.023936402000000002
-5.7495236,-0.3398969,-0.023936402000000002
-5.7495236,-0.3398969,-0.023936402000000002
-6.7931504,-1.0005416,0.081383765
-6.7931504,-1.0005416,0.081383765
-6.7931504,-1.0005416,0.081383765
-6.7931504,-1.0005416,0.081383765
-12.940019,-3.451629,-1.3260766000000002
-12.940019,-3.451629,-1.3260766000000002
-12.940019,-3.451629,-1.3260766000000002
-12.940019,-3.451629,-1.3260766000000002
-18.139006,-3.6431203,-0.61755913
-18.139006,-3.6431203,-0.61755913
-18.139006,-3.6431203,-0.61755913
-18.139006,-3.6431203,-0.61755913
-18.330496,-3.1835412999999995,0.6845810999999999
-18.330496,-3.1835412999999995,0.6845810999999999
-18.330496,-3.1835412999999995,0.6845810999999999
-18.330496,-3.1835412999999995,0.6845810999999999
-13.390023000000001,-2.1111906000000005,-0.6271336999999999
-13.390023000000001,-2.1111906000000005,-0.6271336999999999
-13.390023000000001,-2.1111906000000005,-0.6271336999999999
-13.390023000000001,-2.1111906000000005,-0.6271336999999999
-8.832532,-5.1846247000000005,-0.8281995000000001
-8.832532,-5.1846247000000005,-0.8281995000000001
-8.832532,-5.1846247000000005,-0.8281995000000001
-8.832532,-5.1846247000000005,-0.8281995000000001
-5.519734,-4.9069624,-1.3165021000000001
-5.519734,-4.9069624,-1.3165021000000001
-5.519734,-4.9069624,-1.3165021000000001
-5.519734,-4.9069624,-1.3165021000000001
-5.653778,-3.5952474999999997,-0.7228793
-5.653778,-3.5952474999999997,-0.7228793
-5.653778,-3.5952474999999997,-0.7228793
-5.653778,-3.5952474999999997,-0.7228793
-9.320834,-4.5239797,-0.7420284
-9.320834,-4.5239797,-0.7420284
-9.320834,-4.5239797,-0.7420284
-9.320834,-4.5239797,-0.7420284
-15.9177065,-5.644203,-1.5845897
-15.9177065,-5.644203,-1.5845897
-15.9177065,-5.644203,-1.5845897
-15.9177065,-5.644203,-1.5845897
-17.468785999999998,-3.7867386,-1.0005416
-17.468785999999998,-3.7867386,-1.0005416
-17.468785999999998,-3.7867386,-1.0005416
-17.468785999999998,-3.7867386,-1.0005416
-18.301773,-0.6750065,-2.0250196
-18.301773,-0.6750065,-2.0250196
-18.301773,-0.6750065,-2.0250196
-18.301773,-0.6750065,-2.0250196
-12.777251,-2.9537517999999996,-0.8856468000000001
-12.777251,-2.9537517999999996,-0.8856468000000001
-12.777251,-2.9537517999999996,-0.8856468000000001
-12.777251,-2.9537517999999996,-0.8856468000000001
-11.609155,-1.2303311000000001,-1.3069274
-11.609155,-1.2303311000000001,-1.3069274
-11.609155,-1.2303311000000001,-1.3069274
-11.609155,-1.2303311000000001,-1.3069274
-8.727212,1.0771381000000002,-1.4888442
-8.727212,1.0771381000000002,-1.4888442
-8.727212,1.0771381000000002,-1.4888442
-8.727212,1.0771381000000002,-1.4888442
-4.8973875,-0.12925656,-0.2441513
-4.8973875,-0.12925656,-0.2441513
-4.8973875,-0.12925656,-0.2441513
-4.8973875,-0.12925656,-0.2441513
-4.8973875,-0.12925656,-0.2441513
-5.7686725,-1.6133133999999998,-0.5505372
-5.7686725,-1.6133133999999998,-0.5505372
-5.7686725,-1.6133133999999998,-0.5505372
-10.249566999999999,-8.200611,-1.1345854
-10.249566999999999,-8.200611,-1.1345854
-10.249566999999999,-8.200611,-1.1345854
-10.249566999999999,-8.200611,-1.1345854
-14.175137,-4.849515,-1.5367169
-14.175137,-4.849515,-1.5367169
-14.175137,-4.849515,-1.5367169
-14.175137,-4.849515,-1.5367169
-14.175137,-4.849515,-1.5367169
-17.794321,-3.4803526,1.6037389
-17.794321,-3.4803526,1.6037389
-17.794321,-3.4803526,1.6037389
-13.198531,-5.653778,-0.023936402000000002
-13.198531,-5.653778,-0.023936402000000002
-13.198531,-5.653778,-0.023936402000000002
-13.198531,-5.653778,-0.023936402000000002
-13.198531,-5.653778,-0.023936402000000002
-9.234664,-3.9399316,-0.48351530000000004
-9.234664,-3.9399316,-0.48351530000000004
-9.234664,-3.9399316,-0.48351530000000004
-11.092129,-3.2218397000000003,-0.40691882
-11.092129,-3.2218397000000003,-0.40691882
-11.092129,-3.2218397000000003,-0.40691882
-11.092129,-3.2218397000000003,-0.40691882
-11.178299,-4.993133,0.78032666
-11.178299,-4.993133,0.78032666
-11.178299,-4.993133,0.78032666
-11.178299,-4.993133,0.78032666
-12.3463955,-4.0931244,-0.42606795
-12.3463955,-4.0931244,-0.42606795
-12.3463955,-4.0931244,-0.42606795
-12.3463955,-4.0931244,-0.42606795
-7.961247,-3.7963133,-1.2303311000000001
-7.961247,-3.7963133,-1.2303311000000001
-7.961247,-3.7963133,-1.2303311000000001
-7.961247,-3.7963133,-1.2303311000000001
-12.528313,-4.016528,-3.3750327000000007
-12.528313,-4.016528,-3.3750327000000007
-12.528313,-4.016528,-3.3750327000000007
-12.528313,-4.016528,-3.3750327000000007
-12.920869,-1.5750152,-3.7101421
-12.920869,-1.5750152,-3.7101421
-12.920869,-1.5750152,-3.7101421
-12.920869,-1.5750152,-3.7101421
-11.26447,-0.78990126,-3.0303482999999996
-11.26447,-0.78990126,-3.0303482999999996
-11.26447,-0.78990126,-3.0303482999999996
-11.26447,-0.78990126,-3.0303482999999996
-10.105948,-1.5941644,-2.7718353
-10.105948,-1.5941644,-2.7718353
-10.105948,-1.5941644,-2.7718353
-10.105948,-1.5941644,-2.7718353
-8.21976,-2.1399142999999996,-2.5228968
-8.21976,-2.1399142999999996,-2.5228968
-8.21976,-2.1399142999999996,-2.5228968
-8.21976,-2.1399142999999996,-2.5228968
-7.597413499999999,-2.1590632999999997,-2.3792782000000003
-7.597413499999999,-2.1590632999999997,-2.3792782000000003
-7.597413499999999,-2.1590632999999997,-2.3792782000000003
-9.8953085,-1.948423,-1.8526775000000002
-9.8953085,-1.948423,-1.8526775000000002
-9.8953085,-1.948423,-1.8526775000000002
-9.8953085,-1.948423,-1.8526775000000002
-10.871913000000001,-2.752686,-1.2111819
-10.871913000000001,-2.752686,-1.2111819
-10.871913000000001,-2.752686,-1.2111819
-10.871913000000001,-2.752686,-1.2111819
-9.761265,-1.7952299999999999,-0.8664976999999999
-9.761265,-1.7952299999999999,-0.8664976999999999
-9.761265,-1.7952299999999999,-0.8664976999999999
-9.761265,-1.7952299999999999,-0.8664976999999999
-10.766592999999999,-2.714388,-0.69415563
-10.766592999999999,-2.714388,-0.69415563
-10.766592999999999,-2.714388,-0.69415563
-10.766592999999999,-2.714388,-0.69415563
-9.148492999999998,-2.2931072999999995,0.20585304
-9.148492999999998,-2.2931072999999995,0.20585304
-9.148492999999998,-2.2931072999999995,0.20585304
-9.148492999999998,-2.2931072999999995,0.20585304
-9.952755999999999,-1.3930986,-0.023936402000000002
-9.952755999999999,-1.3930986,-0.023936402000000002
-9.952755999999999,-1.3930986,-0.023936402000000002
-9.952755999999999,-1.3930986,-0.023936402000000002
-10.06765,-1.0675635,0.17712937
-10.06765,-1.0675635,0.17712937
-10.06765,-1.0675635,0.17712937
-9.407005,-2.0441686999999997,0.7994758000000001
-9.407005,-2.0441686999999997,0.7994758000000001
-9.407005,-2.0441686999999997,0.7994758000000001
-9.407005,-2.0441686999999997,0.7994758000000001
-11.714475,-3.4324798999999997,-0.22500217
-11.714475,-3.4324798999999997,-0.22500217
-11.714475,-3.4324798999999997,-0.22500217
-11.714475,-3.4324798999999997,-0.22500217
-11.408089,-3.0016246,-0.10053288
-11.408089,-3.0016246,-0.10053288
-11.408089,-3.0016246,-0.10053288
-11.408089,-3.0016246,-0.10053288
-10.460207,-1.5175678999999997,-0.7994758000000001
-10.460207,-1.5175678999999997,-0.7994758000000001
-10.460207,-1.5175678999999997,-0.7994758000000001
-10.460207,-1.5175678999999997,-0.7994758000000001
-11.149575,-1.6611862000000002,-2.4367256
-11.149575,-1.6611862000000002,-2.4367256
-11.149575,-1.6611862000000002,-2.4367256
-11.149575,-1.6611862000000002,-2.4367256
-15.103869,-1.2207563999999997,-3.1356685
-15.103869,-1.2207563999999997,-3.1356685
-15.103869,-1.2207563999999997,-3.1356685
-10.584677000000001,-1.6324625,-1.0101161
-10.584677000000001,-1.6324625,-1.0101161
-10.584677000000001,-1.6324625,-1.0101161
-10.584677000000001,-1.6324625,-1.0101161
-10.584677000000001,-1.6324625,-1.0101161
-8.056992999999999,-1.0484143,-1.6994845
-8.056992999999999,-1.0484143,-1.6994845
-8.056992999999999,-1.0484143,-1.6994845
-8.056992999999999,-1.0484143,-1.6994845
-5.3186684,-1.4984187,-1.7952299999999999
-5.3186684,-1.4984187,-1.7952299999999999
-5.3186684,-1.4984187,-1.7952299999999999
-5.3186684,-1.4984187,-1.7952299999999999
-4.5144053,-1.0484143,-1.1537346000000002
-4.5144053,-1.0484143,-1.1537346000000002
-4.5144053,-1.0484143,-1.1537346000000002
-4.5144053,-1.0484143,-1.1537346000000002
-5.1176023,-0.91437054,-1.0579889
-5.1176023,-0.91437054,-1.0579889
-5.1176023,-0.91437054,-1.0579889
-5.1176023,-0.91437054,-1.0579889
-6.391019,-1.4026731000000001,-0.78990126
-6.391019,-1.4026731000000001,-0.78990126
-6.391019,-1.4026731000000001,-0.78990126
-6.391019,-1.4026731000000001,-0.78990126
-10.460207,-2.3314054,-0.26330042
-10.460207,-2.3314054,-0.26330042
-10.460207,-2.3314054,-0.26330042
-10.460207,-2.3314054,-0.26330042
-18.474113,-2.6282167000000003,-0.92394507
-18.474113,-2.6282167000000003,-0.92394507
-18.474113,-2.6282167000000003,-0.92394507
-18.474113,-2.6282167000000003,-0.92394507
-19.603912,-2.2931072999999995,-2.0537431
-19.603912,-2.2931072999999995,-2.0537431
-19.603912,-2.2931072999999995,-2.0537431
-14.299605999999999,-2.7718353,-0.00478728
-14.299605999999999,-2.7718353,-0.00478728
-14.299605999999999,-2.7718353,-0.00478728
-14.299605999999999,-2.7718353,-0.00478728
-14.299605999999999,-2.7718353,-0.00478728
-9.339984,-3.1739669999999998,0.85692316
-9.339984,-3.1739669999999998,0.85692316
-9.339984,-3.1739669999999998,0.85692316
-9.339984,-3.1739669999999998,0.85692316
-6.745278,-3.5952474999999997,0.8473485999999999
-6.745278,-3.5952474999999997,0.8473485999999999
-6.745278,-3.5952474999999997,0.8473485999999999
-2.9824755,-2.360129,0.665432
-2.9824755,-2.360129,0.665432
-2.9824755,-2.360129,0.665432
-2.9824755,-2.360129,0.665432
-2.9824755,-2.360129,0.665432
-7.2048570000000005,-3.3271596,-0.6845810999999999
-7.2048570000000005,-3.3271596,-0.6845810999999999
-7.2048570000000005,-3.3271596,-0.6845810999999999
-7.2048570000000005,-3.3271596,-0.6845810999999999
-11.350641,-5.222923000000001,-1.6228879999999999
-11.350641,-5.222923000000001,-1.6228879999999999
-11.350641,-5.222923000000001,-1.6228879999999999
-11.350641,-5.222923000000001,-1.6228879999999999
-17.679426,-2.7622607000000006,-0.83777404
-17.679426,-2.7622607000000006,-0.83777404
-17.679426,-2.7622607000000006,-0.83777404
-17.679426,-2.7622607000000006,-0.83777404
-17.382614,-1.3739493999999999,-0.14840569
-17.382614,-1.3739493999999999,-0.14840569
-17.382614,-1.3739493999999999,-0.14840569
-14.519820999999999,0.8473485999999999,-0.15798025
-14.519820999999999,0.8473485999999999,-0.15798025
-14.519820999999999,0.8473485999999999,-0.15798025
-14.519820999999999,0.8473485999999999,-0.15798025
-7.855927,2.254809,0.47394073
-7.855927,2.254809,0.47394073
-7.855927,2.254809,0.47394073
-7.855927,2.254809,0.47394073
-5.0601554,1.6037389,0.13883112
-5.0601554,1.6037389,0.13883112
-5.0601554,1.6037389,0.13883112
-5.0601554,1.6037389,0.13883112
-6.630383,0.90479594,-0.83777404
-6.630383,0.90479594,-0.83777404
-6.630383,0.90479594,-0.83777404
-6.630383,0.90479594,-0.83777404
-9.876159,0.44521707,-1.1250108
-9.876159,0.44521707,-1.1250108
-9.876159,0.44521707,-1.1250108
-9.876159,0.44521707,-1.1250108
-14.510245999999999,-2.1590632999999997,-1.3165021000000001
-14.510245999999999,-2.1590632999999997,-1.3165021000000001
-14.510245999999999,-2.1590632999999997,-1.3165021000000001
-14.510245999999999,-2.1590632999999997,-1.3165021000000001
-16.434732,-4.1409974,-2.1399142999999996
-16.434732,-4.1409974,-2.1399142999999996
-16.434732,-4.1409974,-2.1399142999999996
-13.8879,-2.5324712000000003,-0.8952214
-13.8879,-2.5324712000000003,-0.8952214
-13.8879,-2.5324712000000003,-0.8952214
-13.8879,-2.5324712000000003,-0.8952214
-9.952755999999999,-3.193116,-0.5888355
-9.952755999999999,-3.193116,-0.5888355
-9.952755999999999,-3.193116,-0.5888355
-9.952755999999999,-3.193116,-0.5888355
-6.47719,-3.8250370000000005,-0.05266008
-6.47719,-3.8250370000000005,-0.05266008
-6.47719,-3.8250370000000005,-0.05266008
-6.47719,-3.8250370000000005,-0.05266008
-4.409085299999999,-2.6282167000000003,0.18670394
-4.409085299999999,-2.6282167000000003,0.18670394
-4.409085299999999,-2.6282167000000003,0.18670394
-4.409085299999999,-2.6282167000000003,0.18670394
-5.3378177,-3.078221,0.30159867
-5.3378177,-3.078221,0.30159867
-5.3378177,-3.078221,0.30159867
-5.3378177,-3.078221,0.30159867
-9.876159,-4.581427,-0.03351096
-9.876159,-4.581427,-0.03351096
-9.876159,-4.581427,-0.03351096
-9.876159,-4.581427,-0.03351096
-18.35922,-4.648448999999999,-0.76117754
-18.35922,-4.648448999999999,-0.76117754
-18.35922,-4.648448999999999,-0.76117754
-17.823044,-1.6324625,-0.44521707
-17.823044,-1.6324625,-0.44521707
-17.823044,-1.6324625,-0.44521707
-17.823044,-1.6324625,-0.44521707
-17.823044,-1.6324625,-0.44521707
-13.198531,-0.10053288,-0.23457673
-13.198531,-0.10053288,-0.23457673
-13.198531,-0.10053288,-0.23457673
-7.1857076,0.2441513,-0.36862057
-7.1857076,0.2441513,-0.36862057
-7.1857076,0.2441513,-0.36862057
-7.1857076,0.2441513,-0.36862057
-4.658024,0.50266445,-0.2154276
-4.658024,0.50266445,-0.2154276
-4.658024,0.50266445,-0.2154276
-4.658024,0.50266445,-0.2154276
-4.696322,0.3877697,-0.2441513
-4.696322,0.3877697,-0.2441513
-4.696322,0.3877697,-0.2441513
-4.696322,0.3877697,-0.2441513
-8.305931,0.023936402000000002,-0.8952214
-8.305931,0.023936402000000002,-0.8952214
-8.305931,0.023936402000000002,-0.8952214
-8.305931,0.023936402000000002,-0.8952214
-12.145328999999998,-0.05266008,-1.2877783999999999
-12.145328999999998,-0.05266008,-1.2877783999999999
-12.145328999999998,-0.05266008,-1.2877783999999999
-12.145328999999998,-0.05266008,-1.2877783999999999
-14.318755,-1.1537346000000002,-1.4984187
-14.318755,-1.1537346000000002,-1.4984187
-14.318755,-1.1537346000000002,-1.4984187
-16.798567000000002,-2.6186423,-2.034594
-16.798567000000002,-2.6186423,-2.034594
-16.798567000000002,-2.6186423,-2.034594
-16.798567000000002,-2.6186423,-2.034594
-13.610238,-3.5090763999999997,-0.7324539000000001
-13.610238,-3.5090763999999997,-0.7324539000000001
-13.610238,-3.5090763999999997,-0.7324539000000001
-13.610238,-3.5090763999999997,-0.7324539000000001
-9.091045,-2.6856642,0.16755481
-9.091045,-2.6856642,0.16755481
-9.091045,-2.6856642,0.16755481
-9.091045,-2.6856642,0.16755481
-6.620808599999999,-2.3984275,0.9526688
-6.620808599999999,-2.3984275,0.9526688
-6.620808599999999,-2.3984275,0.9526688
-6.620808599999999,-2.3984275,0.9526688
-5.2133484,-2.360129,0.9526688
-5.2133484,-2.360129,0.9526688
-5.2133484,-2.360129,0.9526688
-5.2133484,-2.360129,0.9526688
-7.721883,-2.8484317999999997,0.61755913
-7.721883,-2.8484317999999997,0.61755913
-7.721883,-2.8484317999999997,0.61755913
-7.721883,-2.8484317999999997,0.61755913
-12.719804,-4.2080193,-0.36862057
-12.719804,-4.2080193,-0.36862057
-12.719804,-4.2080193,-0.36862057
-14.87408,-3.7101421,-0.4164934
-14.87408,-3.7101421,-0.4164934
-14.87408,-3.7101421,-0.4164934
-14.87408,-3.7101421,-0.4164934
-14.87408,-3.7101421,-0.4164934
-18.167728,-2.101616,-0.14840569
-18.167728,-2.101616,-0.14840569
-18.167728,-2.101616,-0.14840569
-13.983645000000001,-0.92394507,0.19627848
-13.983645000000001,-0.92394507,0.19627848
-13.983645000000001,-0.92394507,0.19627848
-13.983645000000001,-0.92394507,0.19627848
-8.727212,-0.49308985,0.76117754
-8.727212,-0.49308985,0.76117754
-8.727212,-0.49308985,0.76117754
-8.727212,-0.49308985,0.76117754
-7.214431299999999,-0.14840569,1.1058618
-7.214431299999999,-0.14840569,1.1058618
-7.214431299999999,-0.14840569,1.1058618
-7.214431299999999,-0.14840569,1.1058618
-6.706979799999999,0.3877697,0.2154276
-6.706979799999999,0.3877697,0.2154276
-6.706979799999999,0.3877697,0.2154276
-6.706979799999999,0.3877697,0.2154276
-6.5729356,-0.36862057,-0.359046
-6.5729356,-0.36862057,-0.359046
-6.5729356,-0.36862057,-0.359046
-6.5729356,-0.36862057,-0.359046
-10.326163000000001,-2.2356597999999996,-1.0292653
-10.326163000000001,-2.2356597999999996,-1.0292653
-10.326163000000001,-2.2356597999999996,-1.0292653
-10.326163000000001,-2.2356597999999996,-1.0292653
-14.002794,-4.150572,-1.2590546999999999
-14.002794,-4.150572,-1.2590546999999999
-14.002794,-4.150572,-1.2590546999999999
-14.414501000000001,-3.4899273,-0.78990126
-14.414501000000001,-3.4899273,-0.78990126
-14.414501000000001,-3.4899273,-0.78990126
-14.414501000000001,-3.4899273,-0.78990126
-14.280457,-3.604822,0.16755481
-14.280457,-3.604822,0.16755481
-14.280457,-3.604822,0.16755481
-14.280457,-3.604822,0.16755481
-11.063405,-4.2271686,0.6558574
-11.063405,-4.2271686,0.6558574
-11.063405,-4.2271686,0.6558574
-11.063405,-4.2271686,0.6558574
-5.9027166,-1.5654407,0.665432
-5.9027166,-1.5654407,0.665432
-5.9027166,-1.5654407,0.665432
-5.9027166,-1.5654407,0.665432
-6.6016593,-1.7569318999999999,0.9718179
-6.6016593,-1.7569318999999999,0.9718179
-6.6016593,-1.7569318999999999,0.9718179
-6.6016593,-1.7569318999999999,0.9718179
-9.167641999999999,-4.169721,1.0005416
-9.167641999999999,-4.169721,1.0005416
-9.167641999999999,-4.169721,1.0005416
-9.167641999999999,-4.169721,1.0005416
-15.209189000000002,-6.3622955999999995,-0.10053288
-15.209189000000002,-6.3622955999999995,-0.10053288
-15.209189000000002,-6.3622955999999995,-0.10053288
-18.454966,-0.7420284,-0.023936402000000002
-18.454966,-0.7420284,-0.023936402000000002
-18.454966,-0.7420284,-0.023936402000000002
-18.454966,-0.7420284,-0.023936402000000002
-16.645372000000002,-1.1058618,-1.5079931999999998
-16.645372000000002,-1.1058618,-1.5079931999999998
-16.645372000000002,-1.1058618,-1.5079931999999998
-16.645372000000002,-1.1058618,-1.5079931999999998
-10.134672,-2.6186423,-1.7569318999999999
-10.134672,-2.6186423,-1.7569318999999999
-10.134672,-2.6186423,-1.7569318999999999
-10.134672,-2.6186423,-1.7569318999999999
-8.516571,1.6803354,0.47394073
-8.516571,1.6803354,0.47394073
-8.516571,1.6803354,0.47394073
-8.516571,1.6803354,0.47394073
-6.0176110000000005,0.28244954,-0.39734426
-6.0176110000000005,0.28244954,-0.39734426
-6.0176110000000005,0.28244954,-0.39734426
-6.0176110000000005,0.28244954,-0.39734426
-7.300602400000001,-0.6845810999999999,-1.9579976000000003
-7.300602400000001,-0.6845810999999999,-1.9579976000000003
-7.300602400000001,-0.6845810999999999,-1.9579976000000003
-10.795316999999999,-1.4888442,-1.948423
-10.795316999999999,-1.4888442,-1.948423
-10.795316999999999,-1.4888442,-1.948423
-10.795316999999999,-1.4888442,-1.948423
-10.795316999999999,-1.4888442,-1.948423
-12.805975,-1.3739493999999999,-1.1537346000000002
-12.805975,-1.3739493999999999,-1.1537346000000002
-12.805975,-1.3739493999999999,-1.1537346000000002
-14.682589000000002,-2.149489,-0.359046
-14.682589000000002,-2.149489,-0.359046
-14.682589000000002,-2.149489,-0.359046
-14.682589000000002,-2.149489,-0.359046
-15.726215,-2.8580062,-0.5792609000000001
-15.726215,-2.8580062,-0.5792609000000001
-15.726215,-2.8580062,-0.5792609000000001
-15.726215,-2.8580062,-0.5792609000000001
-13.753855999999999,-3.844186,0.062234644000000006
-13.753855999999999,-3.844186,0.062234644000000006
-13.753855999999999,-3.844186,0.062234644000000006
-13.753855999999999,-3.844186,0.062234644000000006
-7.808053999999999,-3.193116,1.4984187
-7.808053999999999,-3.193116,1.4984187
-7.808053999999999,-3.193116,1.4984187
-7.808053999999999,-3.193116,1.4984187
-7.559115400000001,-2.321831,0.7420284
-7.559115400000001,-2.321831,0.7420284
-7.559115400000001,-2.321831,0.7420284
-7.559115400000001,-2.321831,0.7420284
-9.7899885,-4.3995104000000005,-0.32074776
-9.7899885,-4.3995104000000005,-0.32074776
-9.7899885,-4.3995104000000005,-0.32074776
-9.7899885,-4.3995104000000005,-0.32074776
-13.907048999999999,-8.957002000000001,-0.03351096
-13.907048999999999,-8.957002000000001,-0.03351096
-13.907048999999999,-8.957002000000001,-0.03351096
-17.937939,-3.3750327000000007,0.12925656
-17.937939,-3.3750327000000007,0.12925656
-17.937939,-3.3750327000000007,0.12925656
-17.937939,-3.3750327000000007,0.12925656
-18.914545,-3.1069447999999995,-1.4026731000000001
-18.914545,-3.1069447999999995,-1.4026731000000001
-18.914545,-3.1069447999999995,-1.4026731000000001
-18.914545,-3.1069447999999995,-1.4026731000000001
-16.185795000000002,-1.2303311000000001,-3.6431203
-16.185795000000002,-1.2303311000000001,-3.6431203
-16.185795000000002,-1.2303311000000001,-3.6431203
-16.185795000000002,-1.2303311000000001,-3.6431203
-10.19212,-0.30159867,-2.2931072999999995
-10.19212,-0.30159867,-2.2931072999999995
-10.19212,-0.30159867,-2.2931072999999995
-10.19212,-0.30159867,-2.2931072999999995
-8.066567,-0.71330476,-1.5941644
-8.066567,-0.71330476,-1.5941644
-8.066567,-0.71330476,-1.5941644
-8.066567,-0.71330476,-1.5941644
-7.271878699999999,-0.34947145,-2.3984275
-7.271878699999999,-0.34947145,-2.3984275
-7.271878699999999,-0.34947145,-2.3984275
-7.271878699999999,-0.34947145,-2.3984275
-5.797396,-0.8473485999999999,-2.3984275
-5.797396,-0.8473485999999999,-2.3984275
-5.797396,-0.8473485999999999,-2.3984275
-5.797396,-0.8473485999999999,-2.3984275
-6.1420803,-2.2739582,-1.8335283
-6.1420803,-2.2739582,-1.8335283
-6.1420803,-2.2739582,-1.8335283
-14.43365,-3.997379,-0.359046
-14.43365,-3.997379,-0.359046
-14.43365,-3.997379,-0.359046
-14.43365,-3.997379,-0.359046
-16.683672,-2.752686,-0.05266008
-16.683672,-2.752686,-0.05266008
-16.683672,-2.752686,-0.05266008
-16.683672,-2.752686,-0.05266008
-18.53156,-3.2697124,-0.46436617
-18.53156,-3.2697124,-0.46436617
-18.53156,-3.2697124,-0.46436617
-18.53156,-3.2697124,-0.46436617
-15.209189000000002,-5.6250544,1.0292653
-15.209189000000002,-5.6250544,1.0292653
-15.209189000000002,-5.6250544,1.0292653
-15.209189000000002,-5.6250544,1.0292653
-10.40276,-4.3516379999999995,2.1973617
-10.40276,-4.3516379999999995,2.1973617
-10.40276,-4.3516379999999995,2.1973617
-9.914457,-3.1835412999999995,0.7994758000000001
-9.914457,-3.1835412999999995,0.7994758000000001
-9.914457,-3.1835412999999995,0.7994758000000001
-9.914457,-3.1835412999999995,0.7994758000000001
-10.335738000000001,-3.4420545,1.0292653
-10.335738000000001,-3.4420545,1.0292653
-10.335738000000001,-3.4420545,1.0292653
-10.335738000000001,-3.4420545,1.0292653
-11.49426,-4.1409974,1.0867126
-11.49426,-4.1409974,1.0867126
-11.49426,-4.1409974,1.0867126
-11.49426,-4.1409974,1.0867126
-12.882571,-3.231414,-1.6516117
-12.882571,-3.231414,-1.6516117
-12.882571,-3.231414,-1.6516117
-12.882571,-3.231414,-1.6516117
-9.732541000000001,-0.64628285,-1.9388485
-9.732541000000001,-0.64628285,-1.9388485
-9.732541000000001,-0.64628285,-1.9388485
-14.912378,-2.1111906000000005,-4.696322
-14.912378,-2.1111906000000005,-4.696322
-14.912378,-2.1111906000000005,-4.696322
-14.912378,-2.1111906000000005,-4.696322
-12.892146,-2.9346027,-3.7101421
-12.892146,-2.9346027,-3.7101421
-12.892146,-2.9346027,-3.7101421
-12.892146,-2.9346027,-3.7101421
-12.174053,-2.8963046,-4.1888704
-12.174053,-2.8963046,-4.1888704
-12.174053,-2.8963046,-4.1888704
-12.174053,-2.8963046,-4.1888704
-10.967659,-2.9537517999999996,-5.261221
-10.967659,-2.9537517999999996,-5.261221
-10.967659,-2.9537517999999996,-5.261221
-10.967659,-2.9537517999999996,-5.261221
-8.258059,-2.3026817000000004,-3.4229053999999994
-8.258059,-2.3026817000000004,-3.4229053999999994
-8.258059,-2.3026817000000004,-3.4229053999999994
-8.258059,-2.3026817000000004,-3.4229053999999994
-6.333572,-2.1973617,-1.9962958
-6.333572,-2.1973617,-1.9962958
-6.333572,-2.1973617,-1.9962958
-6.333572,-2.1973617,-1.9962958
-6.726128599999999,-2.2931072999999995,-1.383524
-6.726128599999999,-2.2931072999999995,-1.383524
-6.726128599999999,-2.2931072999999995,-1.383524
-8.2676325,-1.9962958,-0.5505372
-8.2676325,-1.9962958,-0.5505372
-8.2676325,-1.9962958,-0.5505372
-8.2676325,-1.9962958,-0.5505372
-8.2676325,-1.9962958,-0.5505372
-11.254896,-2.9441773999999996,0.6271336999999999
-11.254896,-2.9441773999999996,0.6271336999999999
-11.254896,-2.9441773999999996,0.6271336999999999
-11.379365,-0.8856468000000001,0.30159867
-11.379365,-0.8856468000000001,0.30159867
-11.379365,-0.8856468000000001,0.30159867
-11.379365,-0.8856468000000001,0.30159867
-14.155988,-1.0484143,-0.56968635
-14.155988,-1.0484143,-0.56968635
-14.155988,-1.0484143,-0.56968635
-14.155988,-1.0484143,-0.56968635
-12.183628,-1.4313968000000001,1.1250108
-12.183628,-1.4313968000000001,1.1250108
-12.183628,-1.4313968000000001,1.1250108
-12.183628,-1.4313968000000001,1.1250108
-10.498505999999999,-0.8952214,0.8090504
-10.498505999999999,-0.8952214,0.8090504
-10.498505999999999,-0.8952214,0.8090504
-10.498505999999999,-0.8952214,0.8090504
-8.00912,-1.6133133999999998,1.14416
-8.00912,-1.6133133999999998,1.14416
-8.00912,-1.6133133999999998,1.14416
-8.00912,-1.6133133999999998,1.14416
-5.021857,-0.9622433000000001,0.61755913
-5.021857,-0.9622433000000001,0.61755913
-5.021857,-0.9622433000000001,0.61755913
-5.021857,-0.9622433000000001,0.61755913
-5.49101,-1.5175678999999997,0.0
-5.49101,-1.5175678999999997,0.0
-5.49101,-1.5175678999999997,0.0
-6.544212,-3.7388659,0.22500217
-6.544212,-3.7388659,0.22500217
-6.544212,-3.7388659,0.22500217
-6.544212,-3.7388659,0.22500217
-9.560199,-4.255892299999999,1.0962871
-9.560199,-4.255892299999999,1.0962871
-9.560199,-4.255892299999999,1.0962871
-9.560199,-4.255892299999999,1.0962871
-17.066654,-1.9675721999999998,-0.03351096
-17.066654,-1.9675721999999998,-0.03351096
-17.066654,-1.9675721999999998,-0.03351096
-17.066654,-1.9675721999999998,-0.03351096
-19.393272,0.023936402000000002,-1.4601203999999999
-19.393272,0.023936402000000002,-1.4601203999999999
-19.393272,0.023936402000000002,-1.4601203999999999
-19.393272,0.023936402000000002,-1.4601203999999999
-19.393272,0.023936402000000002,-1.4601203999999999
-14.577269,-0.8090504,-1.5367169
-14.577269,-0.8090504,-1.5367169
-14.577269,-0.8090504,-1.5367169
-10.125097,-0.59841,-0.26330042
-10.125097,-0.59841,-0.26330042
-10.125097,-0.59841,-0.26330042
-10.125097,-0.59841,-0.26330042
-10.125097,-0.59841,-0.26330042
-5.8261199999999995,-0.39734426,0.17712937
-5.8261199999999995,-0.39734426,0.17712937
-5.8261199999999995,-0.39734426,0.17712937
-5.8261199999999995,-0.39734426,0.17712937
-4.619725,-0.61755913,-0.8090504
-4.619725,-0.61755913,-0.8090504
-4.619725,-0.61755913,-0.8090504
-6.027186,-0.78990126,-1.4409714
-6.027186,-0.78990126,-1.4409714
-6.027186,-0.78990126,-1.4409714
-6.027186,-0.78990126,-1.4409714
-7.4537954,-1.2973529,-1.2877783999999999
-7.4537954,-1.2973529,-1.2877783999999999
-7.4537954,-1.2973529,-1.2877783999999999
-7.4537954,-1.2973529,-1.2877783999999999
-10.699572,-3.5378,0.081383765
-10.699572,-3.5378,0.081383765
-10.699572,-3.5378,0.081383765
-10.699572,-3.5378,0.081383765
-16.463457000000002,-3.5090763999999997,0.081383765
-16.463457000000002,-3.5090763999999997,0.081383765
-16.463457000000002,-3.5090763999999997,0.081383765
-16.463457000000002,-3.5090763999999997,0.081383765
-18.608158,-2.7048132000000003,0.28244954
-18.608158,-2.7048132000000003,0.28244954
-18.608158,-2.7048132000000003,0.28244954
-18.608158,-2.7048132000000003,0.28244954
-16.26239,-3.7484405,0.40691882
-16.26239,-3.7484405,0.40691882
-16.26239,-3.7484405,0.40691882
-16.26239,-3.7484405,0.40691882
-10.479357,-4.0356774,0.28244954
-10.479357,-4.0356774,0.28244954
-10.479357,-4.0356774,0.28244954
-10.479357,-4.0356774,0.28244954
-6.869747,-2.9920502,0.11968201
-6.869747,-2.9920502,0.11968201
-6.869747,-2.9920502,0.11968201
-6.869747,-2.9920502,0.11968201
-6.8410234,-2.9346027,0.15798025
-6.8410234,-2.9346027,0.15798025
-6.8410234,-2.9346027,0.15798025
-6.8410234,-2.9346027,0.15798025
-9.5219,-4.1601467,-0.78990126
-9.5219,-4.1601467,-0.78990126
-9.5219,-4.1601467,-0.78990126
-9.5219,-4.1601467,-0.78990126
-13.581514000000002,-6.47719,-0.6271336999999999
-13.581514000000002,-6.47719,-0.6271336999999999
-13.581514000000002,-6.47719,-0.6271336999999999
-13.581514000000002,-6.47719,-0.6271336999999999
-15.5060005,-2.427151,-0.10053288
-15.5060005,-2.427151,-0.10053288
-15.5060005,-2.427151,-0.10053288
-15.5060005,-2.427151,-0.10053288
-19.11561,-3.1548176,-1.948423
-19.11561,-3.1548176,-1.948423
-19.11561,-3.1548176,-1.948423
-19.11561,-3.1548176,-1.948423
-14.730460999999998,-0.33032233,-0.44521707
-14.730460999999998,-0.33032233,-0.44521707
-14.730460999999998,-0.33032233,-0.44521707
-14.730460999999998,-0.33032233,-0.44521707
-10.383611,-0.05266008,1.0867126
-10.383611,-0.05266008,1.0867126
-10.383611,-0.05266008,1.0867126
-10.383611,-0.05266008,1.0867126
-7.1186857,0.43564250000000004,-0.3111732
-7.1186857,0.43564250000000004,-0.3111732
-7.1186857,0.43564250000000004,-0.3111732
-7.1186857,0.43564250000000004,-0.3111732
-6.2952733,0.25372586,-1.0484143
-6.2952733,0.25372586,-1.0484143
-6.2952733,0.25372586,-1.0484143
-6.2952733,0.25372586,-1.0484143
-6.5537868,-0.69415563,-0.54096264
-6.5537868,-0.69415563,-0.54096264
-6.5537868,-0.69415563,-0.54096264
-6.5537868,-0.69415563,-0.54096264
-6.5537868,-0.69415563,-0.54096264
-8.851681,-2.0920415,-0.42606795
-8.851681,-2.0920415,-0.42606795
-8.851681,-2.0920415,-0.42606795
-15.611320499999998,-4.169721,0.014361841
-15.611320499999998,-4.169721,0.014361841
-15.611320499999998,-4.169721,0.014361841
-15.611320499999998,-4.169721,0.014361841
-15.611320499999998,-4.169721,0.014361841
-19.278378,-4.658024,0.5888355
-19.278378,-4.658024,0.5888355
-19.278378,-4.658024,0.5888355
-19.278378,-4.658024,0.5888355
-17.602829,-5.672927,0.16755481
-17.602829,-5.672927,0.16755481
-17.602829,-5.672927,0.16755481
-11.197449,-4.8878129999999995,0.42606795
-11.197449,-4.8878129999999995,0.42606795
-11.197449,-4.8878129999999995,0.42606795
-11.197449,-4.8878129999999995,0.42606795
-11.197449,-4.8878129999999995,0.42606795
-8.746361,-2.9346027,-0.00478728
-8.746361,-2.9346027,-0.00478728
-8.746361,-2.9346027,-0.00478728
-8.746361,-2.9346027,-0.00478728
-8.32508,-4.4856815,-0.83777404
-8.32508,-4.4856815,-0.83777404
-8.32508,-4.4856815,-0.83777404
-8.32508,-4.4856815,-0.83777404
-8.066567,-6.9942164,-1.3260766000000002
-8.066567,-6.9942164,-1.3260766000000002
-8.066567,-6.9942164,-1.3260766000000002
-13.418745999999999,-4.3707867,-0.49308985
-13.418745999999999,-4.3707867,-0.49308985
-13.418745999999999,-4.3707867,-0.49308985
-13.418745999999999,-4.3707867,-0.49308985
-18.167728,-1.1824582000000001,1.1537346000000002
-18.167728,-1.1824582000000001,1.1537346000000002
-18.167728,-1.1824582000000001,1.1537346000000002
-18.167728,-1.1824582000000001,1.1537346000000002
-17.258144,-2.1782124,-0.6845810999999999
-17.258144,-2.1782124,-0.6845810999999999
-17.258144,-2.1782124,-0.6845810999999999
-17.258144,-2.1782124,-0.6845810999999999
-11.101703,-0.70373017,0.9718179
-11.101703,-0.70373017,0.9718179
-11.101703,-0.70373017,0.9718179
-11.101703,-0.70373017,0.9718179
-11.101703,-0.70373017,0.9718179
-7.922949000000001,0.8664976999999999,0.69415563
-7.922949000000001,0.8664976999999999,0.69415563
-7.922949000000001,0.8664976999999999,0.69415563
-5.2037735000000005,0.2154276,0.18670394
-5.2037735000000005,0.2154276,0.18670394
-5.2037735000000005,0.2154276,0.18670394
-5.2037735000000005,0.2154276,0.18670394
-7.2335806,-0.36862057,0.00478728
-7.2335806,-0.36862057,0.00478728
-7.2335806,-0.36862057,0.00478728
-7.2335806,-0.36862057,0.00478728
-7.2335806,-0.36862057,0.00478728
-9.617646,-1.4409714,0.6845810999999999
-9.617646,-1.4409714,0.6845810999999999
-9.617646,-1.4409714,0.6845810999999999
-13.370873000000001,-4.3133397,-0.25372586
-13.370873000000001,-4.3133397,-0.25372586
-13.370873000000001,-4.3133397,-0.25372586
-13.370873000000001,-4.3133397,-0.25372586
-14.376203,-5.529309,-0.59841
-14.376203,-5.529309,-0.59841
-14.376203,-5.529309,-0.59841
-14.376203,-5.529309,-0.59841
-15.410255,-3.9686553,0.3111732
-15.410255,-3.9686553,0.3111732
-15.410255,-3.9686553,0.3111732
-15.410255,-3.9686553,0.3111732
-15.410255,-3.9686553,0.3111732
-11.657027000000001,-4.016528,0.11968201
-11.657027000000001,-4.016528,0.11968201
-11.657027000000001,-4.016528,0.11968201
-8.736787,-4.73462,-0.45479164
-8.736787,-4.73462,-0.45479164
-8.736787,-4.73462,-0.45479164
-8.736787,-4.73462,-0.45479164
-5.7016506,-3.1548176,-0.043085523
-5.7016506,-3.1548176,-0.043085523
-5.7016506,-3.1548176,-0.043085523
-5.7016506,-3.1548176,-0.043085523
-5.7016506,-3.1548176,-0.043085523
-6.47719,-2.7814097,-0.20585304
-6.47719,-2.7814097,-0.20585304
-6.47719,-2.7814097,-0.20585304
-10.795316999999999,-4.5335545999999995,-0.39734426
-10.795316999999999,-4.5335545999999995,-0.39734426
-10.795316999999999,-4.5335545999999995,-0.39734426
-10.795316999999999,-4.5335545999999995,-0.39734426
-16.243242000000002,-3.4420545,-0.32074776
-16.243242000000002,-3.4420545,-0.32074776
-16.243242000000002,-3.4420545,-0.32074776
-16.243242000000002,-3.4420545,-0.32074776
-18.34007,-0.91437054,0.34947145
-18.34007,-0.91437054,0.34947145
-18.34007,-0.91437054,0.34947145
-18.34007,-0.91437054,0.34947145
-13.954922,0.69415563,0.9526688
-13.954922,0.69415563,0.9526688
-13.954922,0.69415563,0.9526688
-13.954922,0.69415563,0.9526688
-8.277207,-0.39734426,0.5505372
-8.277207,-0.39734426,0.5505372
-8.277207,-0.39734426,0.5505372
-8.277207,-0.39734426,0.5505372
-4.1122737,0.34947145,1.4601203999999999
-4.1122737,0.34947145,1.4601203999999999
-4.1122737,0.34947145,1.4601203999999999
-4.1122737,0.34947145,1.4601203999999999
-5.155901,1.0771381000000002,0.9622433000000001
-5.155901,1.0771381000000002,0.9622433000000001
-5.155901,1.0771381000000002,0.9622433000000001
-5.155901,1.0771381000000002,0.9622433000000001
-8.095291,0.63670826,-0.6271336999999999
-8.095291,0.63670826,-0.6271336999999999
-8.095291,0.63670826,-0.6271336999999999
-8.095291,0.63670826,-0.6271336999999999
-16.511329999999997,-2.5420458,-2.561195
-16.511329999999997,-2.5420458,-2.561195
-16.511329999999997,-2.5420458,-2.561195
-16.511329999999997,-2.5420458,-2.561195
-19.584763,-4.4473834000000005,0.39734426
-19.584763,-4.4473834000000005,0.39734426
-19.584763,-4.4473834000000005,0.39734426
-19.584763,-4.4473834000000005,0.39734426
-17.507084,-2.7814097,-0.69415563
-17.507084,-2.7814097,-0.69415563
-17.507084,-2.7814097,-0.69415563
-17.507084,-2.7814097,-0.69415563
-12.279374,-3.7197167999999996,-0.64628285
-12.279374,-3.7197167999999996,-0.64628285
-12.279374,-3.7197167999999996,-0.64628285
-12.279374,-3.7197167999999996,-0.64628285
-6.3718699999999995,-3.0686467,0.023936402000000002
-6.3718699999999995,-3.0686467,0.023936402000000002
-6.3718699999999995,-3.0686467,0.023936402000000002
-6.3718699999999995,-3.0686467,0.023936402000000002
-3.8920587999999996,-1.6899098999999997,0.6558574
-3.8920587999999996,-1.6899098999999997,0.6558574
-3.8920587999999996,-1.6899098999999997,0.6558574
-3.8920587999999996,-1.6899098999999997,0.6558574
-5.567607,-2.905879,-0.56968635
-5.567607,-2.905879,-0.56968635
-5.567607,-2.905879,-0.56968635
-11.513409,-4.782493,-1.8718264999999998
-11.513409,-4.782493,-1.8718264999999998
-11.513409,-4.782493,-1.8718264999999998
-11.513409,-4.782493,-1.8718264999999998
-11.513409,-4.782493,-1.8718264999999998
-16.463457000000002,-6.1229315,-1.776081
-16.463457000000002,-6.1229315,-1.776081
-16.463457000000002,-6.1229315,-1.776081
-16.463457000000002,-6.1229315,-1.776081
-18.311346,-1.6324625,0.062234644000000006
-18.311346,-1.6324625,0.062234644000000006
-18.311346,-1.6324625,0.062234644000000006
-18.311346,-1.6324625,0.062234644000000006
-18.311346,-1.6324625,0.062234644000000006
-18.311346,-1.6324625,0.062234644000000006
-18.311346,-1.6324625,0.062234644000000006
-8.822957,-0.43564250000000004,0.25372586
-8.822957,-0.43564250000000004,0.25372586
-8.822957,-0.43564250000000004,0.25372586
-8.822957,-0.43564250000000004,0.25372586
-6.7357035000000005,-1.2016073,0.22500217
-6.7357035000000005,-1.2016073,0.22500217
-6.7357035000000005,-1.2016073,0.22500217
-6.7357035000000005,-1.2016073,0.22500217
-7.271878699999999,-0.4164934,0.110107444
-7.271878699999999,-0.4164934,0.110107444
-7.271878699999999,-0.4164934,0.110107444
-7.271878699999999,-0.4164934,0.110107444
-6.9080452999999995,0.39734426,-1.4888442
-6.9080452999999995,0.39734426,-1.4888442
-6.9080452999999995,0.39734426,-1.4888442
-6.9080452999999995,0.39734426,-1.4888442
-6.9080452999999995,0.39734426,-1.4888442
-14.969825,-1.7952299999999999,-1.7952299999999999
-14.969825,-1.7952299999999999,-1.7952299999999999
-14.969825,-1.7952299999999999,-1.7952299999999999
-16.683672,-3.4995019999999997,-0.8952214
-16.683672,-3.4995019999999997,-0.8952214
-16.683672,-3.4995019999999997,-0.8952214
-16.683672,-3.4995019999999997,-0.8952214
-13.916623999999999,-1.0005416,-1.0579889
-13.916623999999999,-1.0005416,-1.0579889
-13.916623999999999,-1.0005416,-1.0579889
-13.916623999999999,-1.0005416,-1.0579889
-13.916623999999999,-1.0005416,-1.0579889
-11.810221,-3.0111992,-0.014361841
-11.810221,-3.0111992,-0.014361841
-11.810221,-3.0111992,-0.014361841
-9.722966,-2.8388572,-0.5313880999999999
-9.722966,-2.8388572,-0.5313880999999999
-9.722966,-2.8388572,-0.5313880999999999
-9.722966,-2.8388572,-0.5313880999999999
-6.821874,-2.1303396,-0.043085523
-6.821874,-2.1303396,-0.043085523
-6.821874,-2.1303396,-0.043085523
-6.821874,-2.1303396,-0.043085523
-6.821874,-2.1303396,-0.043085523
-6.5537868,-2.2069361,-1.0484143
-6.5537868,-2.2069361,-1.0484143
-6.5537868,-2.2069361,-1.0484143
-14.988975,-4.3133397,-2.1399142999999996
-14.988975,-4.3133397,-2.1399142999999996
-14.988975,-4.3133397,-2.1399142999999996
-14.988975,-4.3133397,-2.1399142999999996
-16.760267000000002,-3.3271596,0.27287498
-16.760267000000002,-3.3271596,0.27287498
-16.760267000000002,-3.3271596,0.27287498
-16.760267000000002,-3.3271596,0.27287498
-15.984729000000002,0.05266008,1.1537346000000002
-15.984729000000002,0.05266008,1.1537346000000002
-15.984729000000002,0.05266008,1.1537346000000002
-15.984729000000002,0.05266008,1.1537346000000002
-15.984729000000002,0.05266008,1.1537346000000002
-14.462373999999999,-0.48351530000000004,0.6558574
-14.462373999999999,-0.48351530000000004,0.6558574
-14.462373999999999,-0.48351530000000004,0.6558574
-9.014449,2.1111906000000005,0.15798025
-9.014449,2.1111906000000005,0.15798025
-9.014449,2.1111906000000005,0.15798025
-9.014449,2.1111906000000005,0.15798025
-9.014449,2.1111906000000005,0.15798025
-8.133589,0.8473485999999999,-0.28244954
-8.133589,0.8473485999999999,-0.28244954
-8.133589,0.8473485999999999,-0.28244954
-8.133589,0.8473485999999999,-0.28244954
-9.8953085,0.27287498,-0.3398969
-9.8953085,0.27287498,-0.3398969
-9.8953085,0.27287498,-0.3398969
-12.413418,-3.2601378,-0.8473485999999999
-12.413418,-3.2601378,-0.8473485999999999
-12.413418,-3.2601378,-0.8473485999999999
-12.413418,-3.2601378,-0.8473485999999999
-12.413418,-3.2601378,-0.8473485999999999
-7.788905000000001,-3.2409887000000004,1.0771381000000002
-7.788905000000001,-3.2409887000000004,1.0771381000000002
-7.788905000000001,-3.2409887000000004,1.0771381000000002
-7.788905000000001,-3.2409887000000004,1.0771381000000002
-6.285699,-2.4558747000000003,-0.043085523
-6.285699,-2.4558747000000003,-0.043085523
-6.285699,-2.4558747000000003,-0.043085523
-6.285699,-2.4558747000000003,-0.043085523
-7.156984,-3.8346114,0.5888355
-7.156984,-3.8346114,0.5888355
-7.156984,-3.8346114,0.5888355
-9.31126,-3.9399316,0.45479164
-9.31126,-3.9399316,0.45479164
-9.31126,-3.9399316,0.45479164
-9.31126,-3.9399316,0.45479164
-11.36979,-3.6239712,0.37819514
-11.36979,-3.6239712,0.37819514
-11.36979,-3.6239712,0.37819514
-11.36979,-3.6239712,0.37819514
-9.770839,-3.4899273,0.33032233
-9.770839,-3.4899273,0.33032233
-9.770839,-3.4899273,0.33032233
-9.770839,-3.4899273,0.33032233
-9.349558,-2.9537517999999996,-0.2154276
-9.349558,-2.9537517999999996,-0.2154276
-9.349558,-2.9537517999999996,-0.2154276
-9.349558,-2.9537517999999996,-0.2154276
-9.876159,-3.0494976,-0.28244954
-9.876159,-3.0494976,-0.28244954
-9.876159,-3.0494976,-0.28244954
-9.876159,-3.0494976,-0.28244954
-9.062322,-2.8771553,-0.081383765
-9.062322,-2.8771553,-0.081383765
-9.062322,-2.8771553,-0.081383765
-8.7750845,-2.3888528,0.062234644000000006
-8.7750845,-2.3888528,0.062234644000000006
-8.7750845,-2.3888528,0.062234644000000006
-8.7750845,-2.3888528,0.062234644000000006
-8.7750845,-2.3888528,0.062234644000000006
-9.110194,-1.8814011999999998,0.14840569
-9.110194,-1.8814011999999998,0.14840569
-9.110194,-1.8814011999999998,0.14840569
-9.043172,-2.7909843999999997,0.110107444
-9.043172,-2.7909843999999997,0.110107444
-9.043172,-2.7909843999999997,0.110107444
-9.043172,-2.7909843999999997,0.110107444
-9.263388,-2.427151,0.3398969
-9.263388,-2.427151,0.3398969
-9.263388,-2.427151,0.3398969
-9.263388,-2.427151,0.3398969
-9.579348,-2.0250196,1.1345854
-9.579348,-2.0250196,1.1345854
-9.579348,-2.0250196,1.1345854
-9.579348,-2.0250196,1.1345854
-9.579348,-2.0250196,1.1345854
-9.579348,-2.0250196,1.1345854
-9.579348,-2.0250196,1.1345854
-9.215514,-2.4175766,-0.19627848
-9.215514,-2.4175766,-0.19627848
-9.215514,-2.4175766,-0.19627848
-9.215514,-2.4175766,-0.19627848
-9.272962,-2.1111906000000005,-0.32074776
-9.272962,-2.1111906000000005,-0.32074776
-9.272962,-2.1111906000000005,-0.32074776
-9.272962,-2.1111906000000005,-0.32074776
-9.445304,-1.9867213,-0.14840569
-9.445304,-1.9867213,-0.14840569
-9.445304,-1.9867213,-0.14840569
-9.445304,-1.9867213,-0.14840569
-9.397431,-1.7952299999999999,0.4164934
-9.397431,-1.7952299999999999,0.4164934
-9.397431,-1.7952299999999999,0.4164934
-9.397431,-1.7952299999999999,0.4164934
-9.20594,-1.862252,0.6558574
-9.20594,-1.862252,0.6558574
-9.20594,-1.862252,0.6558574
-9.20594,-1.862252,0.6558574
-9.196365,-1.9388485,0.28244954
-9.196365,-1.9388485,0.28244954
-9.196365,-1.9388485,0.28244954
-9.31126,-2.0058703,0.17712937
-9.31126,-2.0058703,0.17712937
-9.31126,-2.0058703,0.17712937
-9.31126,-2.0058703,0.17712937
-9.31126,-2.0058703,0.17712937
-9.339984,-1.9101248,0.47394073
-9.339984,-1.9101248,0.47394073
-9.339984,-1.9101248,0.47394073
-9.0814705,-1.8143792,0.71330476
-9.0814705,-1.8143792,0.71330476
-9.0814705,-1.8143792,0.71330476
-9.0814705,-1.8143792,0.71330476
-9.435728999999998,-1.9675721999999998,0.5505372
-9.435728999999998,-1.9675721999999998,0.5505372
-9.435728999999998,-1.9675721999999998,0.5505372
-9.435728999999998,-1.9675721999999998,0.5505372
-9.435728999999998,-1.9675721999999998,0.5505372
-9.272962,-1.9579976000000003,0.37819514
-9.272962,-1.9579976000000003,0.37819514
-9.272962,-1.9579976000000003,0.37819514
-9.2825365,-1.8718264999999998,0.4164934
-9.2825365,-1.8718264999999998,0.4164934
-9.2825365,-1.8718264999999998,0.4164934
