accx,accy,accz
-9.138917999999999,-0.14840569,5.328243
-10.603826,-0.05266008,5.041005999999999
-10.603826,-0.05266008,5.041005999999999
-10.603826,-0.05266008,5.041005999999999
-10.603826,-0.05266008,5.041005999999999
-11.05383,-0.64628285,4.6867475999999995
-11.05383,-0.64628285,4.6867475999999995
-11.05383,-0.64628285,4.6867475999999995
-11.05383,-0.64628285,4.6867475999999995
-10.220842999999999,-0.12925656,4.3516379999999995
-10.220842999999999,-0.12925656,4.3516379999999995
-10.220842999999999,-0.12925656,4.3516379999999995
-10.220842999999999,-0.12925656,4.3516379999999995
-9.464453,-0.6079846,4.08355
-9.464453,-0.6079846,4.08355
-9.464453,-0.6079846,4.08355
-9.464453,-0.6079846,4.08355
-8.7750845,-1.7569318999999999,3.690993
-8.7750845,-1.7569318999999999,3.690993
-8.7750845,-1.7569318999999999,3.690993
-8.7750845,-1.7569318999999999,3.690993
-9.033598,-2.015445,3.5282254
-9.033598,-2.015445,3.5282254
-9.033598,-2.015445,3.5282254
-9.033598,-2.015445,3.5282254
-9.033598,-2.015445,3.5282254
-9.569773,-2.1207652,2.9920502
-9.569773,-2.1207652,2.9920502
-9.569773,-2.1207652,2.9920502
-9.847435,-2.6090677,2.0824668
-9.847435,-2.6090677,2.0824668
-9.847435,-2.6090677,2.0824668
-9.847435,-2.6090677,2.0824668
-9.454879,-2.88673,1.4984187
-9.454879,-2.88673,1.4984187
-9.454879,-2.88673,1.4984187
-9.454879,-2.88673,1.4984187
-9.454879,-2.88673,1.4984187
-9.20594,-2.8101335,1.2877783999999999
-9.20594,-2.8101335,1.2877783999999999
-9.20594,-2.8101335,1.2877783999999999
-9.560199,-2.7431116,1.14416
-9.560199,-2.7431116,1.14416
-9.560199,-2.7431116,1.14416
-9.560199,-2.7431116,1.14416
-8.784659,-2.5899186000000003,1.0101161
-8.784659,-2.5899186000000003,1.0101161
-8.784659,-2.5899186000000003,1.0101161
-8.784659,-2.5899186000000003,1.0101161
-9.014449,-2.5707695,0.90479594
-9.014449,-2.5707695,0.90479594
-9.014449,-2.5707695,0.90479594
-9.014449,-2.5707695,0.90479594
-9.464453,-2.6856642,0.77075213
-9.464453,-2.6856642,0.77075213
-9.464453,-2.6856642,0.77075213
-9.464453,-2.6856642,0.77075213
-9.100619,-2.4175766,1.0675635
-9.100619,-2.4175766,1.0675635
-9.100619,-2.4175766,1.0675635
-8.2676325,-2.3792782000000003,1.2399056
-8.2676325,-2.3792782000000003,1.2399056
-8.2676325,-2.3792782000000003,1.2399056
-8.2676325,-2.3792782000000003,1.2399056
-8.2676325,-2.3792782000000003,1.2399056
-8.430401,-2.513322,1.5367169
-8.430401,-2.513322,1.5367169
-8.430401,-2.513322,1.5367169
-8.813383,-2.3984275,1.9101248
-8.813383,-2.3984275,1.9101248
-8.813383,-2.3984275,1.9101248
-8.813383,-2.3984275,1.9101248
-8.66019,-2.5037475,2.0441686999999997
-8.66019,-2.5037475,2.0441686999999997
-8.66019,-2.5037475,2.0441686999999997
-8.66019,-2.5037475,2.0441686999999997
-9.033598,-2.905879,1.9675721999999998
-9.033598,-2.905879,1.9675721999999998
-9.033598,-2.905879,1.9675721999999998
-9.033598,-2.905879,1.9675721999999998
-9.138917999999999,-2.6377914000000002,2.0920415
-9.138917999999999,-2.6377914000000002,2.0920415
-9.138917999999999,-2.6377914000000002,2.0920415
-9.138917999999999,-2.6377914000000002,2.0920415
-8.937852000000001,-2.6282167000000003,2.015445
-8.937852000000001,-2.6282167000000003,2.015445
-8.937852000000001,-2.6282167000000003,2.015445
-8.937852000000001,-2.6282167000000003,2.015445
-9.234664,-2.8484317999999997,1.7856555
-9.234664,-2.8484317999999997,1.7856555
-9.234664,-2.8484317999999997,1.7856555
-9.244238000000001,-2.905879,1.7377827000000001
-9.244238000000001,-2.905879,1.7377827000000001
-9.244238000000001,-2.905879,1.7377827000000001
-9.244238000000001,-2.905879,1.7377827000000001
-9.004874000000001,-2.752686,1.7952299999999999
-9.004874000000001,-2.752686,1.7952299999999999
-9.004874000000001,-2.752686,1.7952299999999999
-9.004874000000001,-2.752686,1.7952299999999999
-8.937852000000001,-2.6569404999999997,1.6899098999999997
-8.937852000000001,-2.6569404999999997,1.6899098999999997
-8.937852000000001,-2.6569404999999997,1.6899098999999997
-8.937852000000001,-2.6569404999999997,1.6899098999999997
-9.18679,-2.5803439999999997,1.5845897
-9.18679,-2.5803439999999997,1.5845897
-9.18679,-2.5803439999999997,1.5845897
-9.18679,-2.5803439999999997,1.5845897
-9.177217,-2.8388572,1.3165021000000001
-9.177217,-2.8388572,1.3165021000000001
-9.177217,-2.8388572,1.3165021000000001
-9.177217,-2.8388572,1.3165021000000001
-8.995299000000001,-2.714388,1.383524
-8.995299000000001,-2.714388,1.383524
-8.995299000000001,-2.714388,1.383524
-8.995299000000001,-2.714388,1.383524
-8.851681,-2.4175766,1.5750152
-8.851681,-2.4175766,1.5750152
-8.851681,-2.4175766,1.5750152
-8.870830999999999,-2.3984275,1.5271424
-8.870830999999999,-2.3984275,1.5271424
-8.870830999999999,-2.3984275,1.5271424
-8.870830999999999,-2.3984275,1.5271424
-8.870830999999999,-2.3984275,1.5271424
-8.842107,-2.5994933,1.4888442
-8.842107,-2.5994933,1.4888442
-8.842107,-2.5994933,1.4888442
-8.832532,-2.6186423,1.6228879999999999
-8.832532,-2.6186423,1.6228879999999999
-8.832532,-2.6186423,1.6228879999999999
-8.832532,-2.6186423,1.6228879999999999
-8.765511,-2.7239625,1.7856555
-8.765511,-2.7239625,1.7856555
-8.765511,-2.7239625,1.7856555
-8.765511,-2.7239625,1.7856555
-9.052747,-2.733537,1.9962958
-9.052747,-2.733537,1.9962958
-9.052747,-2.733537,1.9962958
-9.052747,-2.733537,1.9962958
-9.359133,-2.6282167000000003,2.1303396
-9.359133,-2.6282167000000003,2.1303396
-9.359133,-2.6282167000000003,2.1303396
-9.359133,-2.6282167000000003,2.1303396
-9.292110000000001,-2.5324712000000003,2.034594
-9.292110000000001,-2.5324712000000003,2.034594
-9.292110000000001,-2.5324712000000003,2.034594
-9.292110000000001,-2.5324712000000003,2.034594
-8.746361,-2.561195,1.8335283
-8.746361,-2.561195,1.8335283
-8.746361,-2.561195,1.8335283
-8.746361,-2.561195,1.8335283
-8.506997,-2.4845984,1.5558661
-8.506997,-2.4845984,1.5558661
-8.506997,-2.4845984,1.5558661
-9.110194,-2.513322,1.3165021000000001
-9.110194,-2.513322,1.3165021000000001
-9.110194,-2.513322,1.3165021000000001
-9.110194,-2.513322,1.3165021000000001
-9.397431,-2.5994933,1.3452256999999999
-9.397431,-2.5994933,1.3452256999999999
-9.397431,-2.5994933,1.3452256999999999
-9.397431,-2.5994933,1.3452256999999999
-8.918703,-2.800559,1.5941644
-8.918703,-2.800559,1.5941644
-8.918703,-2.800559,1.5941644
-8.918703,-2.800559,1.5941644
-8.593167999999999,-2.9250283,1.8718264999999998
-8.593167999999999,-2.9250283,1.8718264999999998
-8.593167999999999,-2.9250283,1.8718264999999998
-8.593167999999999,-2.9250283,1.8718264999999998
-8.870830999999999,-2.5037475,2.101616
-8.870830999999999,-2.5037475,2.101616
-8.870830999999999,-2.5037475,2.101616
-8.870830999999999,-2.5037475,2.101616
-8.861256,-2.647366,1.7665064
-8.861256,-2.647366,1.7665064
-8.861256,-2.647366,1.7665064
-8.861256,-2.647366,1.7665064
-8.717637,-2.8197080000000003,1.5271424
-8.717637,-2.8197080000000003,1.5271424
-8.717637,-2.8197080000000003,1.5271424
-8.717637,-2.8197080000000003,1.5271424
-9.244238000000001,-2.8484317999999997,1.6133133999999998
-9.244238000000001,-2.8484317999999997,1.6133133999999998
-9.244238000000001,-2.8484317999999997,1.6133133999999998
-9.244238000000001,-2.8484317999999997,1.6133133999999998
-9.454879,-2.7622607000000006,1.7473572
-9.454879,-2.7622607000000006,1.7473572
-9.454879,-2.7622607000000006,1.7473572
-9.454879,-2.7622607000000006,1.7473572
-9.320834,-2.3984275,1.7473572
-9.320834,-2.3984275,1.7473572
-9.320834,-2.3984275,1.7473572
-9.301685,-2.513322,1.4409714
-9.301685,-2.513322,1.4409714
-9.301685,-2.513322,1.4409714
-9.301685,-2.513322,1.4409714
-9.301685,-2.513322,1.4409714
-8.995299000000001,-2.6377914000000002,1.2016073
-8.995299000000001,-2.6377914000000002,1.2016073
-8.995299000000001,-2.6377914000000002,1.2016073
-8.995299000000001,-2.6377914000000002,1.2016073
-8.985725,-2.714388,1.1728836
-8.985725,-2.714388,1.1728836
-8.985725,-2.714388,1.1728836
-8.937852000000001,-2.4845984,1.4026731000000001
-8.937852000000001,-2.4845984,1.4026731000000001
-8.937852000000001,-2.4845984,1.4026731000000001
-8.937852000000001,-2.4845984,1.4026731000000001
-8.937852000000001,-2.4845984,1.4026731000000001
-8.621891999999999,-2.1877869999999997,1.6516117
-8.621891999999999,-2.1877869999999997,1.6516117
-8.621891999999999,-2.1877869999999997,1.6516117
-8.736787,-2.2739582,1.5271424
-8.736787,-2.2739582,1.5271424
-8.736787,-2.2739582,1.5271424
-8.736787,-2.2739582,1.5271424
-8.851681,-2.647366,1.2877783999999999
-8.851681,-2.647366,1.2877783999999999
-8.851681,-2.647366,1.2877783999999999
-8.851681,-2.647366,1.2877783999999999
-9.110194,-2.867581,1.2782038
-9.110194,-2.867581,1.2782038
-9.110194,-2.867581,1.2782038
-9.110194,-2.867581,1.2782038
-9.608071,-2.6090677,1.4026731000000001
-9.608071,-2.6090677,1.4026731000000001
-9.608071,-2.6090677,1.4026731000000001
-9.608071,-2.6090677,1.4026731000000001
-9.100619,-2.4845984,1.383524
-9.100619,-2.4845984,1.383524
-9.100619,-2.4845984,1.383524
-9.100619,-2.4845984,1.383524
-9.091045,-2.5994933,1.2303311000000001
-9.091045,-2.5994933,1.2303311000000001
-9.091045,-2.5994933,1.2303311000000001
-9.091045,-2.5994933,1.2303311000000001
-9.320834,-2.5899186000000003,1.3069274
-9.320834,-2.5899186000000003,1.3069274
-9.320834,-2.5899186000000003,1.3069274
-9.320834,-2.5899186000000003,1.3069274
-8.411251,-2.666515,1.14416
-8.411251,-2.666515,1.14416
-8.411251,-2.666515,1.14416
-8.411251,-2.666515,1.14416
-8.315506,-2.8771553,0.98139244
-8.315506,-2.8771553,0.98139244
-8.315506,-2.8771553,0.98139244
-8.315506,-2.8771553,0.98139244
-9.675094,-3.1069447999999995,0.93351966
-9.675094,-3.1069447999999995,0.93351966
-9.675094,-3.1069447999999995,0.93351966
-10.144247,-2.8771553,1.1537346000000002
-10.144247,-2.8771553,1.1537346000000002
-10.144247,-2.8771553,1.1537346000000002
-10.144247,-2.8771553,1.1537346000000002
-10.144247,-2.8771553,1.1537346000000002
-9.31126,-2.647366,1.3165021000000001
-9.31126,-2.647366,1.3165021000000001
-9.31126,-2.647366,1.3165021000000001
-9.31126,-2.647366,1.3165021000000001
-8.727212,-2.972901,1.3069274
-8.727212,-2.972901,1.3069274
-8.727212,-2.972901,1.3069274
-8.5740185,-2.7814097,1.4984187
-8.5740185,-2.7814097,1.4984187
-8.5740185,-2.7814097,1.4984187
-8.5740185,-2.7814097,1.4984187
-8.5740185,-2.7814097,1.4984187
-9.167641999999999,-2.7431116,1.4313968000000001
-9.167641999999999,-2.7431116,1.4313968000000001
-9.167641999999999,-2.7431116,1.4313968000000001
-9.167641999999999,-2.7431116,1.4313968000000001
-10.335738000000001,-2.9824755,1.3069274
-10.335738000000001,-2.9824755,1.3069274
-10.335738000000001,-2.9824755,1.3069274
-10.335738000000001,-2.9824755,1.3069274
-11.111278,-2.6856642,1.5941644
-11.111278,-2.6856642,1.5941644
-11.111278,-2.6856642,1.5941644
-11.111278,-2.6856642,1.5941644
-12.681505,-2.1973617,1.9005502
-12.681505,-2.1973617,1.9005502
-12.681505,-2.1973617,1.9005502
-12.681505,-2.1973617,1.9005502
-14.30918,-1.6516117,1.2494801000000002
-14.30918,-1.6516117,1.2494801000000002
-14.30918,-1.6516117,1.2494801000000002
-14.30918,-1.6516117,1.2494801000000002
-10.029352000000001,1.0579889,0.49308985
-10.029352000000001,1.0579889,0.49308985
-10.029352000000001,1.0579889,0.49308985
-10.029352000000001,1.0579889,0.49308985
-7.032514599999999,1.8909756999999998,0.56011176
-7.032514599999999,1.8909756999999998,0.56011176
-7.032514599999999,1.8909756999999998,0.56011176
-7.032514599999999,1.8909756999999998,0.56011176
-8.497422,-0.081383765,0.062234644000000006
-8.497422,-0.081383765,0.062234644000000006
-8.497422,-0.081383765,0.062234644000000006
-8.497422,-0.081383765,0.062234644000000006
-7.2240057,-1.6707608,0.7324539000000001
-7.2240057,-1.6707608,0.7324539000000001
-7.2240057,-1.6707608,0.7324539000000001
-7.2240057,-1.6707608,0.7324539000000001
-6.2665496,-1.4409714,1.1633091
-6.2665496,-1.4409714,1.1633091
-6.2665496,-1.4409714,1.1633091
-6.2665496,-1.4409714,1.1633091
-7.3389006,-0.7228793,1.5079931999999998
-7.3389006,-0.7228793,1.5079931999999998
-7.3389006,-0.7228793,1.5079931999999998
-7.3389006,-0.7228793,1.5079931999999998
-11.321918,-1.5462915000000002,1.8335283
-11.321918,-1.5462915000000002,1.8335283
-11.321918,-1.5462915000000002,1.8335283
-11.321918,-1.5462915000000002,1.8335283
-13.830453,-2.7718353,1.6324625
-13.830453,-2.7718353,1.6324625
-13.830453,-2.7718353,1.6324625
-13.830453,-2.7718353,1.6324625
-14.797482999999998,-3.4707782,1.8431028999999999
-14.797482999999998,-3.4707782,1.8431028999999999
-14.797482999999998,-3.4707782,1.8431028999999999
-14.797482999999998,-3.4707782,1.8431028999999999
-8.066567,-2.9441773999999996,1.862252
-8.066567,-2.9441773999999996,1.862252
-8.066567,-2.9441773999999996,1.862252
-8.066567,-2.9441773999999996,1.862252
-7.051664,-2.4845984,1.5750152
-7.051664,-2.4845984,1.5750152
-7.051664,-2.4845984,1.5750152
-7.051664,-2.4845984,1.5750152
-8.143164,-1.776081,1.4409714
-8.143164,-1.776081,1.4409714
-8.143164,-1.776081,1.4409714
-8.143164,-1.776081,1.4409714
-7.8176284,-0.8281995000000001,1.6803354
-7.8176284,-0.8281995000000001,1.6803354
-7.8176284,-0.8281995000000001,1.6803354
-7.214431299999999,-1.2782038,1.3260766000000002
-7.214431299999999,-1.2782038,1.3260766000000002
-7.214431299999999,-1.2782038,1.3260766000000002
-7.214431299999999,-1.2782038,1.3260766000000002
-7.214431299999999,-1.2782038,1.3260766000000002
-10.546378,-2.1111906000000005,0.69415563
-10.546378,-2.1111906000000005,0.69415563
-10.546378,-2.1111906000000005,0.69415563
-13.179382,-2.3314054,0.19627848
-13.179382,-2.3314054,0.19627848
-13.179382,-2.3314054,0.19627848
-13.179382,-2.3314054,0.19627848
-13.045339,-1.2303311000000001,0.5218136
-13.045339,-1.2303311000000001,0.5218136
-13.045339,-1.2303311000000001,0.5218136
-13.045339,-1.2303311000000001,0.5218136
-13.045339,-1.2303311000000001,0.5218136
-6.668680999999999,-0.3111732,2.1590632999999997
-6.668680999999999,-0.3111732,2.1590632999999997
-6.668680999999999,-0.3111732,2.1590632999999997
-8.11444,-0.11968201,2.101616
-8.11444,-0.11968201,2.101616
-8.11444,-0.11968201,2.101616
-8.11444,-0.11968201,2.101616
-7.6069884000000005,-1.5941644,2.4367256
-7.6069884000000005,-1.5941644,2.4367256
-7.6069884000000005,-1.5941644,2.4367256
-7.6069884000000005,-1.5941644,2.4367256
-7.0037910000000005,-1.8909756999999998,2.4750240000000003
-7.0037910000000005,-1.8909756999999998,2.4750240000000003
-7.0037910000000005,-1.8909756999999998,2.4750240000000003
-7.0037910000000005,-1.8909756999999998,2.4750240000000003
-10.115523,-1.3739493999999999,2.0537431
-10.115523,-1.3739493999999999,2.0537431
-10.115523,-1.3739493999999999,2.0537431
-10.115523,-1.3739493999999999,2.0537431
-12.882571,-2.168638,1.2590546999999999
-12.882571,-2.168638,1.2590546999999999
-12.882571,-2.168638,1.2590546999999999
-12.882571,-2.168638,1.2590546999999999
-13.514492,-3.2888615,1.3739493999999999
-13.514492,-3.2888615,1.3739493999999999
-13.514492,-3.2888615,1.3739493999999999
-13.514492,-3.2888615,1.3739493999999999
-9.052747,-3.7197167999999996,1.8048046999999998
-9.052747,-3.7197167999999996,1.8048046999999998
-9.052747,-3.7197167999999996,1.8048046999999998
-9.052747,-3.7197167999999996,1.8048046999999998
-7.568689999999999,-3.0207740000000003,0.9430941999999999
-7.568689999999999,-3.0207740000000003,0.9430941999999999
-7.568689999999999,-3.0207740000000003,0.9430941999999999
-7.568689999999999,-3.0207740000000003,0.9430941999999999
-9.148492999999998,-2.2260852000000004,0.99096704
-9.148492999999998,-2.2260852000000004,0.99096704
-9.148492999999998,-2.2260852000000004,0.99096704
-9.148492999999998,-2.2260852000000004,0.99096704
-8.143164,-0.99096704,2.321831
-8.143164,-0.99096704,2.321831
-8.143164,-0.99096704,2.321831
-8.056992999999999,-1.14416,2.101616
-8.056992999999999,-1.14416,2.101616
-8.056992999999999,-1.14416,2.101616
-8.056992999999999,-1.14416,2.101616
-8.056992999999999,-1.14416,2.101616
-11.838944,-1.5750152,1.1633091
-11.838944,-1.5750152,1.1633091
-11.838944,-1.5750152,1.1633091
-11.838944,-1.5750152,1.1633091
-13.179382,-1.9579976000000003,0.7228793
-13.179382,-1.9579976000000003,0.7228793
-13.179382,-1.9579976000000003,0.7228793
-13.179382,-1.9579976000000003,0.7228793
-13.179382,-1.9579976000000003,0.7228793
-13.179382,-1.9579976000000003,0.7228793
-13.179382,-1.9579976000000003,0.7228793
-6.6016593,-0.751603,2.2165107999999996
-6.6016593,-0.751603,2.2165107999999996
-6.6016593,-0.751603,2.2165107999999996
-6.6016593,-0.751603,2.2165107999999996
-8.411251,-0.8186249,2.1590632999999997
-8.411251,-0.8186249,2.1590632999999997
-8.411251,-0.8186249,2.1590632999999997
-8.411251,-0.8186249,2.1590632999999997
-8.23891,-1.9101248,2.9633265
-8.23891,-1.9101248,2.9633265
-8.23891,-1.9101248,2.9633265
-8.23891,-1.9101248,2.9633265
-7.520817299999999,-2.1877869999999997,2.9154537
-7.520817299999999,-2.1877869999999997,2.9154537
-7.520817299999999,-2.1877869999999997,2.9154537
-7.520817299999999,-2.1877869999999997,2.9154537
-7.520817299999999,-2.1877869999999997,2.9154537
-7.9133744,-2.360129,2.015445
-7.9133744,-2.360129,2.015445
-7.9133744,-2.360129,2.015445
-10.307014,-2.1303396,1.7473572
-10.307014,-2.1303396,1.7473572
-10.307014,-2.1303396,1.7473572
-10.307014,-2.1303396,1.7473572
-12.662355999999999,-2.2739582,1.5175678999999997
-12.662355999999999,-2.2739582,1.5175678999999997
-12.662355999999999,-2.2739582,1.5175678999999997
-12.662355999999999,-2.2739582,1.5175678999999997
-12.662355999999999,-2.2739582,1.5175678999999997
-13.552791000000001,-4.246317400000001,1.9579976000000003
-13.552791000000001,-4.246317400000001,1.9579976000000003
-13.552791000000001,-4.246317400000001,1.9579976000000003
-6.9176197,-3.8729098,1.5079931999999998
-6.9176197,-3.8729098,1.5079931999999998
-6.9176197,-3.8729098,1.5079931999999998
-6.9176197,-3.8729098,1.5079931999999998
-8.171887,-2.4654493,0.92394507
-8.171887,-2.4654493,0.92394507
-8.171887,-2.4654493,0.92394507
-8.171887,-2.4654493,0.92394507
-8.621891999999999,-1.4218222,1.8431028999999999
-8.621891999999999,-1.4218222,1.8431028999999999
-8.621891999999999,-1.4218222,1.8431028999999999
-8.621891999999999,-1.4218222,1.8431028999999999
-7.3389006,-0.47394073,2.7814097
-7.3389006,-0.47394073,2.7814097
-7.3389006,-0.47394073,2.7814097
-7.3389006,-0.47394073,2.7814097
-9.799562,-1.5558661,1.6420371999999999
-9.799562,-1.5558661,1.6420371999999999
-9.799562,-1.5558661,1.6420371999999999
-9.799562,-1.5558661,1.6420371999999999
-13.591088000000001,-2.0058703,0.4164934
-13.591088000000001,-2.0058703,0.4164934
-13.591088000000001,-2.0058703,0.4164934
-13.591088000000001,-2.0058703,0.4164934
-13.543216000000001,-1.7186337,0.30159867
-13.543216000000001,-1.7186337,0.30159867
-13.543216000000001,-1.7186337,0.30159867
-13.543216000000001,-1.7186337,0.30159867
-7.970821400000001,-0.2920241,0.71330476
-7.970821400000001,-0.2920241,0.71330476
-7.970821400000001,-0.2920241,0.71330476
-7.970821400000001,-0.2920241,0.71330476
-7.4537954,-0.5888355,1.3069274
-7.4537954,-0.5888355,1.3069274
-7.4537954,-0.5888355,1.3069274
-7.4537954,-0.5888355,1.3069274
-8.459125,-1.8335283,1.5462915000000002
-8.459125,-1.8335283,1.5462915000000002
-8.459125,-1.8335283,1.5462915000000002
-6.7931504,-1.5367169,2.9154537
-6.7931504,-1.5367169,2.9154537
-6.7931504,-1.5367169,2.9154537
-6.7931504,-1.5367169,2.9154537
-6.7931504,-1.5367169,2.9154537
-7.3676243,-1.4505458999999998,2.0633178
-7.3676243,-1.4505458999999998,2.0633178
-7.3676243,-1.4505458999999998,2.0633178
-7.3676243,-1.4505458999999998,2.0633178
-10.259142,-2.2260852000000004,1.7665064
-10.259142,-2.2260852000000004,1.7665064
-10.259142,-2.2260852000000004,1.7665064
-10.259142,-2.2260852000000004,1.7665064
-13.02619,-2.168638,1.3165021000000001
-13.02619,-2.168638,1.3165021000000001
-13.02619,-2.168638,1.3165021000000001
-13.02619,-2.168638,1.3165021000000001
-15.065570999999998,-3.5569491,1.3548003
-15.065570999999998,-3.5569491,1.3548003
-15.065570999999998,-3.5569491,1.3548003
-8.602742,-4.1792955,1.3165021000000001
-8.602742,-4.1792955,1.3165021000000001
-8.602742,-4.1792955,1.3165021000000001
-8.602742,-4.1792955,1.3165021000000001
-7.559115400000001,-3.2792869,0.69415563
-7.559115400000001,-3.2792869,0.69415563
-7.559115400000001,-3.2792869,0.69415563
-7.559115400000001,-3.2792869,0.69415563
-8.133589,-1.6803354,0.85692316
-8.133589,-1.6803354,0.85692316
-8.133589,-1.6803354,0.85692316
-8.133589,-1.6803354,0.85692316
-8.133589,-1.6803354,0.85692316
-6.764427,-0.32074776,2.360129
-6.764427,-0.32074776,2.360129
-6.764427,-0.32074776,2.360129
-8.439975,-1.383524,1.8909756999999998
-8.439975,-1.383524,1.8909756999999998
-8.439975,-1.383524,1.8909756999999998
-8.439975,-1.383524,1.8909756999999998
-12.174053,-2.7239625,0.8090504
-12.174053,-2.7239625,0.8090504
-12.174053,-2.7239625,0.8090504
-12.174053,-2.7239625,0.8090504
-12.174053,-2.7239625,0.8090504
-14.069817,-2.4175766,0.44521707
-14.069817,-2.4175766,0.44521707
-14.069817,-2.4175766,0.44521707
-11.455961,-1.0484143,0.2920241
-11.455961,-1.0484143,0.2920241
-11.455961,-1.0484143,0.2920241
-11.455961,-1.0484143,0.2920241
-11.455961,-1.0484143,0.2920241
-7.2623043,0.5218136,2.0728923999999997
-7.2623043,0.5218136,2.0728923999999997
-7.2623043,0.5218136,2.0728923999999997
-6.458041000000001,-0.16755481,2.5324712000000003
-6.458041000000001,-0.16755481,2.5324712000000003
-6.458041000000001,-0.16755481,2.5324712000000003
-6.458041000000001,-0.16755481,2.5324712000000003
-6.544212,-1.9675721999999998,1.9675721999999998
-6.544212,-1.9675721999999998,1.9675721999999998
-6.544212,-1.9675721999999998,1.9675721999999998
-6.544212,-1.9675721999999998,1.9675721999999998
-7.664436,-2.6090677,1.4026731000000001
-7.664436,-2.6090677,1.4026731000000001
-7.664436,-2.6090677,1.4026731000000001
-7.664436,-2.6090677,1.4026731000000001
-11.207023,-2.1590632999999997,1.6037389
-11.207023,-2.1590632999999997,1.6037389
-11.207023,-2.1590632999999997,1.6037389
-11.207023,-2.1590632999999997,1.6037389
-13.141085,-1.9388485,1.6899098999999997
-13.141085,-1.9388485,1.6899098999999997
-13.141085,-1.9388485,1.6899098999999997
-13.141085,-1.9388485,1.6899098999999997
-15.046422,-3.0111992,0.78032666
-15.046422,-3.0111992,0.78032666
-15.046422,-3.0111992,0.78032666
-15.046422,-3.0111992,0.78032666
-8.612317,-3.8920587999999996,1.1154363
-8.612317,-3.8920587999999996,1.1154363
-8.612317,-3.8920587999999996,1.1154363
-8.612317,-3.8920587999999996,1.1154363
-8.056992999999999,-3.3080106,0.40691882
-8.056992999999999,-3.3080106,0.40691882
-8.056992999999999,-3.3080106,0.40691882
-8.056992999999999,-3.3080106,0.40691882
-8.976150500000001,-1.7856555,1.2399056
-8.976150500000001,-1.7856555,1.2399056
-8.976150500000001,-1.7856555,1.2399056
-8.976150500000001,-1.7856555,1.2399056
-6.9559183,-0.5313880999999999,2.494173
-6.9559183,-0.5313880999999999,2.494173
-6.9559183,-0.5313880999999999,2.494173
-6.9559183,-0.5313880999999999,2.494173
-5.28037,-1.1345854,2.0633178
-5.28037,-1.1345854,2.0633178
-5.28037,-1.1345854,2.0633178
-7.1857076,-2.0824668,0.78032666
-7.1857076,-2.0824668,0.78032666
-7.1857076,-2.0824668,0.78032666
-7.1857076,-2.0824668,0.78032666
-7.1857076,-2.0824668,0.78032666
-11.752773,-2.5994933,0.8664976999999999
-11.752773,-2.5994933,0.8664976999999999
-11.752773,-2.5994933,0.8664976999999999
-14.108115,-2.168638,1.469695
-14.108115,-2.168638,1.469695
-14.108115,-2.168638,1.469695
-14.108115,-2.168638,1.469695
-11.015532,-2.9346027,1.7473572
-11.015532,-2.9346027,1.7473572
-11.015532,-2.9346027,1.7473572
-11.015532,-2.9346027,1.7473572
-10.862339,-1.8143792,1.14416
-10.862339,-1.8143792,1.14416
-10.862339,-1.8143792,1.14416
-10.862339,-1.8143792,1.14416
-10.862339,-1.8143792,1.14416
-10.134672,-0.512239,1.4601203999999999
-10.134672,-0.512239,1.4601203999999999
-10.134672,-0.512239,1.4601203999999999
-9.244238000000001,-0.78032666,0.59841
-9.244238000000001,-0.78032666,0.59841
-9.244238000000001,-0.78032666,0.59841
-9.244238000000001,-0.78032666,0.59841
-7.2335806,-1.2494801000000002,0.56011176
-7.2335806,-1.2494801000000002,0.56011176
-7.2335806,-1.2494801000000002,0.56011176
-7.2335806,-1.2494801000000002,0.56011176
-6.764427,-0.93351966,-0.062234644000000006
-6.764427,-0.93351966,-0.062234644000000006
-6.764427,-0.93351966,-0.062234644000000006
-6.764427,-0.93351966,-0.062234644000000006
-7.089962,-1.4218222,0.14840569
-7.089962,-1.4218222,0.14840569
-7.089962,-1.4218222,0.14840569
-7.089962,-1.4218222,0.14840569
-6.5537868,-1.7282081999999999,0.7228793
-6.5537868,-1.7282081999999999,0.7228793
-6.5537868,-1.7282081999999999,0.7228793
-6.5537868,-1.7282081999999999,0.7228793
-7.7793303,-2.0058703,0.90479594
-7.7793303,-2.0058703,0.90479594
-7.7793303,-2.0058703,0.90479594
-7.7793303,-2.0058703,0.90479594
-9.2825365,-2.4175766,1.1537346000000002
-9.2825365,-2.4175766,1.1537346000000002
-9.2825365,-2.4175766,1.1537346000000002
-9.2825365,-2.4175766,1.1537346000000002
-10.316589,-2.6760897999999997,1.8718264999999998
-10.316589,-2.6760897999999997,1.8718264999999998
-10.316589,-2.6760897999999997,1.8718264999999998
-10.316589,-2.6760897999999997,1.8718264999999998
-11.791071,-2.666515,2.4367256
-11.791071,-2.666515,2.4367256
-11.791071,-2.666515,2.4367256
-11.791071,-2.666515,2.4367256
-11.791071,-2.666515,2.4367256
-11.791071,-2.666515,2.4367256
-11.791071,-2.666515,2.4367256
-11.791071,-2.666515,2.4367256
-10.776167999999998,-2.427151,2.0824668
-10.776167999999998,-2.427151,2.0824668
-10.776167999999998,-2.427151,2.0824668
-9.75169,-2.1973617,2.2452345
-9.75169,-2.1973617,2.2452345
-9.75169,-2.1973617,2.2452345
-9.75169,-2.1973617,2.2452345
-7.051664,-1.6707608,2.1877869999999997
-7.051664,-1.6707608,2.1877869999999997
-7.051664,-1.6707608,2.1877869999999997
-7.051664,-1.6707608,2.1877869999999997
-7.980396300000001,-2.101616,1.8335283
-7.980396300000001,-2.101616,1.8335283
-7.980396300000001,-2.101616,1.8335283
-7.980396300000001,-2.101616,1.8335283
-7.980396300000001,-2.101616,1.8335283
-11.216598,-2.2931072999999995,2.5037475
-11.216598,-2.2931072999999995,2.5037475
-11.216598,-2.2931072999999995,2.5037475
-13.485767999999998,-2.7909843999999997,2.513322
-13.485767999999998,-2.7909843999999997,2.513322
-13.485767999999998,-2.7909843999999997,2.513322
-13.485767999999998,-2.7909843999999997,2.513322
-13.390023000000001,-3.1452432,0.9430941999999999
-13.390023000000001,-3.1452432,0.9430941999999999
-13.390023000000001,-3.1452432,0.9430941999999999
-13.390023000000001,-3.1452432,0.9430941999999999
-13.390023000000001,-3.1452432,0.9430941999999999
-10.852764,-0.39734426,-0.8090504
-10.852764,-0.39734426,-0.8090504
-10.852764,-0.39734426,-0.8090504
-8.928278,-0.2441513,-0.71330476
-8.928278,-0.2441513,-0.71330476
-8.928278,-0.2441513,-0.71330476
-8.928278,-0.2441513,-0.71330476
-8.928278,-0.2441513,-0.71330476
-7.405922400000001,-1.7952299999999999,0.3877697
-7.405922400000001,-1.7952299999999999,0.3877697
-7.405922400000001,-1.7952299999999999,0.3877697
-6.936769,-1.8048046999999998,0.23457673
-6.936769,-1.8048046999999998,0.23457673
-6.936769,-1.8048046999999998,0.23457673
-6.936769,-1.8048046999999998,0.23457673
-8.66019,0.03351096,2.9824755
-8.66019,0.03351096,2.9824755
-8.66019,0.03351096,2.9824755
-8.66019,0.03351096,2.9824755
-8.621891999999999,1.0771381000000002,2.972901
-8.621891999999999,1.0771381000000002,2.972901
-8.621891999999999,1.0771381000000002,2.972901
-8.621891999999999,1.0771381000000002,2.972901
-10.498505999999999,-2.0537431,1.4601203999999999
-10.498505999999999,-2.0537431,1.4601203999999999
-10.498505999999999,-2.0537431,1.4601203999999999
-10.498505999999999,-2.0537431,1.4601203999999999
-10.498505999999999,-2.0537431,1.4601203999999999
-11.685751,-4.456958,-0.13883112
-11.685751,-4.456958,-0.13883112
-11.685751,-4.456958,-0.13883112
-7.9420977,-5.2707953000000005,-2.647366
-7.9420977,-5.2707953000000005,-2.647366
-7.9420977,-5.2707953000000005,-2.647366
-7.9420977,-5.2707953000000005,-2.647366
-7.9420977,-5.2707953000000005,-2.647366
-8.104865,-4.715471,-2.714388
-8.104865,-4.715471,-2.714388
-8.104865,-4.715471,-2.714388
-8.104865,-4.715471,-2.714388
-9.407005,-4.1888704,-0.8281995000000001
-9.407005,-4.1888704,-0.8281995000000001
-9.407005,-4.1888704,-0.8281995000000001
-10.594251,-3.690993,0.3877697
-10.594251,-3.690993,0.3877697
-10.594251,-3.690993,0.3877697
-10.594251,-3.690993,0.3877697
-10.594251,-3.690993,0.3877697
-14.53897,-1.0005416,0.71330476
-14.53897,-1.0005416,0.71330476
-14.53897,-1.0005416,0.71330476
-14.53897,-1.0005416,0.71330476
-14.184710999999998,2.905879,2.2165107999999996
-14.184710999999998,2.905879,2.2165107999999996
-14.184710999999998,2.905879,2.2165107999999996
-14.184710999999998,2.905879,2.2165107999999996
-11.915541000000001,1.0196906,-0.77075213
-11.915541000000001,1.0196906,-0.77075213
-11.915541000000001,1.0196906,-0.77075213
-11.915541000000001,1.0196906,-0.77075213
-9.991054,-0.99096704,-1.7952299999999999
-9.991054,-0.99096704,-1.7952299999999999
-9.991054,-0.99096704,-1.7952299999999999
-9.991054,-0.99096704,-1.7952299999999999
-8.4686985,0.05266008,1.3069274
-8.4686985,0.05266008,1.3069274
-8.4686985,0.05266008,1.3069274
-8.4686985,0.05266008,1.3069274
-8.191036,0.47394073,1.8526775000000002
-8.191036,0.47394073,1.8526775000000002
-8.191036,0.47394073,1.8526775000000002
-8.191036,0.47394073,1.8526775000000002
-8.976150500000001,-2.1590632999999997,1.5941644
-8.976150500000001,-2.1590632999999997,1.5941644
-8.976150500000001,-2.1590632999999997,1.5941644
-8.976150500000001,-2.1590632999999997,1.5941644
-10.919786,-2.8292825,0.47394073
-10.919786,-2.8292825,0.47394073
-10.919786,-2.8292825,0.47394073
-10.919786,-2.8292825,0.47394073
-13.332576000000001,-3.039923,-0.014361841
-13.332576000000001,-3.039923,-0.014361841
-13.332576000000001,-3.039923,-0.014361841
-13.332576000000001,-3.039923,-0.014361841
-13.23683,-4.255892299999999,-0.05266008
-13.23683,-4.255892299999999,-0.05266008
-13.23683,-4.255892299999999,-0.05266008
-13.23683,-4.255892299999999,-0.05266008
-7.8176284,-3.2792869,0.6750065
-7.8176284,-3.2792869,0.6750065
-7.8176284,-3.2792869,0.6750065
-7.8176284,-3.2792869,0.6750065
-7.587839,-3.2888615,-0.15798025
-7.587839,-3.2888615,-0.15798025
-7.587839,-3.2888615,-0.15798025
-7.587839,-3.2888615,-0.15798025
-7.300602400000001,-2.561195,0.28244954
-7.300602400000001,-2.561195,0.28244954
-7.300602400000001,-2.561195,0.28244954
-7.300602400000001,-2.561195,0.28244954
-8.5740185,-1.8431028999999999,1.2111819
-8.5740185,-1.8431028999999999,1.2111819
-8.5740185,-1.8431028999999999,1.2111819
-8.5740185,-1.8431028999999999,1.2111819
-14.184710999999998,-1.1633091,0.8186249
-14.184710999999998,-1.1633091,0.8186249
-14.184710999999998,-1.1633091,0.8186249
-14.184710999999998,-1.1633091,0.8186249
-16.252817,-0.110107444,-0.03351096
-16.252817,-0.110107444,-0.03351096
-16.252817,-0.110107444,-0.03351096
-16.252817,-0.110107444,-0.03351096
-11.408089,0.50266445,0.63670826
-11.408089,0.50266445,0.63670826
-11.408089,0.50266445,0.63670826
-11.408089,0.50266445,0.63670826
-7.8176284,0.43564250000000004,1.0675635
-7.8176284,0.43564250000000004,1.0675635
-7.8176284,0.43564250000000004,1.0675635
-7.8176284,0.43564250000000004,1.0675635
-7.559115400000001,0.98139244,2.0250196
-7.559115400000001,0.98139244,2.0250196
-7.559115400000001,0.98139244,2.0250196
-7.559115400000001,0.98139244,2.0250196
-7.1665583,-0.48351530000000004,2.3888528
-7.1665583,-0.48351530000000004,2.3888528
-7.1665583,-0.48351530000000004,2.3888528
-7.1665583,-0.48351530000000004,2.3888528
-8.124015,-1.8718264999999998,1.8718264999999998
-8.124015,-1.8718264999999998,1.8718264999999998
-8.124015,-1.8718264999999998,1.8718264999999998
-8.124015,-1.8718264999999998,1.8718264999999998
-12.049584,-1.9867213,1.0101161
-12.049584,-1.9867213,1.0101161
-12.049584,-1.9867213,1.0101161
-12.049584,-1.9867213,1.0101161
-13.945347,-1.8909756999999998,0.751603
-13.945347,-1.8909756999999998,0.751603
-13.945347,-1.8909756999999998,0.751603
-13.351725,-3.3080106,1.0196906
-13.351725,-3.3080106,1.0196906
-13.351725,-3.3080106,1.0196906
-13.351725,-3.3080106,1.0196906
-13.351725,-3.3080106,1.0196906
-6.438892,-3.7388659,0.91437054
-6.438892,-3.7388659,0.91437054
-6.438892,-3.7388659,0.91437054
-6.3814445,-2.8388572,-0.062234644000000006
-6.3814445,-2.8388572,-0.062234644000000006
-6.3814445,-2.8388572,-0.062234644000000006
-6.3814445,-2.8388572,-0.062234644000000006
-7.195282000000001,-1.7186337,0.33032233
-7.195282000000001,-1.7186337,0.33032233
-7.195282000000001,-1.7186337,0.33032233
-7.195282000000001,-1.7186337,0.33032233
-8.066567,-1.5845897,1.383524
-8.066567,-1.5845897,1.383524
-8.066567,-1.5845897,1.383524
-8.066567,-1.5845897,1.383524
-12.059159,-2.034594,2.2260852000000004
-12.059159,-2.034594,2.2260852000000004
-12.059159,-2.034594,2.2260852000000004
-12.059159,-2.034594,2.2260852000000004
-12.059159,-2.034594,2.2260852000000004
-14.012369,-0.78032666,1.4122477
-14.012369,-0.78032666,1.4122477
-14.012369,-0.78032666,1.4122477
-12.480439,0.18670394,1.4218222
-12.480439,0.18670394,1.4218222
-12.480439,0.18670394,1.4218222
-12.480439,0.18670394,1.4218222
-9.368708,1.0101161,1.0101161
-9.368708,1.0101161,1.0101161
-9.368708,1.0101161,1.0101161
-9.368708,1.0101161,1.0101161
-9.368708,1.0101161,1.0101161
-7.846352,0.56011176,2.3697037999999995
-7.846352,0.56011176,2.3697037999999995
-7.846352,0.56011176,2.3697037999999995
-7.635712,-0.15798025,2.0058703
-7.635712,-0.15798025,2.0058703
-7.635712,-0.15798025,2.0058703
-7.635712,-0.15798025,2.0058703
-7.635712,-0.15798025,2.0058703
-7.0995364,-0.43564250000000004,2.408002
-7.0995364,-0.43564250000000004,2.408002
-7.0995364,-0.43564250000000004,2.408002
-7.0995364,-0.43564250000000004,2.408002
-9.148492999999998,-0.8760723,1.8239537000000001
-9.148492999999998,-0.8760723,1.8239537000000001
-9.148492999999998,-0.8760723,1.8239537000000001
-11.72405,-2.0058703,1.4888442
-11.72405,-2.0058703,1.4888442
-11.72405,-2.0058703,1.4888442
-11.72405,-2.0058703,1.4888442
-11.72405,-2.0058703,1.4888442
-12.69108,-2.800559,1.1728836
-12.69108,-2.800559,1.1728836
-12.69108,-2.800559,1.1728836
-11.877241999999999,-3.5856729,1.6994845
-11.877241999999999,-3.5856729,1.6994845
-11.877241999999999,-3.5856729,1.6994845
-11.877241999999999,-3.5856729,1.6994845
-7.664436,-3.4612036,1.2111819
-7.664436,-3.4612036,1.2111819
-7.664436,-3.4612036,1.2111819
-7.664436,-3.4612036,1.2111819
-8.037844,-2.7718353,0.56968635
-8.037844,-2.7718353,0.56968635
-8.037844,-2.7718353,0.56968635
-8.037844,-2.7718353,0.56968635
-8.2676325,-1.3739493999999999,1.0292653
-8.2676325,-1.3739493999999999,1.0292653
-8.2676325,-1.3739493999999999,1.0292653
-8.2676325,-1.3739493999999999,1.0292653
-10.651698,-0.26330042,2.3697037999999995
-10.651698,-0.26330042,2.3697037999999995
-10.651698,-0.26330042,2.3697037999999995
-10.651698,-0.26330042,2.3697037999999995
-13.686834,-0.69415563,1.9196993000000002
-13.686834,-0.69415563,1.9196993000000002
-13.686834,-0.69415563,1.9196993000000002
-13.686834,-0.69415563,1.9196993000000002
-12.920869,0.9430941999999999,0.8856468000000001
-12.920869,0.9430941999999999,0.8856468000000001
-12.920869,0.9430941999999999,0.8856468000000001
-12.920869,0.9430941999999999,0.8856468000000001
-11.207023,0.43564250000000004,0.2441513
-11.207023,0.43564250000000004,0.2441513
-11.207023,0.43564250000000004,0.2441513
-11.207023,0.43564250000000004,0.2441513
-11.207023,0.43564250000000004,0.2441513
-9.512326,-0.54096264,0.5313880999999999
-9.512326,-0.54096264,0.5313880999999999
-9.512326,-0.54096264,0.5313880999999999
-8.889978999999999,0.18670394,1.7952299999999999
-8.889978999999999,0.18670394,1.7952299999999999
-8.889978999999999,0.18670394,1.7952299999999999
-8.889978999999999,0.18670394,1.7952299999999999
-7.4920936000000005,-0.2154276,2.7048132000000003
-7.4920936000000005,-0.2154276,2.7048132000000003
-7.4920936000000005,-0.2154276,2.7048132000000003
-7.4920936000000005,-0.2154276,2.7048132000000003
-7.4920936000000005,-0.2154276,2.7048132000000003
-7.808053999999999,-1.4313968000000001,1.5654407
-7.808053999999999,-1.4313968000000001,1.5654407
-7.808053999999999,-1.4313968000000001,1.5654407
-10.06765,-2.5899186000000003,1.0962871
-10.06765,-2.5899186000000003,1.0962871
-10.06765,-2.5899186000000003,1.0962871
-10.06765,-2.5899186000000003,1.0962871
-10.06765,-2.5899186000000003,1.0962871
-12.068733,-2.5899186000000003,1.6228879999999999
-12.068733,-2.5899186000000003,1.6228879999999999
-12.068733,-2.5899186000000003,1.6228879999999999
-12.068733,-2.5899186000000003,1.6228879999999999
-11.896391,-2.5803439999999997,1.6228879999999999
-11.896391,-2.5803439999999997,1.6228879999999999
-11.896391,-2.5803439999999997,1.6228879999999999
-10.19212,-3.7388659,1.5462915000000002
-10.19212,-3.7388659,1.5462915000000002
-10.19212,-3.7388659,1.5462915000000002
-10.19212,-3.7388659,1.5462915000000002
-10.19212,-3.7388659,1.5462915000000002
-9.225089,-3.8633351,0.6558574
-9.225089,-3.8633351,0.6558574
-9.225089,-3.8633351,0.6558574
-9.225089,-3.8633351,0.6558574
-8.880403999999999,-2.0058703,0.8856468000000001
-8.880403999999999,-2.0058703,0.8856468000000001
-8.880403999999999,-2.0058703,0.8856468000000001
-8.880403999999999,-2.0058703,0.8856468000000001
-8.880403999999999,-2.0058703,0.8856468000000001
-8.880403999999999,-2.0058703,0.8856468000000001
-8.880403999999999,-2.0058703,0.8856468000000001
-8.210186,-1.4409714,2.1303396
-8.210186,-1.4409714,2.1303396
-8.210186,-1.4409714,2.1303396
-8.210186,-1.4409714,2.1303396
-9.512326,-1.9675721999999998,1.776081
-9.512326,-1.9675721999999998,1.776081
-9.512326,-1.9675721999999998,1.776081
-9.512326,-1.9675721999999998,1.776081
-12.059159,-2.427151,1.2782038
-12.059159,-2.427151,1.2782038
-12.059159,-2.427151,1.2782038
-12.059159,-2.427151,1.2782038
-11.992137,-2.015445,1.4888442
-11.992137,-2.015445,1.4888442
-11.992137,-2.015445,1.4888442
-11.992137,-2.015445,1.4888442
-9.225089,-1.1058618,1.2973529
-9.225089,-1.1058618,1.2973529
-9.225089,-1.1058618,1.2973529
-9.225089,-1.1058618,1.2973529
-9.129342999999999,-1.3069274,1.0005416
-9.129342999999999,-1.3069274,1.0005416
-9.129342999999999,-1.3069274,1.0005416
-9.129342999999999,-1.3069274,1.0005416
-7.616563,-2.0250196,1.2494801000000002
-7.616563,-2.0250196,1.2494801000000002
-7.616563,-2.0250196,1.2494801000000002
-7.616563,-2.0250196,1.2494801000000002
-7.626137299999999,-1.9101248,0.46436617
-7.626137299999999,-1.9101248,0.46436617
-7.626137299999999,-1.9101248,0.46436617
-7.626137299999999,-1.9101248,0.46436617
-7.6452865999999995,-1.8239537000000001,0.19627848
-7.6452865999999995,-1.8239537000000001,0.19627848
-7.6452865999999995,-1.8239537000000001,0.19627848
-7.6452865999999995,-1.8239537000000001,0.19627848
-8.621891999999999,-2.0633178,-0.11968201
-8.621891999999999,-2.0633178,-0.11968201
-8.621891999999999,-2.0633178,-0.11968201
-8.621891999999999,-2.0633178,-0.11968201
-8.736787,-2.0920415,-0.11968201
-8.736787,-2.0920415,-0.11968201
-8.736787,-2.0920415,-0.11968201
-8.736787,-2.0920415,-0.11968201
-9.129342999999999,-2.7718353,0.0718092
-9.129342999999999,-2.7718353,0.0718092
-9.129342999999999,-2.7718353,0.0718092
-9.129342999999999,-2.7718353,0.0718092
-8.918703,-3.3750327000000007,0.0718092
-8.918703,-3.3750327000000007,0.0718092
-8.918703,-3.3750327000000007,0.0718092
-8.918703,-3.3750327000000007,0.0718092
-10.747444,-3.9399316,1.2303311000000001
-10.747444,-3.9399316,1.2303311000000001
-10.747444,-3.9399316,1.2303311000000001
-10.747444,-3.9399316,1.2303311000000001
-10.661273,-3.5378,2.5420458
-10.661273,-3.5378,2.5420458
-10.661273,-3.5378,2.5420458
-10.661273,-3.5378,2.5420458
-10.488931,-3.2409887000000004,2.3505547000000004
-10.488931,-3.2409887000000004,2.3505547000000004
-10.488931,-3.2409887000000004,2.3505547000000004
-10.488931,-3.2409887000000004,2.3505547000000004
-11.321918,-3.059072,2.2931072999999995
-11.321918,-3.059072,2.2931072999999995
-11.321918,-3.059072,2.2931072999999995
-11.321918,-3.059072,2.2931072999999995
-10.345312,-2.4175766,2.8292825
-10.345312,-2.4175766,2.8292825
-10.345312,-2.4175766,2.8292825
-10.345312,-2.4175766,2.8292825
-9.64637,-2.1782124,1.6803354
-9.64637,-2.1782124,1.6803354
-9.64637,-2.1782124,1.6803354
-9.64637,-2.1782124,1.6803354
-8.171887,-1.3930986,1.7377827000000001
-8.171887,-1.3930986,1.7377827000000001
-8.171887,-1.3930986,1.7377827000000001
-8.171887,-1.3930986,1.7377827000000001
-7.587839,-1.1058618,1.4313968000000001
-7.587839,-1.1058618,1.4313968000000001
-7.587839,-1.1058618,1.4313968000000001
-7.587839,-1.1058618,1.4313968000000001
-8.487848,-1.6707608,0.39734426
-8.487848,-1.6707608,0.39734426
-8.487848,-1.6707608,0.39734426
-8.487848,-1.6707608,0.39734426
-9.722966,-2.8484317999999997,-0.043085523
-9.722966,-2.8484317999999997,-0.043085523
-9.722966,-2.8484317999999997,-0.043085523
-9.722966,-2.8484317999999997,-0.043085523
-9.62722,-2.561195,0.99096704
-9.62722,-2.561195,0.99096704
-9.62722,-2.561195,0.99096704
-9.62722,-2.561195,0.99096704
-10.105948,-2.7048132000000003,0.8952214
-10.105948,-2.7048132000000003,0.8952214
-10.105948,-2.7048132000000003,0.8952214
-10.105948,-2.7048132000000003,0.8952214
-9.636795,-2.3122563,0.42606795
-9.636795,-2.3122563,0.42606795
-9.636795,-2.3122563,0.42606795
-9.636795,-2.3122563,0.42606795
-10.105948,-2.360129,0.30159867
-10.105948,-2.360129,0.30159867
-10.105948,-2.360129,0.30159867
-10.105948,-2.360129,0.30159867
-11.475111,-2.7622607000000006,0.7420284
-11.475111,-2.7622607000000006,0.7420284
-11.475111,-2.7622607000000006,0.7420284
-11.475111,-2.7622607000000006,0.7420284
-12.834699,-2.8771553,0.78032666
-12.834699,-2.8771553,0.78032666
-12.834699,-2.8771553,0.78032666
-12.834699,-2.8771553,0.78032666
-16.109198000000003,-4.246317400000001,0.2920241
-16.109198000000003,-4.246317400000001,0.2920241
-16.109198000000003,-4.246317400000001,0.2920241
-16.109198000000003,-4.246317400000001,0.2920241
-9.196365,-4.8878129999999995,1.4984187
-9.196365,-4.8878129999999995,1.4984187
-9.196365,-4.8878129999999995,1.4984187
-9.196365,-4.8878129999999995,1.4984187
-8.191036,-3.451629,1.5079931999999998
-8.191036,-3.451629,1.5079931999999998
-8.191036,-3.451629,1.5079931999999998
-8.191036,-3.451629,1.5079931999999998
-10.661273,-1.7473572,1.8814011999999998
-10.661273,-1.7473572,1.8814011999999998
-10.661273,-1.7473572,1.8814011999999998
-10.661273,-1.7473572,1.8814011999999998
-10.374036,-1.1537346000000002,1.9962958
-10.374036,-1.1537346000000002,1.9962958
-10.374036,-1.1537346000000002,1.9962958
-10.374036,-1.1537346000000002,1.9962958
-9.655944,-1.6037389,1.3165021000000001
-9.655944,-1.6037389,1.3165021000000001
-9.655944,-1.6037389,1.3165021000000001
-9.655944,-1.6037389,1.3165021000000001
-11.025106,-1.8814011999999998,0.92394507
-11.025106,-1.8814011999999998,0.92394507
-11.025106,-1.8814011999999998,0.92394507
-11.025106,-1.8814011999999998,0.92394507
-11.628304,-1.0867126,0.90479594
-11.628304,-1.0867126,0.90479594
-11.628304,-1.0867126,0.90479594
-11.628304,-1.0867126,0.90479594
-11.551707,-0.7994758000000001,0.8760723
-11.551707,-0.7994758000000001,0.8760723
-11.551707,-0.7994758000000001,0.8760723
-8.277207,-1.2877783999999999,1.6324625
-8.277207,-1.2877783999999999,1.6324625
-8.277207,-1.2877783999999999,1.6324625
-8.277207,-1.2877783999999999,1.6324625
-8.277207,-1.2877783999999999,1.6324625
-9.043172,-0.83777404,1.14416
-9.043172,-0.83777404,1.14416
-9.043172,-0.83777404,1.14416
-8.736787,-1.469695,1.3165021000000001
-8.736787,-1.469695,1.3165021000000001
-8.736787,-1.469695,1.3165021000000001
-8.736787,-1.469695,1.3165021000000001
-9.426155,-2.513322,0.98139244
-9.426155,-2.513322,0.98139244
-9.426155,-2.513322,0.98139244
-9.426155,-2.513322,0.98139244
-11.819795,-3.4324798999999997,0.2441513
-11.819795,-3.4324798999999997,0.2441513
-11.819795,-3.4324798999999997,0.2441513
-11.819795,-3.4324798999999997,0.2441513
-13.00704,-4.926111,-0.18670394
-13.00704,-4.926111,-0.18670394
-13.00704,-4.926111,-0.18670394
-13.00704,-4.926111,-0.18670394
-12.834699,-3.6526947,1.2877783999999999
-12.834699,-3.6526947,1.2877783999999999
-12.834699,-3.6526947,1.2877783999999999
-12.834699,-3.6526947,1.2877783999999999
-8.171887,-2.7909843999999997,1.5462915000000002
-8.171887,-2.7909843999999997,1.5462915000000002
-8.171887,-2.7909843999999997,1.5462915000000002
-8.171887,-2.7909843999999997,1.5462915000000002
-8.4686985,-3.7484405,0.50266445
-8.4686985,-3.7484405,0.50266445
-8.4686985,-3.7484405,0.50266445
-8.4686985,-3.7484405,0.50266445
-9.397431,-2.0824668,0.15798025
-9.397431,-2.0824668,0.15798025
-9.397431,-2.0824668,0.15798025
-9.397431,-2.0824668,0.15798025
-10.316589,-0.93351966,1.7186337
-10.316589,-0.93351966,1.7186337
-10.316589,-0.93351966,1.7186337
-10.316589,-0.93351966,1.7186337
-11.810221,-0.83777404,1.2016073
-11.810221,-0.83777404,1.2016073
-11.810221,-0.83777404,1.2016073
-11.810221,-0.83777404,1.2016073
-15.017698000000001,-2.2643836,-0.15798025
-15.017698000000001,-2.2643836,-0.15798025
-15.017698000000001,-2.2643836,-0.15798025
-15.017698000000001,-2.2643836,-0.15798025
-11.838944,-0.27287498,-0.081383765
-11.838944,-0.27287498,-0.081383765
-11.838944,-0.27287498,-0.081383765
-11.838944,-0.27287498,-0.081383765
-8.056992999999999,1.4601203999999999,1.0005416
-8.056992999999999,1.4601203999999999,1.0005416
-8.056992999999999,1.4601203999999999,1.0005416
-8.056992999999999,1.4601203999999999,1.0005416
-8.411251,1.8718264999999998,2.3792782000000003
-8.411251,1.8718264999999998,2.3792782000000003
-8.411251,1.8718264999999998,2.3792782000000003
-8.411251,1.8718264999999998,2.3792782000000003
-8.00912,0.05266008,2.427151
-8.00912,0.05266008,2.427151
-8.00912,0.05266008,2.427151
-8.00912,0.05266008,2.427151
-8.277207,-1.0388398,2.5324712000000003
-8.277207,-1.0388398,2.5324712000000003
-8.277207,-1.0388398,2.5324712000000003
-8.277207,-1.0388398,2.5324712000000003
-11.752773,-1.5845897,1.7665064
-11.752773,-1.5845897,1.7665064
-11.752773,-1.5845897,1.7665064
-11.752773,-1.5845897,1.7665064
-14.318755,-2.8197080000000003,1.2686293
-14.318755,-2.8197080000000003,1.2686293
-14.318755,-2.8197080000000003,1.2686293
-14.318755,-2.8197080000000003,1.2686293
-12.90172,-3.6239712,1.0579889
-12.90172,-3.6239712,1.0579889
-12.90172,-3.6239712,1.0579889
-12.90172,-3.6239712,1.0579889
-7.559115400000001,-4.121848,1.4792696
-7.559115400000001,-4.121848,1.4792696
-7.559115400000001,-4.121848,1.4792696
-7.559115400000001,-4.121848,1.4792696
-7.693159,-3.844186,0.56968635
-7.693159,-3.844186,0.56968635
-7.693159,-3.844186,0.56968635
-7.693159,-3.844186,0.56968635
-9.991054,-3.0877957,0.33032233
-9.991054,-3.0877957,0.33032233
-9.991054,-3.0877957,0.33032233
-9.991054,-3.0877957,0.33032233
-10.2016945,-0.8664976999999999,1.0292653
-10.2016945,-0.8664976999999999,1.0292653
-10.2016945,-0.8664976999999999,1.0292653
-10.2016945,-0.8664976999999999,1.0292653
-9.41658,-0.63670826,2.1399142999999996
-9.41658,-0.63670826,2.1399142999999996
-9.41658,-0.63670826,2.1399142999999996
-9.41658,-0.63670826,2.1399142999999996
-12.911294999999999,-1.6899098999999997,0.6558574
-12.911294999999999,-1.6899098999999997,0.6558574
-12.911294999999999,-1.6899098999999997,0.6558574
-14.108115,0.3111732,0.25372586
-14.108115,0.3111732,0.25372586
-14.108115,0.3111732,0.25372586
-14.108115,0.3111732,0.25372586
-12.154904,1.4601203999999999,0.7228793
-12.154904,1.4601203999999999,0.7228793
-12.154904,1.4601203999999999,0.7228793
-12.154904,1.4601203999999999,0.7228793
-8.889978999999999,0.7324539000000001,2.647366
-8.889978999999999,0.7324539000000001,2.647366
-8.889978999999999,0.7324539000000001,2.647366
-8.889978999999999,0.7324539000000001,2.647366
-9.435728999999998,2.1207652,2.7718353
-9.435728999999998,2.1207652,2.7718353
-9.435728999999998,2.1207652,2.7718353
-9.435728999999998,2.1207652,2.7718353
-8.985725,0.85692316,2.867581
-8.985725,0.85692316,2.867581
-8.985725,0.85692316,2.867581
-8.985725,0.85692316,2.867581
-8.889978999999999,-1.7665064,1.9101248
-8.889978999999999,-1.7665064,1.9101248
-8.889978999999999,-1.7665064,1.9101248
-8.889978999999999,-1.7665064,1.9101248
-11.59958,-2.8101335,0.8760723
-11.59958,-2.8101335,0.8760723
-11.59958,-2.8101335,0.8760723
-11.695326,-3.0207740000000003,0.40691882
-11.695326,-3.0207740000000003,0.40691882
-11.695326,-3.0207740000000003,0.40691882
-11.695326,-3.0207740000000003,0.40691882
-11.695326,-3.0207740000000003,0.40691882
-13.074062,-3.1356685,-0.05266008
-13.074062,-3.1356685,-0.05266008
-13.074062,-3.1356685,-0.05266008
-8.439975,-4.6293,0.8952214
-8.439975,-4.6293,0.8952214
-8.439975,-4.6293,0.8952214
-8.439975,-4.6293,0.8952214
-7.6740103,-3.7580150000000003,0.23457673
-7.6740103,-3.7580150000000003,0.23457673
-7.6740103,-3.7580150000000003,0.23457673
-7.6740103,-3.7580150000000003,0.23457673
-9.598496,-2.1207652,0.77075213
-9.598496,-2.1207652,0.77075213
-9.598496,-2.1207652,0.77075213
-9.598496,-2.1207652,0.77075213
-10.785743,-0.32074776,1.4026731000000001
-10.785743,-0.32074776,1.4026731000000001
-10.785743,-0.32074776,1.4026731000000001
-10.785743,-0.32074776,1.4026731000000001
-11.1208515,-0.44521707,1.7569318999999999
-11.1208515,-0.44521707,1.7569318999999999
-11.1208515,-0.44521707,1.7569318999999999
-11.1208515,-0.44521707,1.7569318999999999
-11.570856,-1.8431028999999999,1.0101161
-11.570856,-1.8431028999999999,1.0101161
-11.570856,-1.8431028999999999,1.0101161
-11.570856,-1.8431028999999999,1.0101161
-12.0400095,-2.1973617,0.19627848
-12.0400095,-2.1973617,0.19627848
-12.0400095,-2.1973617,0.19627848
-12.0400095,-2.1973617,0.19627848
-10.661273,-1.3739493999999999,0.20585304
-10.661273,-1.3739493999999999,0.20585304
-10.661273,-1.3739493999999999,0.20585304
-10.661273,-1.3739493999999999,0.20585304
-10.670848,-1.9196993000000002,0.76117754
-10.670848,-1.9196993000000002,0.76117754
-10.670848,-1.9196993000000002,0.76117754
-10.670848,-1.9196993000000002,0.76117754
-8.305931,-1.4218222,2.5899186000000003
-8.305931,-1.4218222,2.5899186000000003
-8.305931,-1.4218222,2.5899186000000003
-9.292110000000001,-0.77075213,2.5324712000000003
-9.292110000000001,-0.77075213,2.5324712000000003
-9.292110000000001,-0.77075213,2.5324712000000003
-9.292110000000001,-0.77075213,2.5324712000000003
-9.292110000000001,-0.77075213,2.5324712000000003
-8.487848,-1.0196906,2.2931072999999995
-8.487848,-1.0196906,2.2931072999999995
-8.487848,-1.0196906,2.2931072999999995
-8.631466,-2.1111906000000005,1.5462915000000002
-8.631466,-2.1111906000000005,1.5462915000000002
-8.631466,-2.1111906000000005,1.5462915000000002
-8.631466,-2.1111906000000005,1.5462915000000002
-10.249566999999999,-2.7239625,0.6845810999999999
-10.249566999999999,-2.7239625,0.6845810999999999
-10.249566999999999,-2.7239625,0.6845810999999999
-10.249566999999999,-2.7239625,0.6845810999999999
-12.0400095,-2.9633265,-0.3398969
-12.0400095,-2.9633265,-0.3398969
-12.0400095,-2.9633265,-0.3398969
-12.0400095,-2.9633265,-0.3398969
-13.648535999999998,-4.4186597,-0.28244954
-13.648535999999998,-4.4186597,-0.28244954
-13.648535999999998,-4.4186597,-0.28244954
-13.648535999999998,-4.4186597,-0.28244954
-10.278291000000001,-4.772918,0.70373017
-10.278291000000001,-4.772918,0.70373017
-10.278291000000001,-4.772918,0.70373017
-10.278291000000001,-4.772918,0.70373017
-8.516571,-3.059072,-0.09095833
-8.516571,-3.059072,-0.09095833
-8.516571,-3.059072,-0.09095833
-8.516571,-3.059072,-0.09095833
-9.033598,-2.9154537,0.76117754
-9.033598,-2.9154537,0.76117754
-9.033598,-2.9154537,0.76117754
-9.033598,-2.9154537,0.76117754
-9.454879,-0.7420284,2.0824668
-9.454879,-0.7420284,2.0824668
-9.454879,-0.7420284,2.0824668
-9.454879,-0.7420284,2.0824668
-10.163396,-0.9526688,2.3792782000000003
-10.163396,-0.9526688,2.3792782000000003
-10.163396,-0.9526688,2.3792782000000003
-10.163396,-0.9526688,2.3792782000000003
-12.700654,-1.5750152,1.1345854
-12.700654,-1.5750152,1.1345854
-12.700654,-1.5750152,1.1345854
-12.700654,-1.5750152,1.1345854
-12.576185,-1.6420371999999999,0.45479164
-12.576185,-1.6420371999999999,0.45479164
-12.576185,-1.6420371999999999,0.45479164
-12.576185,-1.6420371999999999,0.45479164
-12.576185,-1.6420371999999999,0.45479164
-11.005958,-0.18670394,0.18670394
-11.005958,-0.18670394,0.18670394
-11.005958,-0.18670394,0.18670394
-9.41658,-0.12925656,1.0196906
-9.41658,-0.12925656,1.0196906
-9.41658,-0.12925656,1.0196906
-9.41658,-0.12925656,1.0196906
-9.655944,-1.2590546999999999,0.91437054
-9.655944,-1.2590546999999999,0.91437054
-9.655944,-1.2590546999999999,0.91437054
-9.655944,-1.2590546999999999,0.91437054
-7.0133657000000005,-1.5079931999999998,1.2686293
-7.0133657000000005,-1.5079931999999998,1.2686293
-7.0133657000000005,-1.5079931999999998,1.2686293
-7.0133657000000005,-1.5079931999999998,1.2686293
-6.946343400000001,-1.8814011999999998,1.1345854
-6.946343400000001,-1.8814011999999998,1.1345854
-6.946343400000001,-1.8814011999999998,1.1345854
-6.946343400000001,-1.8814011999999998,1.1345854
-10.163396,-2.408002,0.6845810999999999
-10.163396,-2.408002,0.6845810999999999
-10.163396,-2.408002,0.6845810999999999
-10.163396,-2.408002,0.6845810999999999
-13.954922,-2.4558747000000003,0.93351966
-13.954922,-2.4558747000000003,0.93351966
-13.954922,-2.4558747000000003,0.93351966
-13.954922,-2.4558747000000003,0.93351966
-12.107032,-2.5803439999999997,1.0771381000000002
-12.107032,-2.5803439999999997,1.0771381000000002
-12.107032,-2.5803439999999997,1.0771381000000002
-12.107032,-2.5803439999999997,1.0771381000000002
-7.664436,-3.7580150000000003,1.0101161
-7.664436,-3.7580150000000003,1.0101161
-7.664436,-3.7580150000000003,1.0101161
-7.664436,-3.7580150000000003,1.0101161
-7.5495410000000005,-3.7005677,0.46436617
-7.5495410000000005,-3.7005677,0.46436617
-7.5495410000000005,-3.7005677,0.46436617
-7.5495410000000005,-3.7005677,0.46436617
-7.5495410000000005,-3.7005677,0.46436617
-10.795316999999999,-1.7377827000000001,0.7228793
-10.795316999999999,-1.7377827000000001,0.7228793
-10.795316999999999,-1.7377827000000001,0.7228793
-11.05383,-0.50266445,2.8771553
-11.05383,-0.50266445,2.8771553
-11.05383,-0.50266445,2.8771553
-11.05383,-0.50266445,2.8771553
-9.138917999999999,-1.6611862000000002,3.212265
-9.138917999999999,-1.6611862000000002,3.212265
-9.138917999999999,-1.6611862000000002,3.212265
-9.138917999999999,-1.6611862000000002,3.212265
-9.138917999999999,-1.6611862000000002,3.212265
-8.813383,-2.3314054,2.2931072999999995
-8.813383,-2.3314054,2.2931072999999995
-8.813383,-2.3314054,2.2931072999999995
-7.5399666,-1.948423,2.34098
-7.5399666,-1.948423,2.34098
-7.5399666,-1.948423,2.34098
-7.5399666,-1.948423,2.34098
-7.5399666,-1.948423,2.34098
-6.132505999999999,-1.2877783999999999,2.4367256
-6.132505999999999,-1.2877783999999999,2.4367256
-6.132505999999999,-1.2877783999999999,2.4367256
-6.132505999999999,-1.2877783999999999,2.4367256
-6.9176197,-1.6994845,1.7186337
-6.9176197,-1.6994845,1.7186337
-6.9176197,-1.6994845,1.7186337
-9.818711,-1.9196993000000002,0.3398969
-9.818711,-1.9196993000000002,0.3398969
-9.818711,-1.9196993000000002,0.3398969
-9.818711,-1.9196993000000002,0.3398969
-9.818711,-1.9196993000000002,0.3398969
-14.740035999999998,-2.4367256,-1.2686293
-14.740035999999998,-2.4367256,-1.2686293
-14.740035999999998,-2.4367256,-1.2686293
-14.740035999999998,-2.4367256,-1.2686293
-11.570856,-2.972901,0.081383765
-11.570856,-2.972901,0.081383765
-11.570856,-2.972901,0.081383765
-11.570856,-2.972901,0.081383765
-8.794233,-1.6994845,-0.12925656
-8.794233,-1.6994845,-0.12925656
-8.794233,-1.6994845,-0.12925656
-7.980396300000001,-1.9962958,-1.5750152
-7.980396300000001,-1.9962958,-1.5750152
-7.980396300000001,-1.9962958,-1.5750152
-7.980396300000001,-1.9962958,-1.5750152
-7.980396300000001,-1.9962958,-1.5750152
-8.526146,-2.2260852000000004,-0.99096704
-8.526146,-2.2260852000000004,-0.99096704
-8.526146,-2.2260852000000004,-0.99096704
-9.196365,-2.9250283,-0.63670826
-9.196365,-2.9250283,-0.63670826
-9.196365,-2.9250283,-0.63670826
-9.196365,-2.9250283,-0.63670826
-11.005958,-3.6239712,-0.5218136
-11.005958,-3.6239712,-0.5218136
-11.005958,-3.6239712,-0.5218136
-11.005958,-3.6239712,-0.5218136
-11.005958,-3.6239712,-0.5218136
-9.119769,-4.993133,0.9430941999999999
-9.119769,-4.993133,0.9430941999999999
-9.119769,-4.993133,0.9430941999999999
-13.734707,-5.242071599999999,1.3739493999999999
-13.734707,-5.242071599999999,1.3739493999999999
-13.734707,-5.242071599999999,1.3739493999999999
-13.734707,-5.242071599999999,1.3739493999999999
-11.551707,-1.2877783999999999,3.4612036
-11.551707,-1.2877783999999999,3.4612036
-11.551707,-1.2877783999999999,3.4612036
-11.551707,-1.2877783999999999,3.4612036
-11.551707,-1.2877783999999999,3.4612036
-9.742115,-1.7569318999999999,4.0548263
-9.742115,-1.7569318999999999,4.0548263
-9.742115,-1.7569318999999999,4.0548263
-8.439975,-2.1111906000000005,2.4845984
-8.439975,-2.1111906000000005,2.4845984
-8.439975,-2.1111906000000005,2.4845984
-8.439975,-2.1111906000000005,2.4845984
-7.683584700000001,-2.254809,1.9771467
-7.683584700000001,-2.254809,1.9771467
-7.683584700000001,-2.254809,1.9771467
-7.683584700000001,-2.254809,1.9771467
-7.683584700000001,-2.254809,1.9771467
-9.196365,-2.3984275,2.149489
-9.196365,-2.3984275,2.149489
-9.196365,-2.3984275,2.149489
-9.196365,-2.3984275,2.149489
-12.442142,-2.5803439999999997,2.6377914000000002
-12.442142,-2.5803439999999997,2.6377914000000002
-12.442142,-2.5803439999999997,2.6377914000000002
-15.611320499999998,-2.5228968,1.776081
-15.611320499999998,-2.5228968,1.776081
-15.611320499999998,-2.5228968,1.776081
-15.611320499999998,-2.5228968,1.776081
-12.279374,-0.00478728,1.7377827000000001
-12.279374,-0.00478728,1.7377827000000001
-12.279374,-0.00478728,1.7377827000000001
-12.279374,-0.00478728,1.7377827000000001
-9.617646,1.2686293,0.3111732
-9.617646,1.2686293,0.3111732
-9.617646,1.2686293,0.3111732
-9.617646,1.2686293,0.3111732
-6.8888964999999995,-1.0005416,0.45479164
-6.8888964999999995,-1.0005416,0.45479164
-6.8888964999999995,-1.0005416,0.45479164
-6.8888964999999995,-1.0005416,0.45479164
-5.289944599999999,-1.8431028999999999,0.18670394
-5.289944599999999,-1.8431028999999999,0.18670394
-5.289944599999999,-1.8431028999999999,0.18670394
-5.289944599999999,-1.8431028999999999,0.18670394
-7.176133,-1.5845897,0.36862057
-7.176133,-1.5845897,0.36862057
-7.176133,-1.5845897,0.36862057
-7.176133,-1.5845897,0.36862057
-9.454879,-1.2111819,1.1633091
-9.454879,-1.2111819,1.1633091
-9.454879,-1.2111819,1.1633091
-9.454879,-1.2111819,1.1633091
-11.168725,-2.5324712000000003,1.5175678999999997
-11.168725,-2.5324712000000003,1.5175678999999997
-11.168725,-2.5324712000000003,1.5175678999999997
-11.168725,-2.5324712000000003,1.5175678999999997
-13.849601999999999,-4.121848,1.1824582000000001
-13.849601999999999,-4.121848,1.1824582000000001
-13.849601999999999,-4.121848,1.1824582000000001
-13.849601999999999,-4.121848,1.1824582000000001
-10.852764,-4.08355,1.5462915000000002
-10.852764,-4.08355,1.5462915000000002
-10.852764,-4.08355,1.5462915000000002
-10.852764,-4.08355,1.5462915000000002
-9.339984,-2.0824668,1.3165021000000001
-9.339984,-2.0824668,1.3165021000000001
-9.339984,-2.0824668,1.3165021000000001
-9.339984,-2.0824668,1.3165021000000001
-9.454879,-1.776081,1.862252
-9.454879,-1.776081,1.862252
-9.454879,-1.776081,1.862252
-9.454879,-1.776081,1.862252
-8.621891999999999,-0.39734426,2.5228968
-8.621891999999999,-0.39734426,2.5228968
-8.621891999999999,-0.39734426,2.5228968
-8.621891999999999,-0.39734426,2.5228968
-7.875075999999999,-1.0005416,1.9196993000000002
-7.875075999999999,-1.0005416,1.9196993000000002
-7.875075999999999,-1.0005416,1.9196993000000002
-7.875075999999999,-1.0005416,1.9196993000000002
-7.875075999999999,-1.0005416,1.9196993000000002
-10.40276,-1.9771467,1.1058618
-10.40276,-1.9771467,1.1058618
-10.40276,-1.9771467,1.1058618
-14.385777,-1.5941644,-0.13883112
-14.385777,-1.5941644,-0.13883112
-14.385777,-1.5941644,-0.13883112
-14.385777,-1.5941644,-0.13883112
-12.212352000000001,-0.37819514,0.28244954
-12.212352000000001,-0.37819514,0.28244954
-12.212352000000001,-0.37819514,0.28244954
-12.212352000000001,-0.37819514,0.28244954
-12.212352000000001,-0.37819514,0.28244954
-9.320834,-0.05266008,1.4026731000000001
-9.320834,-0.05266008,1.4026731000000001
-9.320834,-0.05266008,1.4026731000000001
-9.828286,-0.50266445,0.70373017
-9.828286,-0.50266445,0.70373017
-9.828286,-0.50266445,0.70373017
-9.828286,-0.50266445,0.70373017
-8.459125,-1.4313968000000001,1.3260766000000002
-8.459125,-1.4313968000000001,1.3260766000000002
-8.459125,-1.4313968000000001,1.3260766000000002
-8.459125,-1.4313968000000001,1.3260766000000002
-8.870830999999999,-2.1877869999999997,1.3356511999999998
-8.870830999999999,-2.1877869999999997,1.3356511999999998
-8.870830999999999,-2.1877869999999997,1.3356511999999998
-8.870830999999999,-2.1877869999999997,1.3356511999999998
-11.341067,-3.2026904,0.70373017
-11.341067,-3.2026904,0.70373017
-11.341067,-3.2026904,0.70373017
-11.341067,-3.2026904,0.70373017
-12.422992,-3.9878044000000004,0.23457673
-12.422992,-3.9878044000000004,0.23457673
-12.422992,-3.9878044000000004,0.23457673
-12.422992,-3.9878044000000004,0.23457673
-12.786825,-4.236743,1.1345854
-12.786825,-4.236743,1.1345854
-12.786825,-4.236743,1.1345854
-12.786825,-4.236743,1.1345854
-8.2676325,-2.9441773999999996,2.2356597999999996
-8.2676325,-2.9441773999999996,2.2356597999999996
-8.2676325,-2.9441773999999996,2.2356597999999996
-8.2676325,-2.9441773999999996,2.2356597999999996
-8.5740185,-3.2505634,1.0101161
-8.5740185,-3.2505634,1.0101161
-8.5740185,-3.2505634,1.0101161
-8.5740185,-3.2505634,1.0101161
-8.5740185,-3.2505634,1.0101161
-9.167641999999999,-2.2835326,0.40691882
-9.167641999999999,-2.2835326,0.40691882
-9.167641999999999,-2.2835326,0.40691882
-10.125097,-0.6750065,1.5941644
-10.125097,-0.6750065,1.5941644
-10.125097,-0.6750065,1.5941644
-10.125097,-0.6750065,1.5941644
-12.767676,-0.4164934,1.4409714
-12.767676,-0.4164934,1.4409714
-12.767676,-0.4164934,1.4409714
-12.767676,-0.4164934,1.4409714
-12.767676,-0.4164934,1.4409714
-13.782579,-1.2399056,0.16755481
-13.782579,-1.2399056,0.16755481
-13.782579,-1.2399056,0.16755481
-10.967659,-2.0250196,0.16755481
-10.967659,-2.0250196,0.16755481
-10.967659,-2.0250196,0.16755481
-10.967659,-2.0250196,0.16755481
-7.4537954,-2.1111906000000005,1.4026731000000001
-7.4537954,-2.1111906000000005,1.4026731000000001
-7.4537954,-2.1111906000000005,1.4026731000000001
-7.4537954,-2.1111906000000005,1.4026731000000001
-7.4537954,-2.1111906000000005,1.4026731000000001
-8.248484,-0.3877697,3.1739669999999998
-8.248484,-0.3877697,3.1739669999999998
-8.248484,-0.3877697,3.1739669999999998
-9.62722,0.4164934,4.0069537
-9.62722,0.4164934,4.0069537
-9.62722,0.4164934,4.0069537
-9.62722,0.4164934,4.0069537
-9.138917999999999,-1.0196906,3.5856729
-9.138917999999999,-1.0196906,3.5856729
-9.138917999999999,-1.0196906,3.5856729
-9.138917999999999,-1.0196906,3.5856729
-9.770839,-2.6377914000000002,1.6420371999999999
-9.770839,-2.6377914000000002,1.6420371999999999
-9.770839,-2.6377914000000002,1.6420371999999999
-9.770839,-2.6377914000000002,1.6420371999999999
-11.044255,-2.6856642,0.9718179
-11.044255,-2.6856642,0.9718179
-11.044255,-2.6856642,0.9718179
-11.044255,-2.6856642,0.9718179
-11.465536,-3.4324798999999997,0.64628285
-11.465536,-3.4324798999999997,0.64628285
-11.465536,-3.4324798999999997,0.64628285
-11.063405,-4.389936,0.70373017
-11.063405,-4.389936,0.70373017
-11.063405,-4.389936,0.70373017
-11.063405,-4.389936,0.70373017
-11.063405,-4.389936,0.70373017
-9.703816999999999,-3.9016335,0.043085523
-9.703816999999999,-3.9016335,0.043085523
-9.703816999999999,-3.9016335,0.043085523
-8.899554,-2.7909843999999997,0.45479164
-8.899554,-2.7909843999999997,0.45479164
-8.899554,-2.7909843999999997,0.45479164
-8.899554,-2.7909843999999997,0.45479164
-10.421909,-2.3505547000000004,1.1537346000000002
-10.421909,-2.3505547000000004,1.1537346000000002
-10.421909,-2.3505547000000004,1.1537346000000002
-10.421909,-2.3505547000000004,1.1537346000000002
-10.058076,-0.99096704,2.3026817000000004
-10.058076,-0.99096704,2.3026817000000004
-10.058076,-0.99096704,2.3026817000000004
-10.058076,-0.99096704,2.3026817000000004
-10.622974000000001,-0.99096704,2.2165107999999996
-10.622974000000001,-0.99096704,2.2165107999999996
-10.622974000000001,-0.99096704,2.2165107999999996
-10.622974000000001,-0.99096704,2.2165107999999996
-13.638962,-1.4122477,0.78990126
-13.638962,-1.4122477,0.78990126
-13.638962,-1.4122477,0.78990126
-13.638962,-1.4122477,0.78990126
-14.031518,-0.42606795,0.64628285
-14.031518,-0.42606795,0.64628285
-14.031518,-0.42606795,0.64628285
-14.031518,-0.42606795,0.64628285
-8.23891,1.1345854,1.1154363
-8.23891,1.1345854,1.1154363
-8.23891,1.1345854,1.1154363
-8.23891,1.1345854,1.1154363
-8.957002000000001,-0.19627848,1.8143792
-8.957002000000001,-0.19627848,1.8143792
-8.957002000000001,-0.19627848,1.8143792
-8.957002000000001,-0.19627848,1.8143792
-8.957002000000001,-0.19627848,1.8143792
-9.225089,-1.1633091,1.1537346000000002
-9.225089,-1.1633091,1.1537346000000002
-9.225089,-1.1633091,1.1537346000000002
-7.9325233,-1.0484143,2.5037475
-7.9325233,-1.0484143,2.5037475
-7.9325233,-1.0484143,2.5037475
-7.9325233,-1.0484143,2.5037475
-8.880403999999999,-1.8239537000000001,1.9675721999999998
-8.880403999999999,-1.8239537000000001,1.9675721999999998
-8.880403999999999,-1.8239537000000001,1.9675721999999998
-8.880403999999999,-1.8239537000000001,1.9675721999999998
-11.044255,-2.3122563,1.5175678999999997
-11.044255,-2.3122563,1.5175678999999997
-11.044255,-2.3122563,1.5175678999999997
-11.044255,-2.3122563,1.5175678999999997
-12.56661,-2.8580062,1.4409714
-12.56661,-2.8580062,1.4409714
-12.56661,-2.8580062,1.4409714
-12.56661,-2.8580062,1.4409714
-13.485767999999998,-4.3995104000000005,1.1537346000000002
-13.485767999999998,-4.3995104000000005,1.1537346000000002
-13.485767999999998,-4.3995104000000005,1.1537346000000002
-13.485767999999998,-4.3995104000000005,1.1537346000000002
-9.033598,-3.690993,1.4888442
-9.033598,-3.690993,1.4888442
-9.033598,-3.690993,1.4888442
-7.559115400000001,-2.9346027,0.92394507
-7.559115400000001,-2.9346027,0.92394507
-7.559115400000001,-2.9346027,0.92394507
-7.559115400000001,-2.9346027,0.92394507
-9.225089,-2.2356597999999996,0.8664976999999999
-9.225089,-2.2356597999999996,0.8664976999999999
-9.225089,-2.2356597999999996,0.8664976999999999
-9.225089,-2.2356597999999996,0.8664976999999999
-9.225089,-2.2356597999999996,0.8664976999999999
-9.091045,-0.8281995000000001,1.7186337
-9.091045,-0.8281995000000001,1.7186337
-9.091045,-0.8281995000000001,1.7186337
-9.091045,-0.8281995000000001,1.7186337
-10.010203,-1.3260766000000002,1.948423
-10.010203,-1.3260766000000002,1.948423
-10.010203,-1.3260766000000002,1.948423
-13.658110999999998,-2.1207652,0.665432
-13.658110999999998,-2.1207652,0.665432
-13.658110999999998,-2.1207652,0.665432
-13.658110999999998,-2.1207652,0.665432
-13.658110999999998,-2.1207652,0.665432
-14.060242,-1.5750152,0.10053288
-14.060242,-1.5750152,0.10053288
-14.060242,-1.5750152,0.10053288
-14.060242,-1.5750152,0.10053288
-11.111278,-0.56011176,0.2920241
-11.111278,-0.56011176,0.2920241
-11.111278,-0.56011176,0.2920241
-7.6069884000000005,0.2154276,0.90479594
-7.6069884000000005,0.2154276,0.90479594
-7.6069884000000005,0.2154276,0.90479594
-7.6069884000000005,0.2154276,0.90479594
-7.6069884000000005,0.2154276,0.90479594
-8.411251,-1.14416,1.14416
-8.411251,-1.14416,1.14416
-8.411251,-1.14416,1.14416
-8.411251,-1.14416,1.14416
-7.4154973,-1.9771467,2.149489
-7.4154973,-1.9771467,2.149489
-7.4154973,-1.9771467,2.149489
-6.831449,-1.5367169,2.5037475
-6.831449,-1.5367169,2.5037475
-6.831449,-1.5367169,2.5037475
-6.831449,-1.5367169,2.5037475
-6.831449,-1.5367169,2.5037475
-8.717637,-1.9771467,2.1303396
-8.717637,-1.9771467,2.1303396
-8.717637,-1.9771467,2.1303396
-12.968742,-2.3697037999999995,2.0633178
-12.968742,-2.3697037999999995,2.0633178
-12.968742,-2.3697037999999995,2.0633178
-12.968742,-2.3697037999999995,2.0633178
-13.083637,-2.2069361,2.34098
-13.083637,-2.2069361,2.34098
-13.083637,-2.2069361,2.34098
-13.083637,-2.2069361,2.34098
-13.217680999999999,-3.4899273,2.4558747000000003
-13.217680999999999,-3.4899273,2.4558747000000003
-13.217680999999999,-3.4899273,2.4558747000000003
-13.217680999999999,-3.4899273,2.4558747000000003
-13.217680999999999,-3.4899273,2.4558747000000003
-9.110194,-3.4995019999999997,1.383524
-9.110194,-3.4995019999999997,1.383524
-9.110194,-3.4995019999999997,1.383524
-7.693159,-2.4175766,1.1728836
-7.693159,-2.4175766,1.1728836
-7.693159,-2.4175766,1.1728836
-7.693159,-2.4175766,1.1728836
-7.051664,-1.5941644,1.5367169
-7.051664,-1.5941644,1.5367169
-7.051664,-1.5941644,1.5367169
-7.051664,-1.5941644,1.5367169
-7.051664,-1.5941644,1.5367169
-6.8410234,-0.8473485999999999,2.4463003
-6.8410234,-0.8473485999999999,2.4463003
-6.8410234,-0.8473485999999999,2.4463003
-6.620808599999999,-1.1345854,1.7473572
-6.620808599999999,-1.1345854,1.7473572
-6.620808599999999,-1.1345854,1.7473572
-6.620808599999999,-1.1345854,1.7473572
-7.310177,-2.5037475,1.0962871
-7.310177,-2.5037475,1.0962871
-7.310177,-2.5037475,1.0962871
-7.310177,-2.5037475,1.0962871
-7.310177,-2.5037475,1.0962871
-10.622974000000001,-2.9920502,1.1920328000000002
-10.622974000000001,-2.9920502,1.1920328000000002
-10.622974000000001,-2.9920502,1.1920328000000002
-13.160233499999999,-2.149489,1.2207563999999997
-13.160233499999999,-2.149489,1.2207563999999997
-13.160233499999999,-2.149489,1.2207563999999997
-13.160233499999999,-2.149489,1.2207563999999997
-15.438979000000002,-2.0058703,0.44521707
-15.438979000000002,-2.0058703,0.44521707
-15.438979000000002,-2.0058703,0.44521707
-15.438979000000002,-2.0058703,0.44521707
-15.438979000000002,-2.0058703,0.44521707
-11.666602000000001,-1.6994845,1.5175678999999997
-11.666602000000001,-1.6994845,1.5175678999999997
-11.666602000000001,-1.6994845,1.5175678999999997
-11.666602000000001,-1.6994845,1.5175678999999997
-8.832532,0.22500217,1.4313968000000001
-8.832532,0.22500217,1.4313968000000001
-8.832532,0.22500217,1.4313968000000001
-7.051664,0.47394073,-0.023936402000000002
-7.051664,0.47394073,-0.023936402000000002
-7.051664,0.47394073,-0.023936402000000002
-7.051664,0.47394073,-0.023936402000000002
-7.051664,0.47394073,-0.023936402000000002
-5.8644185,-2.2643836,0.27287498
-5.8644185,-2.2643836,0.27287498
-5.8644185,-2.2643836,0.27287498
-5.8644185,-2.2643836,0.27287498
-6.9271946,-2.034594,0.05266008
-6.9271946,-2.034594,0.05266008
-6.9271946,-2.034594,0.05266008
-7.4154973,-1.6133133999999998,0.18670394
-7.4154973,-1.6133133999999998,0.18670394
-7.4154973,-1.6133133999999998,0.18670394
-7.4154973,-1.6133133999999998,0.18670394
-7.4154973,-1.6133133999999998,0.18670394
-8.056992999999999,-2.513322,1.1250108
-8.056992999999999,-2.513322,1.1250108
-8.056992999999999,-2.513322,1.1250108
-8.056992999999999,-2.513322,1.1250108
-7.7793303,-2.2069361,1.9388485
-7.7793303,-2.2069361,1.9388485
-7.7793303,-2.2069361,1.9388485
-8.296356,-2.9633265,2.2643836
-8.296356,-2.9633265,2.2643836
-8.296356,-2.9633265,2.2643836
-8.296356,-2.9633265,2.2643836
-8.296356,-2.9633265,2.2643836
-12.758101,-3.8633351,2.360129
-12.758101,-3.8633351,2.360129
-12.758101,-3.8633351,2.360129
-12.758101,-3.8633351,2.360129
-9.483603,-3.059072,2.1877869999999997
-9.483603,-3.059072,2.1877869999999997
-9.483603,-3.059072,2.1877869999999997
-9.483603,-3.059072,2.1877869999999997
-10.785743,-2.408002,2.2452345
-10.785743,-2.408002,2.2452345
-10.785743,-2.408002,2.2452345
-10.785743,-2.408002,2.2452345
-10.833615,-2.513322,1.9579976000000003
-10.833615,-2.513322,1.9579976000000003
-10.833615,-2.513322,1.9579976000000003
-10.833615,-2.513322,1.9579976000000003
-8.966576,-1.9579976000000003,2.5994933
-8.966576,-1.9579976000000003,2.5994933
-8.966576,-1.9579976000000003,2.5994933
-8.966576,-1.9579976000000003,2.5994933
-8.401677000000001,-2.1399142999999996,1.8814011999999998
-8.401677000000001,-2.1399142999999996,1.8814011999999998
-8.401677000000001,-2.1399142999999996,1.8814011999999998
-8.401677000000001,-2.1399142999999996,1.8814011999999998
-8.392102000000001,-1.5654407,1.948423
-8.392102000000001,-1.5654407,1.948423
-8.392102000000001,-1.5654407,1.948423
-8.392102000000001,-1.5654407,1.948423
-9.397431,-1.7186337,1.383524
-9.397431,-1.7186337,1.383524
-9.397431,-1.7186337,1.383524
-9.110194,-2.0441686999999997,1.2973529
-9.110194,-2.0441686999999997,1.2973529
-9.110194,-2.0441686999999997,1.2973529
-9.110194,-2.0441686999999997,1.2973529
-9.110194,-2.0441686999999997,1.2973529
-10.412334,-1.5941644,0.78032666
-10.412334,-1.5941644,0.78032666
-10.412334,-1.5941644,0.78032666
-10.335738000000001,-1.709059,0.8856468000000001
-10.335738000000001,-1.709059,0.8856468000000001
-10.335738000000001,-1.709059,0.8856468000000001
-10.335738000000001,-1.709059,0.8856468000000001
-9.330409,-2.4175766,1.1537346000000002
-9.330409,-2.4175766,1.1537346000000002
-9.330409,-2.4175766,1.1537346000000002
-9.330409,-2.4175766,1.1537346000000002
-8.401677000000001,-1.776081,0.8186249
-8.401677000000001,-1.776081,0.8186249
-8.401677000000001,-1.776081,0.8186249
-8.401677000000001,-1.776081,0.8186249
-9.177217,-2.2643836,0.3877697
-9.177217,-2.2643836,0.3877697
-9.177217,-2.2643836,0.3877697
-9.177217,-2.2643836,0.3877697
-10.354887,-3.0207740000000003,0.76117754
-10.354887,-3.0207740000000003,0.76117754
-10.354887,-3.0207740000000003,0.76117754
-10.354887,-3.0207740000000003,0.76117754
-11.1208515,-3.0303482999999996,0.63670826
-11.1208515,-3.0303482999999996,0.63670826
-11.1208515,-3.0303482999999996,0.63670826
-11.1208515,-3.0303482999999996,0.63670826
-14.079391500000002,-3.8154623999999995,0.85692316
-14.079391500000002,-3.8154623999999995,0.85692316
-14.079391500000002,-3.8154623999999995,0.85692316
-14.079391500000002,-3.8154623999999995,0.85692316
-10.996383,-3.9878044000000004,1.9867213
-10.996383,-3.9878044000000004,1.9867213
-10.996383,-3.9878044000000004,1.9867213
-10.996383,-3.9878044000000004,1.9867213
-8.32508,-2.8580062,1.9962958
-8.32508,-2.8580062,1.9962958
-8.32508,-2.8580062,1.9962958
-8.32508,-2.8580062,1.9962958
-8.32508,-2.8580062,1.9962958
-10.307014,-2.101616,2.3888528
-10.307014,-2.101616,2.3888528
-10.307014,-2.101616,2.3888528
-9.5889225,-1.4505458999999998,2.1782124
-9.5889225,-1.4505458999999998,2.1782124
-9.5889225,-1.4505458999999998,2.1782124
-9.5889225,-1.4505458999999998,2.1782124
-9.665519,-1.2111819,1.8239537000000001
-9.665519,-1.2111819,1.8239537000000001
-9.665519,-1.2111819,1.8239537000000001
-9.665519,-1.2111819,1.8239537000000001
-11.72405,-1.5941644,1.2494801000000002
-11.72405,-1.5941644,1.2494801000000002
-11.72405,-1.5941644,1.2494801000000002
-11.72405,-1.5941644,1.2494801000000002
-14.242159,-1.7952299999999999,0.33032233
-14.242159,-1.7952299999999999,0.33032233
-14.242159,-1.7952299999999999,0.33032233
-14.242159,-1.7952299999999999,0.33032233
-14.395351000000002,1.776081,-0.30159867
-14.395351000000002,1.776081,-0.30159867
-14.395351000000002,1.776081,-0.30159867
-14.395351000000002,1.776081,-0.30159867
-7.377198700000001,1.1537346000000002,1.469695
-7.377198700000001,1.1537346000000002,1.469695
-7.377198700000001,1.1537346000000002,1.469695
-7.377198700000001,1.1537346000000002,1.469695
-8.698488000000001,0.751603,0.76117754
-8.698488000000001,0.751603,0.76117754
-8.698488000000001,0.751603,0.76117754
-8.698488000000001,0.751603,0.76117754
-9.359133,-1.6133133999999998,0.9526688
-9.359133,-1.6133133999999998,0.9526688
-9.359133,-1.6133133999999998,0.9526688
-9.359133,-1.6133133999999998,0.9526688
-9.119769,-2.8963046,2.3314054
-9.119769,-2.8963046,2.3314054
-9.119769,-2.8963046,2.3314054
-9.119769,-2.8963046,2.3314054
-11.197449,-2.3314054,1.3548003
-11.197449,-2.3314054,1.3548003
-11.197449,-2.3314054,1.3548003
-11.197449,-2.3314054,1.3548003
-12.748528,-3.2697124,0.50266445
-12.748528,-3.2697124,0.50266445
-12.748528,-3.2697124,0.50266445
-12.748528,-3.2697124,0.50266445
-12.777251,-3.8824842000000004,1.4122477
-12.777251,-3.8824842000000004,1.4122477
-12.777251,-3.8824842000000004,1.4122477
-12.777251,-3.8824842000000004,1.4122477
-8.152739,-4.1792955,1.3260766000000002
-8.152739,-4.1792955,1.3260766000000002
-8.152739,-4.1792955,1.3260766000000002
-9.474028,-3.604822,-0.11968201
-9.474028,-3.604822,-0.11968201
-9.474028,-3.604822,-0.11968201
-9.474028,-3.604822,-0.11968201
-9.474028,-3.604822,-0.11968201
-9.272962,-1.6037389,0.6845810999999999
-9.272962,-1.6037389,0.6845810999999999
-9.272962,-1.6037389,0.6845810999999999
-8.583592999999999,-0.8186249,1.7665064
-8.583592999999999,-0.8186249,1.7665064
-8.583592999999999,-0.8186249,1.7665064
-8.583592999999999,-0.8186249,1.7665064
-8.583592999999999,-0.8186249,1.7665064
-8.583592999999999,-0.8186249,1.7665064
-8.583592999999999,-0.8186249,1.7665064
-8.583592999999999,-0.8186249,1.7665064
-15.362382,-1.8909756999999998,0.2920241
-15.362382,-1.8909756999999998,0.2920241
-15.362382,-1.8909756999999998,0.2920241
-15.362382,-1.8909756999999998,0.2920241
-13.715557999999998,0.56968635,0.8090504
-13.715557999999998,0.56968635,0.8090504
-13.715557999999998,0.56968635,0.8090504
-13.715557999999998,0.56968635,0.8090504
-8.909127999999999,0.8664976999999999,1.8335283
-8.909127999999999,0.8664976999999999,1.8335283
-8.909127999999999,0.8664976999999999,1.8335283
-8.909127999999999,0.8664976999999999,1.8335283
-9.167641999999999,1.0962871,1.9867213
-9.167641999999999,1.0962871,1.9867213
-9.167641999999999,1.0962871,1.9867213
-9.167641999999999,1.0962871,1.9867213
-9.407005,-0.23457673,2.1399142999999996
-9.407005,-0.23457673,2.1399142999999996
-9.407005,-0.23457673,2.1399142999999996
-8.296356,-1.8718264999999998,1.8431028999999999
-8.296356,-1.8718264999999998,1.8431028999999999
-8.296356,-1.8718264999999998,1.8431028999999999
-8.296356,-1.8718264999999998,1.8431028999999999
-9.378282,-2.647366,1.5175678999999997
-9.378282,-2.647366,1.5175678999999997
-9.378282,-2.647366,1.5175678999999997
-9.378282,-2.647366,1.5175678999999997
-12.2410755,-3.0303482999999996,0.98139244
-12.2410755,-3.0303482999999996,0.98139244
-12.2410755,-3.0303482999999996,0.98139244
-12.2410755,-3.0303482999999996,0.98139244
-12.614484,-3.5473747,0.8186249
-12.614484,-3.5473747,0.8186249
-12.614484,-3.5473747,0.8186249
-12.614484,-3.5473747,0.8186249
-11.743198,-4.658024,1.0005416
-11.743198,-4.658024,1.0005416
-11.743198,-4.658024,1.0005416
-11.743198,-4.658024,1.0005416
-8.372953,-3.9782297999999994,0.19627848
-8.372953,-3.9782297999999994,0.19627848
-8.372953,-3.9782297999999994,0.19627848
-9.301685,-2.6282167000000003,0.23457673
-9.301685,-2.6282167000000003,0.23457673
-9.301685,-2.6282167000000003,0.23457673
-9.301685,-2.6282167000000003,0.23457673
-9.320834,-0.7994758000000001,0.77075213
-9.320834,-0.7994758000000001,0.77075213
-9.320834,-0.7994758000000001,0.77075213
-9.320834,-0.7994758000000001,0.77075213
-9.952755999999999,-0.44521707,1.9101248
-9.952755999999999,-0.44521707,1.9101248
-9.952755999999999,-0.44521707,1.9101248
-9.952755999999999,-0.44521707,1.9101248
-11.341067,-1.383524,0.61755913
-11.341067,-1.383524,0.61755913
-11.341067,-1.383524,0.61755913
-11.341067,-1.383524,0.61755913
-14.787908999999999,-1.383524,-0.49308985
-14.787908999999999,-1.383524,-0.49308985
-14.787908999999999,-1.383524,-0.49308985
-14.787908999999999,-1.383524,-0.49308985
-14.787908999999999,-1.383524,-0.49308985
-11.628304,0.36862057,0.70373017
-11.628304,0.36862057,0.70373017
-11.628304,0.36862057,0.70373017
-8.028269,-1.1920328000000002,2.8484317999999997
-8.028269,-1.1920328000000002,2.8484317999999997
-8.028269,-1.1920328000000002,2.8484317999999997
-8.028269,-1.1920328000000002,2.8484317999999997
-9.64637,-0.359046,2.752686
-9.64637,-0.359046,2.752686
-9.64637,-0.359046,2.752686
-9.64637,-0.359046,2.752686
-9.64637,-0.359046,2.752686
-9.014449,-0.76117754,2.34098
-9.014449,-0.76117754,2.34098
-9.014449,-0.76117754,2.34098
-8.11444,-1.8239537000000001,1.5175678999999997
-8.11444,-1.8239537000000001,1.5175678999999997
-8.11444,-1.8239537000000001,1.5175678999999997
-8.11444,-1.8239537000000001,1.5175678999999997
-10.038927000000001,-2.8484317999999997,0.40691882
-10.038927000000001,-2.8484317999999997,0.40691882
-10.038927000000001,-2.8484317999999997,0.40691882
-10.038927000000001,-2.8484317999999997,0.40691882
-12.078308,-2.905879,-0.43564250000000004
-12.078308,-2.905879,-0.43564250000000004
-12.078308,-2.905879,-0.43564250000000004
-12.078308,-2.905879,-0.43564250000000004
-12.892146,-3.5282254,-0.19627848
-12.892146,-3.5282254,-0.19627848
-12.892146,-3.5282254,-0.19627848
-12.892146,-3.5282254,-0.19627848
-11.791071,-4.6293,0.5888355
-11.791071,-4.6293,0.5888355
-11.791071,-4.6293,0.5888355
-11.791071,-4.6293,0.5888355
-9.052747,-3.7963133,-0.28244954
-9.052747,-3.7963133,-0.28244954
-9.052747,-3.7963133,-0.28244954
-9.052747,-3.7963133,-0.28244954
-9.684667999999999,-2.5037475,2.321831
-9.684667999999999,-2.5037475,2.321831
-9.684667999999999,-2.5037475,2.321831
-9.684667999999999,-2.5037475,2.321831
-11.312344,-1.4218222,1.9388485
-11.312344,-1.4218222,1.9388485
-11.312344,-1.4218222,1.9388485
-11.312344,-1.4218222,1.9388485
-10.565528,-1.5558661,0.7420284
-10.565528,-1.5558661,0.7420284
-10.565528,-1.5558661,0.7420284
-10.565528,-1.5558661,0.7420284
-10.479357,-0.90479594,-0.50266445
-10.479357,-0.90479594,-0.50266445
-10.479357,-0.90479594,-0.50266445
-10.479357,-0.90479594,-0.50266445
-11.647452000000001,-1.5750152,-1.3739493999999999
-11.647452000000001,-1.5750152,-1.3739493999999999
-11.647452000000001,-1.5750152,-1.3739493999999999
-11.647452000000001,-1.5750152,-1.3739493999999999
-10.450633,-2.7239625,-1.2494801000000002
-10.450633,-2.7239625,-1.2494801000000002
-10.450633,-2.7239625,-1.2494801000000002
-10.450633,-2.7239625,-1.2494801000000002
-7.865501400000001,-1.14416,0.78032666
-7.865501400000001,-1.14416,0.78032666
-7.865501400000001,-1.14416,0.78032666
-7.865501400000001,-1.14416,0.78032666
-8.746361,-0.25372586,1.948423
-8.746361,-0.25372586,1.948423
-8.746361,-0.25372586,1.948423
-8.746361,-0.25372586,1.948423
-10.833615,-1.5079931999999998,2.3026817000000004
-10.833615,-1.5079931999999998,2.3026817000000004
-10.833615,-1.5079931999999998,2.3026817000000004
-10.833615,-1.5079931999999998,2.3026817000000004
-9.722966,-2.4654493,2.2643836
-9.722966,-2.4654493,2.2643836
-9.722966,-2.4654493,2.2643836
-9.722966,-2.4654493,2.2643836
-8.593167999999999,-2.7431116,1.0196906
-8.593167999999999,-2.7431116,1.0196906
-8.593167999999999,-2.7431116,1.0196906
-8.593167999999999,-2.7431116,1.0196906
-10.958084,-2.4558747000000003,0.93351966
-10.958084,-2.4558747000000003,0.93351966
-10.958084,-2.4558747000000003,0.93351966
-10.958084,-2.4558747000000003,0.93351966
-12.968742,-3.2601378,1.0388398
-12.968742,-3.2601378,1.0388398
-12.968742,-3.2601378,1.0388398
-12.968742,-3.2601378,1.0388398
-13.763431,-4.121848,1.3930986
-13.763431,-4.121848,1.3930986
-13.763431,-4.121848,1.3930986
-13.763431,-4.121848,1.3930986
-7.0995364,-3.7675896,1.3739493999999999
-7.0995364,-3.7675896,1.3739493999999999
-7.0995364,-3.7675896,1.3739493999999999
-7.0995364,-3.7675896,1.3739493999999999
-8.937852000000001,-2.8580062,0.8760723
-8.937852000000001,-2.8580062,0.8760723
-8.937852000000001,-2.8580062,0.8760723
-10.766592999999999,-1.6994845,0.8281995000000001
-10.766592999999999,-1.6994845,0.8281995000000001
-10.766592999999999,-1.6994845,0.8281995000000001
-10.766592999999999,-1.6994845,0.8281995000000001
-10.479357,-0.71330476,1.9867213
-10.479357,-0.71330476,1.9867213
-10.479357,-0.71330476,1.9867213
-10.479357,-0.71330476,1.9867213
-10.479357,-0.71330476,1.9867213
-9.272962,-1.2399056,1.8143792
-9.272962,-1.2399056,1.8143792
-9.272962,-1.2399056,1.8143792
-11.522984,-1.9005502,0.7420284
-11.522984,-1.9005502,0.7420284
-11.522984,-1.9005502,0.7420284
-11.522984,-1.9005502,0.7420284
-12.518738,-1.2494801000000002,0.8664976999999999
-12.518738,-1.2494801000000002,0.8664976999999999
-12.518738,-1.2494801000000002,0.8664976999999999
-12.518738,-1.2494801000000002,0.8664976999999999
-12.518738,-1.2494801000000002,0.8664976999999999
-10.450633,-0.6845810999999999,1.0484143
-10.450633,-0.6845810999999999,1.0484143
-10.450633,-0.6845810999999999,1.0484143
-10.450633,-0.6845810999999999,1.0484143
-8.459125,-1.3739493999999999,2.1590632999999997
-8.459125,-1.3739493999999999,2.1590632999999997
-8.459125,-1.3739493999999999,2.1590632999999997
-8.822957,-1.1058618,1.5654407
-8.822957,-1.1058618,1.5654407
-8.822957,-1.1058618,1.5654407
-8.822957,-1.1058618,1.5654407
-8.286782,-1.2782038,2.2643836
-8.286782,-1.2782038,2.2643836
-8.286782,-1.2782038,2.2643836
-8.286782,-1.2782038,2.2643836
-8.286782,-1.2782038,2.2643836
-7.855927,-1.9292740000000002,1.6228879999999999
-7.855927,-1.9292740000000002,1.6228879999999999
-7.855927,-1.9292740000000002,1.6228879999999999
-9.407005,-3.3367343000000003,0.70373017
-9.407005,-3.3367343000000003,0.70373017
-9.407005,-3.3367343000000003,0.70373017
-9.407005,-3.3367343000000003,0.70373017
-9.407005,-3.3367343000000003,0.70373017
-12.537887,-3.5760984,1.1633091
-12.537887,-3.5760984,1.1633091
-12.537887,-3.5760984,1.1633091
-12.537887,-3.5760984,1.1633091
-10.900637,-1.8143792,2.8963046
-10.900637,-1.8143792,2.8963046
-10.900637,-1.8143792,2.8963046
-12.375119,-3.2026904,1.5367169
-12.375119,-3.2026904,1.5367169
-12.375119,-3.2026904,1.5367169
-12.375119,-3.2026904,1.5367169
-12.375119,-3.2026904,1.5367169
-10.546378,-3.9782297999999994,1.5845897
-10.546378,-3.9782297999999994,1.5845897
-10.546378,-3.9782297999999994,1.5845897
-9.320834,-2.4175766,1.8526775000000002
-9.320834,-2.4175766,1.8526775000000002
-9.320834,-2.4175766,1.8526775000000002
-9.320834,-2.4175766,1.8526775000000002
-10.814466,-1.2494801000000002,2.254809
-10.814466,-1.2494801000000002,2.254809
-10.814466,-1.2494801000000002,2.254809
-10.814466,-1.2494801000000002,2.254809
-9.598496,-0.56011176,3.2505634
-9.598496,-0.56011176,3.2505634
-9.598496,-0.56011176,3.2505634
-9.598496,-0.56011176,3.2505634
-7.721883,-1.2303311000000001,2.752686
-7.721883,-1.2303311000000001,2.752686
-7.721883,-1.2303311000000001,2.752686
-7.721883,-1.2303311000000001,2.752686
-6.745278,-1.9962958,2.0537431
-6.745278,-1.9962958,2.0537431
-6.745278,-1.9962958,2.0537431
-6.745278,-1.9962958,2.0537431
-6.113357,-1.948423,2.2739582
-6.113357,-1.948423,2.2739582
-6.113357,-1.948423,2.2739582
-6.113357,-1.948423,2.2739582
-6.8793216,-1.709059,2.3888528
-6.8793216,-1.709059,2.3888528
-6.8793216,-1.709059,2.3888528
-6.8793216,-1.709059,2.3888528
-7.654861,-1.3165021000000001,2.4175766
-7.654861,-1.3165021000000001,2.4175766
-7.654861,-1.3165021000000001,2.4175766
-7.654861,-1.3165021000000001,2.4175766
-10.134672,-1.7856555,1.7473572
-10.134672,-1.7856555,1.7473572
-10.134672,-1.7856555,1.7473572
-10.134672,-1.7856555,1.7473572
-14.941101999999999,-1.9675721999999998,-0.14840569
-14.941101999999999,-1.9675721999999998,-0.14840569
-14.941101999999999,-1.9675721999999998,-0.14840569
-13.897473999999999,-2.561195,-0.91437054
-13.897473999999999,-2.561195,-0.91437054
-13.897473999999999,-2.561195,-0.91437054
-13.897473999999999,-2.561195,-0.91437054
-13.897473999999999,-2.561195,-0.91437054
-10.852764,-2.015445,-1.6899098999999997
-10.852764,-2.015445,-1.6899098999999997
-10.852764,-2.015445,-1.6899098999999997
-10.852764,-2.015445,-1.6899098999999997
-9.397431,-1.9196993000000002,-0.98139244
-9.397431,-1.9196993000000002,-0.98139244
-9.397431,-1.9196993000000002,-0.98139244
-7.635712,-2.4463003,-0.751603
-7.635712,-2.4463003,-0.751603
-7.635712,-2.4463003,-0.751603
-7.635712,-2.4463003,-0.751603
-7.8846507,-2.6282167000000003,0.14840569
-7.8846507,-2.6282167000000003,0.14840569
-7.8846507,-2.6282167000000003,0.14840569
-7.8846507,-2.6282167000000003,0.14840569
-7.8846507,-2.6282167000000003,0.14840569
-8.55487,-2.7814097,1.2303311000000001
-8.55487,-2.7814097,1.2303311000000001
-8.55487,-2.7814097,1.2303311000000001
-8.55487,-2.7814097,1.2303311000000001
-9.339984,-3.2601378,1.8814011999999998
-9.339984,-3.2601378,1.8814011999999998
-9.339984,-3.2601378,1.8814011999999998
-12.059159,-3.7005677,3.6814184
-12.059159,-3.7005677,3.6814184
-12.059159,-3.7005677,3.6814184
-12.059159,-3.7005677,3.6814184
-12.059159,-3.7005677,3.6814184
-9.62722,-3.2218397000000003,4.619725
-9.62722,-3.2218397000000003,4.619725
-9.62722,-3.2218397000000003,4.619725
-9.62722,-3.2218397000000003,4.619725
-11.925115,-3.1260939999999997,3.6239712
-11.925115,-3.1260939999999997,3.6239712
-11.925115,-3.1260939999999997,3.6239712
-12.269799,-2.2356597999999996,2.8484317999999997
-12.269799,-2.2356597999999996,2.8484317999999997
-12.269799,-2.2356597999999996,2.8484317999999997
-12.269799,-2.2356597999999996,2.8484317999999997
-12.269799,-2.2356597999999996,2.8484317999999997
-9.8953085,-2.2835326,1.9867213
-9.8953085,-2.2835326,1.9867213
-9.8953085,-2.2835326,1.9867213
-9.8953085,-2.2835326,1.9867213
-8.372953,-1.9292740000000002,0.9430941999999999
-8.372953,-1.9292740000000002,0.9430941999999999
-8.372953,-1.9292740000000002,0.9430941999999999
-8.372953,-1.9292740000000002,0.9430941999999999
-9.5889225,-1.776081,1.4888442
-9.5889225,-1.776081,1.4888442
-9.5889225,-1.776081,1.4888442
-9.5889225,-1.776081,1.4888442
-8.535721,-1.2877783999999999,1.5367169
-8.535721,-1.2877783999999999,1.5367169
-8.535721,-1.2877783999999999,1.5367169
-8.535721,-1.2877783999999999,1.5367169
-10.814466,-2.494173,1.469695
-10.814466,-2.494173,1.469695
-10.814466,-2.494173,1.469695
-10.814466,-2.494173,1.469695
-13.303852,-2.1207652,0.081383765
-13.303852,-2.1207652,0.081383765
-13.303852,-2.1207652,0.081383765
-13.303852,-2.1207652,0.081383765
-11.838944,-1.2782038,0.00478728
-11.838944,-1.2782038,0.00478728
-11.838944,-1.2782038,0.00478728
-11.838944,-1.2782038,0.00478728
-9.5889225,-1.8335283,1.0771381000000002
-9.5889225,-1.8335283,1.0771381000000002
-9.5889225,-1.8335283,1.0771381000000002
-9.5889225,-1.8335283,1.0771381000000002
-6.9271946,-2.3314054,0.9430941999999999
-6.9271946,-2.3314054,0.9430941999999999
-6.9271946,-2.3314054,0.9430941999999999
-6.9271946,-2.3314054,0.9430941999999999
-7.2335806,-1.8239537000000001,1.4792696
-7.2335806,-1.8239537000000001,1.4792696
-7.2335806,-1.8239537000000001,1.4792696
-7.2335806,-1.8239537000000001,1.4792696
-9.349558,-1.4792696,1.5558661
-9.349558,-1.4792696,1.5558661
-9.349558,-1.4792696,1.5558661
-9.349558,-1.4792696,1.5558661
-10.268716,-2.4367256,1.6611862000000002
-10.268716,-2.4367256,1.6611862000000002
-10.268716,-2.4367256,1.6611862000000002
-10.268716,-2.4367256,1.6611862000000002
-10.421909,-3.844186,1.6516117
-10.421909,-3.844186,1.6516117
-10.421909,-3.844186,1.6516117
-10.421909,-3.844186,1.6516117
-12.978316,-4.016528,1.8239537000000001
-12.978316,-4.016528,1.8239537000000001
-12.978316,-4.016528,1.8239537000000001
-12.978316,-4.016528,1.8239537000000001
-10.469782,-2.7718353,1.1633091
-10.469782,-2.7718353,1.1633091
-10.469782,-2.7718353,1.1633091
-10.469782,-2.7718353,1.1633091
-10.6134,-1.6324625,0.9526688
-10.6134,-1.6324625,0.9526688
-10.6134,-1.6324625,0.9526688
-10.6134,-1.6324625,0.9526688
-9.684667999999999,-0.14840569,1.5845897
-9.684667999999999,-0.14840569,1.5845897
-9.684667999999999,-0.14840569,1.5845897
-9.684667999999999,-0.14840569,1.5845897
-9.933606,-0.64628285,2.2931072999999995
-9.933606,-0.64628285,2.2931072999999995
-9.933606,-0.64628285,2.2931072999999995
-9.933606,-0.64628285,2.2931072999999995
-10.814466,-2.0728923999999997,1.0579889
-10.814466,-2.0728923999999997,1.0579889
-10.814466,-2.0728923999999997,1.0579889
-10.814466,-2.0728923999999997,1.0579889
-11.513409,-2.2931072999999995,-0.2441513
-11.513409,-2.2931072999999995,-0.2441513
-11.513409,-2.2931072999999995,-0.2441513
-11.513409,-2.2931072999999995,-0.2441513
-11.149575,-2.0441686999999997,-0.27287498
-11.149575,-2.0441686999999997,-0.27287498
-11.149575,-2.0441686999999997,-0.27287498
-11.149575,-2.0441686999999997,-0.27287498
-9.263388,-1.4122477,0.110107444
-9.263388,-1.4122477,0.110107444
-9.263388,-1.4122477,0.110107444
-9.263388,-1.4122477,0.110107444
-7.5112429999999994,-0.751603,1.0962871
-7.5112429999999994,-0.751603,1.0962871
-7.5112429999999994,-0.751603,1.0962871
-7.5112429999999994,-0.751603,1.0962871
-7.156984,-1.4888442,1.1920328000000002
-7.156984,-1.4888442,1.1920328000000002
-7.156984,-1.4888442,1.1920328000000002
-7.156984,-1.4888442,1.1920328000000002
-6.9271946,-1.9579976000000003,1.3452256999999999
-6.9271946,-1.9579976000000003,1.3452256999999999
-6.9271946,-1.9579976000000003,1.3452256999999999
-6.9271946,-1.9579976000000003,1.3452256999999999
-9.761265,-2.7431116,1.0675635
-9.761265,-2.7431116,1.0675635
-9.761265,-2.7431116,1.0675635
-13.658110999999998,-2.5228968,2.101616
-13.658110999999998,-2.5228968,2.101616
-13.658110999999998,-2.5228968,2.101616
-13.658110999999998,-2.5228968,2.101616
-13.112360999999998,-2.0633178,2.4175766
-13.112360999999998,-2.0633178,2.4175766
-13.112360999999998,-2.0633178,2.4175766
-13.112360999999998,-2.0633178,2.4175766
-13.610238,-3.7197167999999996,1.8239537000000001
-13.610238,-3.7197167999999996,1.8239537000000001
-13.610238,-3.7197167999999996,1.8239537000000001
-13.610238,-3.7197167999999996,1.8239537000000001
-13.610238,-3.7197167999999996,1.8239537000000001
-8.411251,-3.671844,1.8048046999999998
-8.411251,-3.671844,1.8048046999999998
-8.411251,-3.671844,1.8048046999999998
-7.156984,-2.7814097,1.3739493999999999
-7.156984,-2.7814097,1.3739493999999999
-7.156984,-2.7814097,1.3739493999999999
-7.156984,-2.7814097,1.3739493999999999
-8.076141,-1.9771467,0.91437054
-8.076141,-1.9771467,0.91437054
-8.076141,-1.9771467,0.91437054
-8.076141,-1.9771467,0.91437054
-8.076141,-1.9771467,0.91437054
-8.248484,-0.6558574,1.3739493999999999
-8.248484,-0.6558574,1.3739493999999999
-8.248484,-0.6558574,1.3739493999999999
-11.101703,-0.98139244,1.7186337
-11.101703,-0.98139244,1.7186337
-11.101703,-0.98139244,1.7186337
-11.101703,-0.98139244,1.7186337
-11.101703,-0.98139244,1.7186337
-15.008123000000001,-1.5271424,0.3111732
-15.008123000000001,-1.5271424,0.3111732
-15.008123000000001,-1.5271424,0.3111732
-14.577269,-0.3877697,-0.26330042
-14.577269,-0.3877697,-0.26330042
-14.577269,-0.3877697,-0.26330042
-14.577269,-0.3877697,-0.26330042
-9.54105,-0.22500217,0.45479164
-9.54105,-0.22500217,0.45479164
-9.54105,-0.22500217,0.45479164
-9.54105,-0.22500217,0.45479164
-8.076141,1.4409714,1.5462915000000002
-8.076141,1.4409714,1.5462915000000002
-8.076141,1.4409714,1.5462915000000002
-8.076141,1.4409714,1.5462915000000002
-7.042089,1.2782038,1.8143792
-7.042089,1.2782038,1.8143792
-7.042089,1.2782038,1.8143792
-7.042089,1.2782038,1.8143792
-7.329325999999999,-0.32074776,2.3792782000000003
-7.329325999999999,-0.32074776,2.3792782000000003
-7.329325999999999,-0.32074776,2.3792782000000003
-7.329325999999999,-0.32074776,2.3792782000000003
-11.149575,-1.2016073,2.0824668
-11.149575,-1.2016073,2.0824668
-11.149575,-1.2016073,2.0824668
-11.149575,-1.2016073,2.0824668
-12.67193,-2.1782124,1.6611862000000002
-12.67193,-2.1782124,1.6611862000000002
-12.67193,-2.1782124,1.6611862000000002
-12.67193,-2.1782124,1.6611862000000002
-12.767676,-3.2984362000000003,0.5218136
-12.767676,-3.2984362000000003,0.5218136
-12.767676,-3.2984362000000003,0.5218136
-12.767676,-3.2984362000000003,0.5218136
-12.8538475,-5.586755999999999,0.22500217
-12.8538475,-5.586755999999999,0.22500217
-12.8538475,-5.586755999999999,0.22500217
-12.8538475,-5.586755999999999,0.22500217
-9.148492999999998,-4.169721,0.8473485999999999
-9.148492999999998,-4.169721,0.8473485999999999
-9.148492999999998,-4.169721,0.8473485999999999
-9.148492999999998,-4.169721,0.8473485999999999
-8.047417999999999,-2.0633178,1.9675721999999998
-8.047417999999999,-2.0633178,1.9675721999999998
-8.047417999999999,-2.0633178,1.9675721999999998
-8.047417999999999,-2.0633178,1.9675721999999998
-9.904882,-2.015445,1.5941644
-9.904882,-2.015445,1.5941644
-9.904882,-2.015445,1.5941644
-9.904882,-2.015445,1.5941644
-10.431483,-1.6228879999999999,1.3260766000000002
-10.431483,-1.6228879999999999,1.3260766000000002
-10.431483,-1.6228879999999999,1.3260766000000002
-10.431483,-1.6228879999999999,1.3260766000000002
-11.111278,-1.1920328000000002,1.2590546999999999
-11.111278,-1.1920328000000002,1.2590546999999999
-11.111278,-1.1920328000000002,1.2590546999999999
-11.111278,-1.1920328000000002,1.2590546999999999
-12.164479,-1.6516117,0.36862057
-12.164479,-1.6516117,0.36862057
-12.164479,-1.6516117,0.36862057
-12.164479,-1.6516117,0.36862057
-11.647452000000001,-1.5750152,-0.17712937
-11.647452000000001,-1.5750152,-0.17712937
-11.647452000000001,-1.5750152,-0.17712937
-11.647452000000001,-1.5750152,-0.17712937
-10.048501,0.110107444,-0.11968201
-10.048501,0.110107444,-0.11968201
-10.048501,0.110107444,-0.11968201
-10.048501,0.110107444,-0.11968201
-9.301685,-1.3260766000000002,1.0101161
-9.301685,-1.3260766000000002,1.0101161
-9.301685,-1.3260766000000002,1.0101161
-9.301685,-1.3260766000000002,1.0101161
-9.550624000000001,-1.1633091,1.4218222
-9.550624000000001,-1.1633091,1.4218222
-9.550624000000001,-1.1633091,1.4218222
-9.550624000000001,-1.1633091,1.4218222
-9.6942425,-1.2111819,2.7622607000000006
-9.6942425,-1.2111819,2.7622607000000006
-9.6942425,-1.2111819,2.7622607000000006
-9.6942425,-1.2111819,2.7622607000000006
-8.870830999999999,-1.776081,2.2643836
-8.870830999999999,-1.776081,2.2643836
-8.870830999999999,-1.776081,2.2643836
-8.870830999999999,-1.776081,2.2643836
-10.230417999999998,-3.2409887000000004,1.3260766000000002
-10.230417999999998,-3.2409887000000004,1.3260766000000002
-10.230417999999998,-3.2409887000000004,1.3260766000000002
-10.230417999999998,-3.2409887000000004,1.3260766000000002
-12.145328999999998,-3.1356685,0.64628285
-12.145328999999998,-3.1356685,0.64628285
-12.145328999999998,-3.1356685,0.64628285
-12.145328999999998,-3.1356685,0.64628285
-12.432567,-3.1356685,1.3452256999999999
-12.432567,-3.1356685,1.3452256999999999
-12.432567,-3.1356685,1.3452256999999999
-12.432567,-3.1356685,1.3452256999999999
-12.279374,-4.275041000000001,1.3069274
-12.279374,-4.275041000000001,1.3069274
-12.279374,-4.275041000000001,1.3069274
-12.279374,-4.275041000000001,1.3069274
-8.487848,-3.6143966,0.9526688
-8.487848,-3.6143966,0.9526688
-8.487848,-3.6143966,0.9526688
-8.487848,-3.6143966,0.9526688
-8.305931,-2.972901,0.7228793
-8.305931,-2.972901,0.7228793
-8.305931,-2.972901,0.7228793
-8.305931,-2.972901,0.7228793
-8.7750845,-1.709059,1.1633091
-8.7750845,-1.709059,1.1633091
-8.7750845,-1.709059,1.1633091
-8.7750845,-1.709059,1.1633091
-8.34423,-0.85692316,2.0728923999999997
-8.34423,-0.85692316,2.0728923999999997
-8.34423,-0.85692316,2.0728923999999997
-8.34423,-0.85692316,2.0728923999999997
-10.249566999999999,-0.8760723,1.6899098999999997
-10.249566999999999,-0.8760723,1.6899098999999997
-10.249566999999999,-0.8760723,1.6899098999999997
-10.249566999999999,-0.8760723,1.6899098999999997
-13.188957,-1.2207563999999997,0.48351530000000004
-13.188957,-1.2207563999999997,0.48351530000000004
-13.188957,-1.2207563999999997,0.48351530000000004
-13.188957,-1.2207563999999997,0.48351530000000004
-13.160233499999999,-1.7856555,-0.46436617
-13.160233499999999,-1.7856555,-0.46436617
-13.160233499999999,-1.7856555,-0.46436617
-13.160233499999999,-1.7856555,-0.46436617
-11.015532,-1.3452256999999999,-0.014361841
-11.015532,-1.3452256999999999,-0.014361841
-11.015532,-1.3452256999999999,-0.014361841
-11.015532,-1.3452256999999999,-0.014361841
-7.5495410000000005,-1.1058618,1.2782038
-7.5495410000000005,-1.1058618,1.2782038
-7.5495410000000005,-1.1058618,1.2782038
-7.5495410000000005,-1.1058618,1.2782038
-7.7984796,-0.23457673,1.2111819
-7.7984796,-0.23457673,1.2111819
-7.7984796,-0.23457673,1.2111819
-7.7984796,-0.23457673,1.2111819
-7.9899707,-1.3165021000000001,1.9388485
-7.9899707,-1.3165021000000001,1.9388485
-7.9899707,-1.3165021000000001,1.9388485
-7.9899707,-1.3165021000000001,1.9388485
-7.6452865999999995,-2.5037475,1.8239537000000001
-7.6452865999999995,-2.5037475,1.8239537000000001
-7.6452865999999995,-2.5037475,1.8239537000000001
-7.6452865999999995,-2.5037475,1.8239537000000001
-8.851681,-2.6952388,1.2016073
-8.851681,-2.6952388,1.2016073
-8.851681,-2.6952388,1.2016073
-8.851681,-2.6952388,1.2016073
-13.179382,-2.8388572,1.1058618
-13.179382,-2.8388572,1.1058618
-13.179382,-2.8388572,1.1058618
-13.179382,-2.8388572,1.1058618
-13.648535999999998,-3.193116,1.6899098999999997
-13.648535999999998,-3.193116,1.6899098999999997
-13.648535999999998,-3.193116,1.6899098999999997
-13.648535999999998,-3.193116,1.6899098999999997
-13.294277,-3.5760984,2.4750240000000003
-13.294277,-3.5760984,2.4750240000000003
-13.294277,-3.5760984,2.4750240000000003
-13.294277,-3.5760984,2.4750240000000003
-7.6740103,-2.7622607000000006,2.0728923999999997
-7.6740103,-2.7622607000000006,2.0728923999999997
-7.6740103,-2.7622607000000006,2.0728923999999997
-7.6740103,-2.7622607000000006,2.0728923999999997
-7.7123084,-3.059072,1.7473572
-7.7123084,-3.059072,1.7473572
-7.7123084,-3.059072,1.7473572
-7.7123084,-3.059072,1.7473572
-9.397431,-1.9388485,0.8186249
-9.397431,-1.9388485,0.8186249
-9.397431,-1.9388485,0.8186249
-9.397431,-1.9388485,0.8186249
-8.851681,-0.9622433000000001,1.5079931999999998
-8.851681,-0.9622433000000001,1.5079931999999998
-8.851681,-0.9622433000000001,1.5079931999999998
-8.851681,-0.9622433000000001,1.5079931999999998
-8.076141,-1.5462915000000002,0.61755913
-8.076141,-1.5462915000000002,0.61755913
-8.076141,-1.5462915000000002,0.61755913
-8.076141,-1.5462915000000002,0.61755913
-8.985725,-2.360129,-0.23457673
-8.985725,-2.360129,-0.23457673
-8.985725,-2.360129,-0.23457673
-8.985725,-2.360129,-0.23457673
-10.555953,-1.9962958,-0.00478728
-10.555953,-1.9962958,-0.00478728
-10.555953,-1.9962958,-0.00478728
-10.555953,-1.9962958,-0.00478728
-10.555953,-1.9962958,-0.00478728
-11.532558,-1.8048046999999998,0.5218136
-11.532558,-1.8048046999999998,0.5218136
-11.532558,-1.8048046999999998,0.5218136
-13.255979,-3.1165195,0.2441513
-13.255979,-3.1165195,0.2441513
-13.255979,-3.1165195,0.2441513
-13.255979,-3.1165195,0.2441513
-8.909127999999999,-3.0494976,1.8335283
-8.909127999999999,-3.0494976,1.8335283
-8.909127999999999,-3.0494976,1.8335283
-8.909127999999999,-3.0494976,1.8335283
-8.909127999999999,-3.0494976,1.8335283
-7.501668,-1.6899098999999997,3.1739669999999998
-7.501668,-1.6899098999999997,3.1739669999999998
-7.501668,-1.6899098999999997,3.1739669999999998
-7.8176284,-1.1154363,2.9824755
-7.8176284,-1.1154363,2.9824755
-7.8176284,-1.1154363,2.9824755
-7.8176284,-1.1154363,2.9824755
-7.8176284,-1.1154363,2.9824755
-7.626137299999999,-1.3356511999999998,3.193116
-7.626137299999999,-1.3356511999999998,3.193116
-7.626137299999999,-1.3356511999999998,3.193116
-7.626137299999999,-1.3356511999999998,3.193116
-8.44955,-2.408002,2.1877869999999997
-8.44955,-2.408002,2.1877869999999997
-8.44955,-2.408002,2.1877869999999997
-8.21976,-2.513322,1.4792696
-8.21976,-2.513322,1.4792696
-8.21976,-2.513322,1.4792696
-8.21976,-2.513322,1.4792696
-8.21976,-2.513322,1.4792696
-8.736787,-2.2739582,1.4218222
-8.736787,-2.2739582,1.4218222
-8.736787,-2.2739582,1.4218222
-8.23891,-2.4175766,1.3356511999999998
-8.23891,-2.4175766,1.3356511999999998
-8.23891,-2.4175766,1.3356511999999998
-8.23891,-2.4175766,1.3356511999999998
-8.23891,-2.4175766,1.3356511999999998
-7.8367777,-2.6569404999999997,1.5367169
-7.8367777,-2.6569404999999997,1.5367169
-7.8367777,-2.6569404999999997,1.5367169
-7.8367777,-2.6569404999999997,1.5367169
-10.594251,-2.9824755,2.0824668
-10.594251,-2.9824755,2.0824668
-10.594251,-2.9824755,2.0824668
-8.526146,-2.8292825,1.8526775000000002
-8.526146,-2.8292825,1.8526775000000002
-8.526146,-2.8292825,1.8526775000000002
-8.526146,-2.8292825,1.8526775000000002
-8.526146,-2.8292825,1.8526775000000002
-9.301685,-2.6569404999999997,1.6037389
-9.301685,-2.6569404999999997,1.6037389
-9.301685,-2.6569404999999997,1.6037389
-9.301685,-2.6569404999999997,1.6037389
-10.278291000000001,-2.1973617,1.3069274
-10.278291000000001,-2.1973617,1.3069274
-10.278291000000001,-2.1973617,1.3069274
-10.278291000000001,-2.1973617,1.3069274
-8.889978999999999,-1.9771467,1.6994845
-8.889978999999999,-1.9771467,1.6994845
-8.889978999999999,-1.9771467,1.6994845
-8.889978999999999,-1.9771467,1.6994845
-9.18679,-2.494173,1.1537346000000002
-9.18679,-2.494173,1.1537346000000002
-9.18679,-2.494173,1.1537346000000002
-9.18679,-2.494173,1.1537346000000002
-9.550624000000001,-2.4750240000000003,1.2111819
-9.550624000000001,-2.4750240000000003,1.2111819
-9.550624000000001,-2.4750240000000003,1.2111819
-9.550624000000001,-2.4750240000000003,1.2111819
-8.727212,-1.9292740000000002,1.3260766000000002
-8.727212,-1.9292740000000002,1.3260766000000002
-8.727212,-1.9292740000000002,1.3260766000000002
-8.727212,-1.9292740000000002,1.3260766000000002
-9.0814705,-1.6516117,1.5845897
-9.0814705,-1.6516117,1.5845897
-9.0814705,-1.6516117,1.5845897
-9.0814705,-1.6516117,1.5845897
-9.043172,-2.0250196,1.8335283
-9.043172,-2.0250196,1.8335283
-9.043172,-2.0250196,1.8335283
-9.043172,-2.0250196,1.8335283
-8.392102000000001,-2.3792782000000003,1.9005502
-8.392102000000001,-2.3792782000000003,1.9005502
-8.392102000000001,-2.3792782000000003,1.9005502
-8.392102000000001,-2.3792782000000003,1.9005502
-8.5740185,-2.4175766,2.1973617
-8.5740185,-2.4175766,2.1973617
-8.5740185,-2.4175766,2.1973617
-8.5740185,-2.4175766,2.1973617
-8.947427000000001,-2.2260852000000004,2.2260852000000004
-8.947427000000001,-2.2260852000000004,2.2260852000000004
-8.947427000000001,-2.2260852000000004,2.2260852000000004
-8.947427000000001,-2.2260852000000004,2.2260852000000004
-9.20594,-2.3122563,2.0824668
-9.20594,-2.3122563,2.0824668
-9.20594,-2.3122563,2.0824668
-9.20594,-2.3122563,2.0824668
-9.215514,-2.4558747000000003,1.8526775000000002
-9.215514,-2.4558747000000003,1.8526775000000002
-9.215514,-2.4558747000000003,1.8526775000000002
-9.215514,-2.4558747000000003,1.8526775000000002
-9.244238000000001,-2.4558747000000003,1.709059
-9.244238000000001,-2.4558747000000003,1.709059
-9.244238000000001,-2.4558747000000003,1.709059
-9.244238000000001,-2.4558747000000003,1.709059
-9.215514,-2.5899186000000003,1.5079931999999998
-9.215514,-2.5899186000000003,1.5079931999999998
-9.215514,-2.5899186000000003,1.5079931999999998
-9.215514,-2.5899186000000003,1.5079931999999998
-9.119769,-2.7814097,1.4313968000000001
-9.119769,-2.7814097,1.4313968000000001
-9.119769,-2.7814097,1.4313968000000001
-9.119769,-2.7814097,1.4313968000000001
-9.052747,-2.905879,1.4122477
-9.052747,-2.905879,1.4122477
-9.052747,-2.905879,1.4122477
-9.052747,-2.905879,1.4122477
-9.110194,-2.733537,1.5845897
-9.110194,-2.733537,1.5845897
-9.110194,-2.733537,1.5845897
-9.110194,-2.733537,1.5845897
-9.225089,-2.5899186000000003,1.709059
-9.225089,-2.5899186000000003,1.709059
-9.225089,-2.5899186000000003,1.709059
-9.225089,-2.5899186000000003,1.709059
-9.138917999999999,-2.2931072999999995,2.034594
-9.138917999999999,-2.2931072999999995,2.034594
-9.138917999999999,-2.2931072999999995,2.034594
-9.138917999999999,-2.2931072999999995,2.034594
-9.3878565,-1.1537346000000002,3.1356685
-9.3878565,-1.1537346000000002,3.1356685
-9.3878565,-1.1537346000000002,3.1356685
-9.3878565,-1.1537346000000002,3.1356685
-9.167641999999999,-1.8431028999999999,2.2739582
-9.167641999999999,-1.8431028999999999,2.2739582
-9.167641999999999,-1.8431028999999999,2.2739582
-9.167641999999999,-1.8431028999999999,2.2739582
-9.18679,-1.9867213,1.5941644
-9.18679,-1.9867213,1.5941644
-9.18679,-1.9867213,1.5941644
-9.18679,-1.9867213,1.5941644
-9.0814705,-2.4175766,1.2877783999999999
-9.0814705,-2.4175766,1.2877783999999999
-9.0814705,-2.4175766,1.2877783999999999
-9.0814705,-2.4175766,1.2877783999999999
-9.0814705,-2.4175766,1.2877783999999999
-9.014449,-2.3888528,1.3260766000000002
-9.014449,-2.3888528,1.3260766000000002
-9.014449,-2.3888528,1.3260766000000002
-8.909127999999999,-2.34098,1.4409714
-8.909127999999999,-2.34098,1.4409714
-8.909127999999999,-2.34098,1.4409714
-8.909127999999999,-2.34098,1.4409714
-9.004874000000001,-1.8526775000000002,2.2165107999999996
-9.004874000000001,-1.8526775000000002,2.2165107999999996
-9.004874000000001,-1.8526775000000002,2.2165107999999996
-9.004874000000001,-1.8526775000000002,2.2165107999999996
-9.263388,-1.8239537000000001,2.5228968
-9.263388,-1.8239537000000001,2.5228968
-9.263388,-1.8239537000000001,2.5228968
-9.263388,-1.8239537000000001,2.5228968
-9.110194,-2.2835326,1.8335283
-9.110194,-2.2835326,1.8335283
-9.110194,-2.2835326,1.8335283
-9.110194,-2.2835326,1.8335283
-9.110194,-2.2835326,1.8335283
-9.052747,-2.3505547000000004,1.6420371999999999
-9.052747,-2.3505547000000004,1.6420371999999999
-9.052747,-2.3505547000000004,1.6420371999999999
-8.928278,-2.360129,1.5079931999999998
-8.928278,-2.360129,1.5079931999999998
-8.928278,-2.360129,1.5079931999999998
-8.928278,-2.360129,1.5079931999999998
-8.928278,-2.360129,1.5079931999999998
-8.928278,-2.360129,1.5079931999999998
-8.928278,-2.360129,1.5079931999999998
-8.928278,-2.360129,1.5079931999999998
-9.062322,-2.2739582,1.7186337
-9.062322,-2.2739582,1.7186337
-9.062322,-2.2739582,1.7186337
-9.062322,-2.2739582,1.7186337
-9.129342999999999,-2.101616,2.0824668
-9.129342999999999,-2.101616,2.0824668
-9.129342999999999,-2.101616,2.0824668
-9.129342999999999,-2.101616,2.0824668
-9.148492999999998,-2.1877869999999997,1.9675721999999998
-9.148492999999998,-2.1877869999999997,1.9675721999999998
-9.148492999999998,-2.1877869999999997,1.9675721999999998
-9.148492999999998,-2.1877869999999997,1.9675721999999998
-9.091045,-2.2643836,1.6994845
-9.091045,-2.2643836,1.6994845
-9.091045,-2.2643836,1.6994845
-9.091045,-2.2643836,1.6994845
-9.052747,-2.4175766,1.5941644
-9.052747,-2.4175766,1.5941644
-9.052747,-2.4175766,1.5941644
-9.052747,-2.4175766,1.5941644
-9.18679,-2.494173,1.5654407
-9.18679,-2.494173,1.5654407
-9.18679,-2.494173,1.5654407
-9.18679,-2.494173,1.5654407
-9.129342999999999,-2.2260852000000004,1.709059
-9.129342999999999,-2.2260852000000004,1.709059
-9.129342999999999,-2.2260852000000004,1.709059
-9.129342999999999,-2.2260852000000004,1.709059
-9.167641999999999,-2.149489,1.6803354
-9.167641999999999,-2.149489,1.6803354
-9.167641999999999,-2.149489,1.6803354
-9.167641999999999,-2.149489,1.6803354
-9.100619,-2.1782124,1.6324625
-9.100619,-2.1782124,1.6324625
-9.100619,-2.1782124,1.6324625
-9.100619,-2.1782124,1.6324625
-8.947427000000001,-2.0633178,1.8335283
-8.947427000000001,-2.0633178,1.8335283
-8.947427000000001,-2.0633178,1.8335283
-8.947427000000001,-2.0633178,1.8335283
-9.062322,-2.0537431,1.9292740000000002
-9.062322,-2.0537431,1.9292740000000002
-9.062322,-2.0537431,1.9292740000000002
-9.062322,-2.0537431,1.9292740000000002
-9.129342999999999,-2.4654493,1.6803354
-9.129342999999999,-2.4654493,1.6803354
-9.129342999999999,-2.4654493,1.6803354
-9.129342999999999,-2.4654493,1.6803354
-9.024023,-2.5324712000000003,1.6324625
-9.024023,-2.5324712000000003,1.6324625
-9.024023,-2.5324712000000003,1.6324625
-9.024023,-2.5324712000000003,1.6324625
-8.889978999999999,-2.4654493,1.7186337
-8.889978999999999,-2.4654493,1.7186337
-8.889978999999999,-2.4654493,1.7186337
-8.889978999999999,-2.4654493,1.7186337
-8.889978999999999,-2.4654493,1.7186337
-8.918703,-2.5516202,1.7282081999999999
-8.918703,-2.5516202,1.7282081999999999
-8.918703,-2.5516202,1.7282081999999999
-9.014449,-2.5803439999999997,1.6803354
-9.014449,-2.5803439999999997,1.6803354
-9.014449,-2.5803439999999997,1.6803354
-9.014449,-2.5803439999999997,1.6803354
-9.071896,-2.4558747000000003,1.6899098999999997
-9.071896,-2.4558747000000003,1.6899098999999997
-9.071896,-2.4558747000000003,1.6899098999999997
-9.071896,-2.4558747000000003,1.6899098999999997
-9.071896,-2.4558747000000003,1.6899098999999997
-9.177217,-2.3314054,1.7952299999999999
-9.177217,-2.3314054,1.7952299999999999
-9.177217,-2.3314054,1.7952299999999999
-9.196365,-2.2835326,1.8239537000000001
-9.196365,-2.2835326,1.8239537000000001
-9.196365,-2.2835326,1.8239537000000001
-9.196365,-2.2835326,1.8239537000000001
-9.196365,-2.2835326,1.8239537000000001
-9.062322,-2.3026817000000004,1.8048046999999998
-9.062322,-2.3026817000000004,1.8048046999999998
-9.062322,-2.3026817000000004,1.8048046999999998
-9.062322,-2.3026817000000004,1.8048046999999998
-9.062322,-2.4558747000000003,1.6899098999999997
-9.062322,-2.4558747000000003,1.6899098999999997
-9.062322,-2.4558747000000003,1.6899098999999997
-9.18679,-2.4654493,1.6994845
-9.18679,-2.4654493,1.6994845
-9.18679,-2.4654493,1.6994845
-9.18679,-2.4654493,1.6994845
-9.18679,-2.4654493,1.6994845
-9.110194,-2.3314054,1.7473572
-9.110194,-2.3314054,1.7473572
-9.110194,-2.3314054,1.7473572
-9.110194,-2.3314054,1.7473572
-9.004874000000001,-2.2835326,1.7569318999999999
-9.004874000000001,-2.2835326,1.7569318999999999
-9.004874000000001,-2.2835326,1.7569318999999999
-9.004874000000001,-2.2835326,1.7569318999999999
-9.0814705,-2.2069361,1.8048046999999998
-9.0814705,-2.2069361,1.8048046999999998
-9.0814705,-2.2069361,1.8048046999999998
-9.0814705,-2.2069361,1.8048046999999998
-9.091045,-2.2260852000000004,1.7282081999999999
-9.091045,-2.2260852000000004,1.7282081999999999
-9.091045,-2.2260852000000004,1.7282081999999999
-9.091045,-2.2260852000000004,1.7282081999999999
-9.091045,-2.1877869999999997,1.7569318999999999
-9.091045,-2.1877869999999997,1.7569318999999999
-9.091045,-2.1877869999999997,1.7569318999999999
-9.091045,-2.1877869999999997,1.7569318999999999
-9.100619,-2.2165107999999996,1.7569318999999999
-9.100619,-2.2165107999999996,1.7569318999999999
-9.100619,-2.2165107999999996,1.7569318999999999
-9.071896,-2.1877869999999997,1.7952299999999999
-9.071896,-2.1877869999999997,1.7952299999999999
-9.071896,-2.1877869999999997,1.7952299999999999
-9.071896,-2.1877869999999997,1.7952299999999999
-9.071896,-2.1877869999999997,1.7952299999999999
-8.899554,-2.2356597999999996,1.7952299999999999
-8.899554,-2.2356597999999996,1.7952299999999999
-8.899554,-2.2356597999999996,1.7952299999999999
-8.899554,-2.2356597999999996,1.7952299999999999
-8.976150500000001,-2.254809,1.7856555
-8.976150500000001,-2.254809,1.7856555
-8.976150500000001,-2.254809,1.7856555
-8.976150500000001,-2.254809,1.7856555
-9.100619,-2.34098,1.6994845
-9.100619,-2.34098,1.6994845
-9.100619,-2.34098,1.6994845
-9.100619,-2.34098,1.6994845
-9.091045,-2.3026817000000004,1.7377827000000001
-9.091045,-2.3026817000000004,1.7377827000000001
-9.091045,-2.3026817000000004,1.7377827000000001
-9.091045,-2.3026817000000004,1.7377827000000001
-8.880403999999999,-2.5707695,2.1207652
-8.880403999999999,-2.5707695,2.1207652
-8.880403999999999,-2.5707695,2.1207652
-8.880403999999999,-2.5707695,2.1207652
-9.196365,-3.6335455999999997,3.6814184
-9.196365,-3.6335455999999997,3.6814184
-9.196365,-3.6335455999999997,3.6814184
-9.196365,-3.6335455999999997,3.6814184
-9.809137,-5.3186684,4.8207912
-9.809137,-5.3186684,4.8207912
-9.809137,-5.3186684,4.8207912
-9.809137,-5.3186684,4.8207912
-10.843189,-6.505913700000001,7.032514599999999
-10.843189,-6.505913700000001,7.032514599999999
-10.843189,-6.505913700000001,7.032514599999999
-10.843189,-6.505913700000001,7.032514599999999
-11.637878,-7.4154973,6.2378263
-11.637878,-7.4154973,6.2378263
-11.637878,-7.4154973,6.2378263
-11.637878,-7.4154973,6.2378263
-9.330409,-5.376116000000001,5.644203
-9.330409,-5.376116000000001,5.644203
-9.330409,-5.376116000000001,5.644203
-9.330409,-5.376116000000001,5.644203
-6.065484,-3.3654580000000003,5.806971
-6.065484,-3.3654580000000003,5.806971
-6.065484,-3.3654580000000003,5.806971
-6.065484,-3.3654580000000003,5.806971
-3.4612036,-1.2207563999999997,5.567607
-3.4612036,-1.2207563999999997,5.567607
-3.4612036,-1.2207563999999997,5.567607
-3.4612036,-1.2207563999999997,5.567607
-2.5994933,0.77075213,6.113357
-2.5994933,0.77075213,6.113357
-2.5994933,0.77075213,6.113357
-2.5994933,0.77075213,6.113357
-2.168638,2.5994933,6.678256
-2.168638,2.5994933,6.678256
-2.168638,2.5994933,6.678256
-2.168638,2.5994933,6.678256
-1.9292740000000002,3.5665237999999997,6.5729356
-1.9292740000000002,3.5665237999999997,6.5729356
-5.49101,1.5462915000000002,5.979312999999999
-6.429317500000001,1.0962871,4.5718527
-6.429317500000001,1.0962871,4.5718527
-6.429317500000001,1.0962871,4.5718527
-6.429317500000001,1.0962871,4.5718527
-8.305931,-0.2154276,3.8058877
-8.305931,-0.2154276,3.8058877
-8.305931,-0.2154276,3.8058877
-8.305931,-0.2154276,3.8058877
-11.072979,-0.40691882,4.5144053
-11.072979,-0.40691882,4.5144053
-11.072979,-0.40691882,4.5144053
-11.072979,-0.40691882,4.5144053
-12.260224000000001,-0.39734426,4.294190400000001
-12.260224000000001,-0.39734426,4.294190400000001
-12.260224000000001,-0.39734426,4.294190400000001
-12.260224000000001,-0.39734426,4.294190400000001
-11.283619999999999,0.33032233,3.8058877
-11.283619999999999,0.33032233,3.8058877
-11.283619999999999,0.33032233,3.8058877
-11.283619999999999,0.33032233,3.8058877
-10.307014,-0.8952214,3.078221
-10.307014,-0.8952214,3.078221
-10.307014,-0.8952214,3.078221
-10.307014,-0.8952214,3.078221
-9.464453,-1.4409714,3.451629
-9.464453,-1.4409714,3.451629
-9.464453,-1.4409714,3.451629
-9.464453,-1.4409714,3.451629
-9.550624000000001,-2.5228968,2.6090677
-9.550624000000001,-2.5228968,2.6090677
-9.550624000000001,-2.5228968,2.6090677
-9.550624000000001,-2.5228968,2.6090677
-9.569773,-3.9878044000000004,1.9771467
-9.569773,-3.9878044000000004,1.9771467
-9.569773,-3.9878044000000004,1.9771467
-9.569773,-3.9878044000000004,1.9771467
-9.675094,-3.1356685,2.4367256
-9.675094,-3.1356685,2.4367256
-9.675094,-3.1356685,2.4367256
-9.675094,-3.1356685,2.4367256
-9.703816999999999,-1.2973529,1.9005502
-9.703816999999999,-1.2973529,1.9005502
-9.703816999999999,-1.2973529,1.9005502
-9.703816999999999,-1.2973529,1.9005502
-9.75169,1.0962871,3.1643922000000004
-9.75169,1.0962871,3.1643922000000004
-9.75169,1.0962871,3.1643922000000004
-9.75169,1.0962871,3.1643922000000004
-9.675094,-0.15798025,2.9441773999999996
-9.675094,-0.15798025,2.9441773999999996
-9.675094,-0.15798025,2.9441773999999996
-9.675094,-0.15798025,2.9441773999999996
-9.426155,-2.8484317999999997,0.42606795
-9.426155,-2.8484317999999997,0.42606795
-9.426155,-2.8484317999999997,0.42606795
-9.426155,-2.8484317999999997,0.42606795
-9.18679,-3.8058877,-0.15798025
-9.18679,-3.8058877,-0.15798025
-9.18679,-3.8058877,-0.15798025
-9.18679,-3.8058877,-0.15798025
-8.631466,-3.193116,0.512239
-8.631466,-3.193116,0.512239
-8.631466,-3.193116,0.512239
-8.631466,-3.193116,0.512239
-8.401677000000001,-2.34098,0.7228793
-8.401677000000001,-2.34098,0.7228793
-8.401677000000001,-2.34098,0.7228793
-8.401677000000001,-2.34098,0.7228793
-8.401677000000001,-2.34098,0.7228793
-8.439975,-2.2165107999999996,1.1633091
-8.439975,-2.2165107999999996,1.1633091
-8.439975,-2.2165107999999996,1.1633091
-8.593167999999999,-2.0824668,1.4984187
-8.593167999999999,-2.0824668,1.4984187
-8.593167999999999,-2.0824668,1.4984187
-8.593167999999999,-2.0824668,1.4984187
-9.0814705,-2.3314054,1.6611862000000002
-9.0814705,-2.3314054,1.6611862000000002
-9.0814705,-2.3314054,1.6611862000000002
-9.0814705,-2.3314054,1.6611862000000002
-9.368708,-2.5420458,2.015445
-9.368708,-2.5420458,2.015445
-9.368708,-2.5420458,2.015445
-9.368708,-2.5420458,2.015445
-8.928278,-2.3697037999999995,2.2452345
-8.928278,-2.3697037999999995,2.2452345
-8.928278,-2.3697037999999995,2.2452345
-8.928278,-2.3697037999999995,2.2452345
-8.669764500000001,-2.5803439999999997,2.1877869999999997
-8.669764500000001,-2.5803439999999997,2.1877869999999997
-8.669764500000001,-2.5803439999999997,2.1877869999999997
-8.669764500000001,-2.5803439999999997,2.1877869999999997
-8.947427000000001,-2.4175766,2.6952388
-8.947427000000001,-2.4175766,2.6952388
-8.947427000000001,-2.4175766,2.6952388
-8.947427000000001,-2.4175766,2.6952388
-9.062322,-2.9250283,1.776081
-9.062322,-2.9250283,1.776081
-9.062322,-2.9250283,1.776081
-9.062322,-2.9250283,1.776081
-9.31126,-2.4558747000000003,1.6994845
-9.31126,-2.4558747000000003,1.6994845
-9.31126,-2.4558747000000003,1.6994845
-9.31126,-2.4558747000000003,1.6994845
-9.320834,-2.2643836,1.7665064
-9.320834,-2.2643836,1.7665064
-9.320834,-2.2643836,1.7665064
-9.320834,-2.2643836,1.7665064
-9.18679,-2.4367256,1.4409714
-9.18679,-2.4367256,1.4409714
-9.18679,-2.4367256,1.4409714
-9.167641999999999,-2.5899186000000003,1.2207563999999997
-9.167641999999999,-2.5899186000000003,1.2207563999999997
-9.167641999999999,-2.5899186000000003,1.2207563999999997
-9.167641999999999,-2.5899186000000003,1.2207563999999997
