accx,accy,accz
6.2665496,-3.4229053999999994,4.782493
6.2665496,-3.4229053999999994,4.782493
10.29744,-5.586755999999999,8.497422
10.29744,-5.586755999999999,8.497422
10.29744,-5.586755999999999,8.497422
10.29744,-5.586755999999999,8.497422
9.608071,-4.9069624,6.726128599999999
9.608071,-4.9069624,6.726128599999999
9.608071,-4.9069624,6.726128599999999
9.608071,-4.9069624,6.726128599999999
9.014449,-5.002708,4.456958
9.014449,-5.002708,4.456958
9.014449,-5.002708,4.456958
9.158066999999999,-5.883567299999999,2.5803439999999997
9.158066999999999,-5.883567299999999,2.5803439999999997
9.158066999999999,-5.883567299999999,2.5803439999999997
9.158066999999999,-5.883567299999999,2.5803439999999997
9.31126,-5.845269,2.0441686999999997
9.31126,-5.845269,2.0441686999999997
9.31126,-5.845269,2.0441686999999997
9.31126,-5.845269,2.0441686999999997
9.225089,-5.634629,1.5941644
9.225089,-5.634629,1.5941644
9.225089,-5.634629,1.5941644
9.225089,-5.634629,1.5941644
8.736787,-5.4718614,0.64628285
8.736787,-5.4718614,0.64628285
8.736787,-5.4718614,0.64628285
8.736787,-5.4718614,0.64628285
9.483603,-4.73462,0.11968201
9.483603,-4.73462,0.11968201
9.483603,-4.73462,0.11968201
9.483603,-4.73462,0.11968201
9.454879,-4.437809,-0.32074776
9.454879,-4.437809,-0.32074776
9.454879,-4.437809,-0.32074776
9.454879,-4.437809,-0.32074776
9.20594,-3.6622693999999996,0.18670394
9.20594,-3.6622693999999996,0.18670394
9.20594,-3.6622693999999996,0.18670394
9.244238000000001,-3.9016335,0.25372586
9.244238000000001,-3.9016335,0.25372586
9.244238000000001,-3.9016335,0.25372586
9.244238000000001,-3.9016335,0.25372586
9.244238000000001,-3.9016335,0.25372586
9.272962,-4.342063,0.0
9.272962,-4.342063,0.0
9.272962,-4.342063,0.0
9.5219,-4.236743,0.13883112
9.5219,-4.236743,0.13883112
9.5219,-4.236743,0.13883112
9.5219,-4.236743,0.13883112
9.569773,-4.4473834000000005,-0.081383765
9.569773,-4.4473834000000005,-0.081383765
9.569773,-4.4473834000000005,-0.081383765
9.569773,-4.4473834000000005,-0.081383765
9.2825365,-3.7005677,0.14840569
9.2825365,-3.7005677,0.14840569
9.2825365,-3.7005677,0.14840569
9.2825365,-3.7005677,0.14840569
8.736787,-3.8250370000000005,0.20585304
8.736787,-3.8250370000000005,0.20585304
8.736787,-3.8250370000000005,0.20585304
8.736787,-3.8250370000000005,0.20585304
8.784659,-4.121848,0.043085523
8.784659,-4.121848,0.043085523
8.784659,-4.121848,0.043085523
8.784659,-4.121848,0.043085523
8.947427000000001,-4.3995104000000005,-0.043085523
8.947427000000001,-4.3995104000000005,-0.043085523
8.947427000000001,-4.3995104000000005,-0.043085523
9.148492999999998,-4.131423000000001,0.23457673
9.148492999999998,-4.131423000000001,0.23457673
9.148492999999998,-4.131423000000001,0.23457673
9.148492999999998,-4.131423000000001,0.23457673
9.320834,-4.1122737,-0.03351096
9.320834,-4.1122737,-0.03351096
9.320834,-4.1122737,-0.03351096
9.320834,-4.1122737,-0.03351096
9.129342999999999,-4.1888704,0.09095833
9.129342999999999,-4.1888704,0.09095833
9.129342999999999,-4.1888704,0.09095833
9.129342999999999,-4.1888704,0.09095833
9.148492999999998,-4.0069537,0.2920241
9.148492999999998,-4.0069537,0.2920241
9.148492999999998,-4.0069537,0.2920241
9.148492999999998,-4.0069537,0.2920241
9.158066999999999,-4.1122737,0.110107444
9.158066999999999,-4.1122737,0.110107444
9.158066999999999,-4.1122737,0.110107444
9.158066999999999,-4.1122737,0.110107444
9.359133,-4.3133397,0.081383765
9.359133,-4.3133397,0.081383765
9.359133,-4.3133397,0.081383765
9.359133,-4.3133397,0.081383765
9.129342999999999,-3.930357,0.19627848
9.129342999999999,-3.930357,0.19627848
9.129342999999999,-3.930357,0.19627848
9.167641999999999,-4.3995104000000005,0.26330042
9.167641999999999,-4.3995104000000005,0.26330042
9.167641999999999,-4.3995104000000005,0.26330042
9.167641999999999,-4.3995104000000005,0.26330042
9.167641999999999,-4.3995104000000005,0.26330042
9.215514,-4.275041000000001,0.3111732
9.215514,-4.275041000000001,0.3111732
9.215514,-4.275041000000001,0.3111732
9.138917999999999,-3.8346114,0.2154276
9.138917999999999,-3.8346114,0.2154276
9.138917999999999,-3.8346114,0.2154276
9.138917999999999,-3.8346114,0.2154276
9.043172,-3.6143966,0.10053288
9.043172,-3.6143966,0.10053288
9.043172,-3.6143966,0.10053288
9.043172,-3.6143966,0.10053288
9.110194,-3.7580150000000003,0.15798025
9.110194,-3.7580150000000003,0.15798025
9.110194,-3.7580150000000003,0.15798025
9.110194,-3.7580150000000003,0.15798025
9.167641999999999,-3.9495062999999995,0.30159867
9.167641999999999,-3.9495062999999995,0.30159867
9.167641999999999,-3.9495062999999995,0.30159867
9.167641999999999,-3.9495062999999995,0.30159867
9.20594,-4.0356774,0.33032233
9.20594,-4.0356774,0.33032233
9.20594,-4.0356774,0.33032233
9.20594,-4.0356774,0.33032233
9.196365,-3.9016335,0.30159867
9.196365,-3.9016335,0.30159867
9.196365,-3.9016335,0.30159867
9.196365,-3.9016335,0.30159867
9.177217,-3.8250370000000005,0.2920241
9.177217,-3.8250370000000005,0.2920241
9.177217,-3.8250370000000005,0.2920241
9.301685,-4.045252,0.3398969
9.301685,-4.045252,0.3398969
9.301685,-4.045252,0.3398969
9.301685,-4.045252,0.3398969
9.301685,-4.045252,0.3398969
9.119769,-3.8633351,0.42606795
9.119769,-3.8633351,0.42606795
9.119769,-3.8633351,0.42606795
9.052747,-3.9399316,0.36862057
9.052747,-3.9399316,0.36862057
9.052747,-3.9399316,0.36862057
9.052747,-3.9399316,0.36862057
9.339984,-4.2654667,0.36862057
9.339984,-4.2654667,0.36862057
9.339984,-4.2654667,0.36862057
9.339984,-4.2654667,0.36862057
9.502751,-4.1409974,0.49308985
9.502751,-4.1409974,0.49308985
9.502751,-4.1409974,0.49308985
9.502751,-4.1409974,0.49308985
9.167641999999999,-3.6335455999999997,0.37819514
9.167641999999999,-3.6335455999999997,0.37819514
9.167641999999999,-3.6335455999999997,0.37819514
9.167641999999999,-3.6335455999999997,0.37819514
9.129342999999999,-3.5665237999999997,0.32074776
9.129342999999999,-3.5665237999999997,0.32074776
9.129342999999999,-3.5665237999999997,0.32074776
9.272962,-3.930357,0.64628285
9.272962,-3.930357,0.64628285
9.272962,-3.930357,0.64628285
9.272962,-3.930357,0.64628285
9.196365,-4.294190400000001,0.6558574
9.196365,-4.294190400000001,0.6558574
9.196365,-4.294190400000001,0.6558574
9.196365,-4.294190400000001,0.6558574
9.215514,-4.131423000000001,0.54096264
9.215514,-4.131423000000001,0.54096264
9.215514,-4.131423000000001,0.54096264
9.215514,-4.131423000000001,0.54096264
9.0814705,-3.8537605000000004,0.43564250000000004
9.0814705,-3.8537605000000004,0.43564250000000004
9.0814705,-3.8537605000000004,0.43564250000000004
9.0814705,-3.8537605000000004,0.43564250000000004
9.129342999999999,-4.0356774,0.512239
9.129342999999999,-4.0356774,0.512239
9.129342999999999,-4.0356774,0.512239
9.129342999999999,-4.0356774,0.512239
9.20594,-4.045252,0.5792609000000001
9.20594,-4.045252,0.5792609000000001
9.20594,-4.045252,0.5792609000000001
9.158066999999999,-3.8154623999999995,0.34947145
9.158066999999999,-3.8154623999999995,0.34947145
9.158066999999999,-3.8154623999999995,0.34947145
9.158066999999999,-3.8154623999999995,0.34947145
9.158066999999999,-3.8154623999999995,0.34947145
9.18679,-3.7963133,0.43564250000000004
9.18679,-3.7963133,0.43564250000000004
9.18679,-3.7963133,0.43564250000000004
9.215514,-4.2175937,0.32074776
9.215514,-4.2175937,0.32074776
9.215514,-4.2175937,0.32074776
9.215514,-4.2175937,0.32074776
9.225089,-4.121848,0.32074776
9.225089,-4.121848,0.32074776
9.225089,-4.121848,0.32074776
9.225089,-4.121848,0.32074776
9.043172,-3.9686553,0.18670394
9.043172,-3.9686553,0.18670394
9.043172,-3.9686553,0.18670394
9.043172,-3.9686553,0.18670394
9.167641999999999,-4.0261025,0.20585304
9.167641999999999,-4.0261025,0.20585304
9.167641999999999,-4.0261025,0.20585304
9.167641999999999,-4.0261025,0.20585304
9.244238000000001,-3.9878044000000004,0.36862057
9.244238000000001,-3.9878044000000004,0.36862057
9.244238000000001,-3.9878044000000004,0.36862057
9.244238000000001,-3.9878044000000004,0.36862057
9.177217,-4.016528,0.18670394
9.177217,-4.016528,0.18670394
9.177217,-4.016528,0.18670394
9.177217,-4.016528,0.18670394
9.225089,-3.9878044000000004,0.14840569
9.225089,-3.9878044000000004,0.14840569
9.225089,-3.9878044000000004,0.14840569
9.234664,-3.9207826,0.17712937
9.234664,-3.9207826,0.17712937
9.234664,-3.9207826,0.17712937
9.234664,-3.9207826,0.17712937
9.234664,-3.9207826,0.17712937
9.18679,-3.7963133,0.05266008
9.18679,-3.7963133,0.05266008
9.18679,-3.7963133,0.05266008
9.196365,-3.8250370000000005,0.023936402000000002
9.196365,-3.8250370000000005,0.023936402000000002
9.196365,-3.8250370000000005,0.023936402000000002
9.196365,-3.8250370000000005,0.023936402000000002
9.244238000000001,-3.9207826,0.0
9.244238000000001,-3.9207826,0.0
9.244238000000001,-3.9207826,0.0
9.244238000000001,-3.9207826,0.0
9.20594,-3.690993,-0.03351096
9.20594,-3.690993,-0.03351096
9.20594,-3.690993,-0.03351096
9.20594,-3.690993,-0.03351096
9.091045,-3.7101421,-0.062234644000000006
9.091045,-3.7101421,-0.062234644000000006
9.091045,-3.7101421,-0.062234644000000006
9.091045,-3.7101421,-0.062234644000000006
9.014449,-3.6526947,-0.062234644000000006
9.014449,-3.6526947,-0.062234644000000006
9.014449,-3.6526947,-0.062234644000000006
9.014449,-3.6526947,-0.062234644000000006
8.889978999999999,-3.7005677,-0.062234644000000006
8.889978999999999,-3.7005677,-0.062234644000000006
8.889978999999999,-3.7005677,-0.062234644000000006
8.889978999999999,-3.7005677,-0.062234644000000006
8.889978999999999,-3.7005677,-0.062234644000000006
8.889978999999999,-3.7005677,-0.062234644000000006
8.889978999999999,-3.7005677,-0.062234644000000006
8.535721,-7.970821400000001,1.3548003
8.535721,-7.970821400000001,1.3548003
8.535721,-7.970821400000001,1.3548003
8.535721,-7.970821400000001,1.3548003
7.721883,-13.045339,-0.9622433000000001
7.721883,-13.045339,-0.9622433000000001
7.721883,-13.045339,-0.9622433000000001
7.721883,-13.045339,-0.9622433000000001
7.875075999999999,-14.64429,-3.2409887000000004
7.875075999999999,-14.64429,-3.2409887000000004
7.875075999999999,-14.64429,-3.2409887000000004
7.089962,-11.360216000000001,-2.034594
7.089962,-11.360216000000001,-2.034594
7.089962,-11.360216000000001,-2.034594
7.089962,-11.360216000000001,-2.034594
7.089962,-11.360216000000001,-2.034594
4.5622783,-6.936769,-0.70373017
4.5622783,-6.936769,-0.70373017
4.5622783,-6.936769,-0.70373017
4.5239797,-6.1229315,-0.47394073
4.5239797,-6.1229315,-0.47394073
4.5239797,-6.1229315,-0.47394073
4.5239797,-6.1229315,-0.47394073
9.004874000000001,-11.465536,-0.8281995000000001
9.004874000000001,-11.465536,-0.8281995000000001
9.004874000000001,-11.465536,-0.8281995000000001
9.004874000000001,-11.465536,-0.8281995000000001
6.4197426,-1.9771467,-0.47394073
6.4197426,-1.9771467,-0.47394073
6.4197426,-1.9771467,-0.47394073
6.4197426,-1.9771467,-0.47394073
3.231414,5.6154795,-2.7814097
3.231414,5.6154795,-2.7814097
3.231414,5.6154795,-2.7814097
3.231414,5.6154795,-2.7814097
14.826207,5.8739930000000005,-7.9325233
14.826207,5.8739930000000005,-7.9325233
14.826207,5.8739930000000005,-7.9325233
19.594337,-14.165563,-15.448553
19.594337,-14.165563,-15.448553
19.594337,-14.165563,-15.448553
19.594337,-14.165563,-15.448553
19.594337,-14.165563,-15.448553
18.971989999999998,-19.594337,-7.405922400000001
18.971989999999998,-19.594337,-7.405922400000001
18.971989999999998,-19.594337,-7.405922400000001
3.8058877,-19.3071,-3.6814184
3.8058877,-19.3071,-3.6814184
3.8058877,-19.3071,-3.6814184
3.8058877,-19.3071,-3.6814184
-8.439975,-13.284702,-1.5654407
-8.439975,-13.284702,-1.5654407
-8.439975,-13.284702,-1.5654407
-8.439975,-13.284702,-1.5654407
-8.717637,-6.764427,-11.130426
-8.717637,-6.764427,-11.130426
-8.717637,-6.764427,-11.130426
-8.717637,-6.764427,-11.130426
-2.7431116,-10.2016945,-16.329411999999998
-2.7431116,-10.2016945,-16.329411999999998
-2.7431116,-10.2016945,-16.329411999999998
-2.7431116,-10.2016945,-16.329411999999998
18.435816,-19.594337,-18.703903
18.435816,-19.594337,-18.703903
18.435816,-19.594337,-18.703903
18.435816,-19.594337,-18.703903
19.594337,-18.493263,-12.662355999999999
19.594337,-18.493263,-12.662355999999999
19.594337,-18.493263,-12.662355999999999
16.84644,0.11968201,-10.82404
16.84644,0.11968201,-10.82404
16.84644,0.11968201,-10.82404
16.84644,0.11968201,-10.82404
10.94851,17.756021,-11.072979
10.94851,17.756021,-11.072979
10.94851,17.756021,-11.072979
10.94851,17.756021,-11.072979
11.915541000000001,10.852764,-9.215514
11.915541000000001,10.852764,-9.215514
11.915541000000001,10.852764,-9.215514
11.915541000000001,10.852764,-9.215514
19.517742000000002,0.28244954,-5.605905
19.517742000000002,0.28244954,-5.605905
19.517742000000002,0.28244954,-5.605905
19.517742000000002,0.28244954,-5.605905
19.594337,-19.086885000000002,0.43564250000000004
19.594337,-19.086885000000002,0.43564250000000004
19.594337,-19.086885000000002,0.43564250000000004
19.594337,-19.086885000000002,0.43564250000000004
12.930444,-19.594337,-0.77075213
12.930444,-19.594337,-0.77075213
12.930444,-19.594337,-0.77075213
12.930444,-19.594337,-0.77075213
-8.631466,-10.488931,0.6558574
-8.631466,-10.488931,0.6558574
-8.631466,-10.488931,0.6558574
-17.238997,-4.389936,1.8335283
-17.238997,-4.389936,1.8335283
-17.238997,-4.389936,1.8335283
-17.238997,-4.389936,1.8335283
-17.238997,-4.389936,1.8335283
-15.027272,-15.237913,-3.7388659
-15.027272,-15.237913,-3.7388659
-15.027272,-15.237913,-3.7388659
9.636795,-19.594337,-2.972901
9.636795,-19.594337,-2.972901
9.636795,-19.594337,-2.972901
9.636795,-19.594337,-2.972901
19.594337,-19.354975,-4.7441945
19.594337,-19.354975,-4.7441945
19.594337,-19.354975,-4.7441945
19.594337,-19.354975,-4.7441945
18.311346,-2.1207652,-12.317672
18.311346,-2.1207652,-12.317672
18.311346,-2.1207652,-12.317672
18.311346,-2.1207652,-12.317672
11.972988,19.086885000000002,-12.365545
11.972988,19.086885000000002,-12.365545
11.972988,19.086885000000002,-12.365545
11.972988,19.086885000000002,-12.365545
13.725132,11.015532,-9.177217
13.725132,11.015532,-9.177217
13.725132,11.015532,-9.177217
13.725132,11.015532,-9.177217
19.584763,-0.2154276,-9.301685
19.584763,-0.2154276,-9.301685
19.584763,-0.2154276,-9.301685
19.584763,-0.2154276,-9.301685
19.594337,-19.594337,-11.446387
19.594337,-19.594337,-11.446387
19.594337,-19.594337,-11.446387
4.9739842,-18.177303,-5.778247400000001
4.9739842,-18.177303,-5.778247400000001
4.9739842,-18.177303,-5.778247400000001
4.9739842,-18.177303,-5.778247400000001
4.9739842,-18.177303,-5.778247400000001
-15.640044,-4.811217,2.3314054
-15.640044,-4.811217,2.3314054
-15.640044,-4.811217,2.3314054
-14.64429,-2.1973617,5.778247400000001
-14.64429,-2.1973617,5.778247400000001
-14.64429,-2.1973617,5.778247400000001
-14.64429,-2.1973617,5.778247400000001
-17.229422,-13.562365,-5.548457599999999
-17.229422,-13.562365,-5.548457599999999
-17.229422,-13.562365,-5.548457599999999
-17.229422,-13.562365,-5.548457599999999
7.0995364,-19.594337,-13.840027
7.0995364,-19.594337,-13.840027
7.0995364,-19.594337,-13.840027
7.0995364,-19.594337,-13.840027
19.594337,-18.081557999999998,-14.921952
19.594337,-18.081557999999998,-14.921952
19.594337,-18.081557999999998,-14.921952
19.594337,-18.081557999999998,-14.921952
17.07623,6.611234,-11.245321
17.07623,6.611234,-11.245321
17.07623,6.611234,-11.245321
8.7750845,19.603912,-6.170804
8.7750845,19.603912,-6.170804
8.7750845,19.603912,-6.170804
8.7750845,19.603912,-6.170804
15.716641000000001,14.529395000000001,-2.8771553
15.716641000000001,14.529395000000001,-2.8771553
15.716641000000001,14.529395000000001,-2.8771553
15.716641000000001,14.529395000000001,-2.8771553
19.594337,15.534723999999999,-10.345312
19.594337,15.534723999999999,-10.345312
19.594337,15.534723999999999,-10.345312
19.594337,15.534723999999999,-10.345312
19.584763,-18.790075,-13.447470000000001
19.584763,-18.790075,-13.447470000000001
19.584763,-18.790075,-13.447470000000001
19.584763,-18.790075,-13.447470000000001
9.445304,-18.703903,-1.3930986
9.445304,-18.703903,-1.3930986
9.445304,-18.703903,-1.3930986
9.445304,-18.703903,-1.3930986
-13.179382,-10.431483,4.5144053
-13.179382,-10.431483,4.5144053
-13.179382,-10.431483,4.5144053
-13.179382,-10.431483,4.5144053
-11.455961,-4.782493,4.0644007
-11.455961,-4.782493,4.0644007
-11.455961,-4.782493,4.0644007
-11.455961,-4.782493,4.0644007
-15.821960999999998,-16.5975,-2.8101335
-15.821960999999998,-16.5975,-2.8101335
-15.821960999999998,-16.5975,-2.8101335
12.8538475,-19.594337,-0.16755481
12.8538475,-19.594337,-0.16755481
12.8538475,-19.594337,-0.16755481
12.8538475,-19.594337,-0.16755481
19.594337,-16.17622,-2.168638
19.594337,-16.17622,-2.168638
19.594337,-16.17622,-2.168638
19.594337,-16.17622,-2.168638
15.831535,7.2048570000000005,-13.485767999999998
15.831535,7.2048570000000005,-13.485767999999998
15.831535,7.2048570000000005,-13.485767999999998
15.831535,7.2048570000000005,-13.485767999999998
9.933606,18.349646,-17.899641
9.933606,18.349646,-17.899641
9.933606,18.349646,-17.899641
9.933606,18.349646,-17.899641
19.43157,9.770839,-11.982562
19.43157,9.770839,-11.982562
19.43157,9.770839,-11.982562
19.43157,9.770839,-11.982562
19.594337,-7.616563,-12.2410755
19.594337,-7.616563,-12.2410755
19.594337,-7.616563,-12.2410755
19.594337,-7.616563,-12.2410755
19.163483,-19.594337,-6.2282515
19.163483,-19.594337,-6.2282515
19.163483,-19.594337,-6.2282515
4.945260500000001,-17.009207,-3.0494976
4.945260500000001,-17.009207,-3.0494976
4.945260500000001,-17.009207,-3.0494976
4.945260500000001,-17.009207,-3.0494976
4.945260500000001,-17.009207,-3.0494976
-8.248484,-9.100619,3.2888615
-8.248484,-9.100619,3.2888615
-8.248484,-9.100619,3.2888615
-15.687918,-9.033598,-0.30159867
-15.687918,-9.033598,-0.30159867
-15.687918,-9.033598,-0.30159867
-15.687918,-9.033598,-0.30159867
-16.741120000000002,-16.204943,-2.5516202
-16.741120000000002,-16.204943,-2.5516202
-16.741120000000002,-16.204943,-2.5516202
-16.741120000000002,-16.204943,-2.5516202
10.871913000000001,-19.594337,-4.437809
10.871913000000001,-19.594337,-4.437809
10.871913000000001,-19.594337,-4.437809
10.871913000000001,-19.594337,-4.437809
19.594337,-17.775171,-5.644203
19.594337,-17.775171,-5.644203
19.594337,-17.775171,-5.644203
19.594337,-17.775171,-5.644203
16.61665,4.6867475999999995,-9.20594
16.61665,4.6867475999999995,-9.20594
16.61665,4.6867475999999995,-9.20594
16.61665,4.6867475999999995,-9.20594
8.066567,19.603912,-15.027272
8.066567,19.603912,-15.027272
8.066567,19.603912,-15.027272
8.066567,19.603912,-15.027272
18.34007,10.105948,-12.432567
18.34007,10.105948,-12.432567
18.34007,10.105948,-12.432567
19.594337,-3.0877957,-11.140001
19.594337,-3.0877957,-11.140001
19.594337,-3.0877957,-11.140001
19.594337,-3.0877957,-11.140001
19.546464999999998,-19.594337,-9.31126
19.546464999999998,-19.594337,-9.31126
19.546464999999998,-19.594337,-9.31126
19.546464999999998,-19.594337,-9.31126
9.033598,-18.952842999999998,1.5271424
9.033598,-18.952842999999998,1.5271424
9.033598,-18.952842999999998,1.5271424
9.033598,-18.952842999999998,1.5271424
-8.698488000000001,-14.337904,5.941015
-8.698488000000001,-14.337904,5.941015
-8.698488000000001,-14.337904,5.941015
-8.698488000000001,-14.337904,5.941015
-14.002794,-6.47719,5.4718614
-14.002794,-6.47719,5.4718614
-14.002794,-6.47719,5.4718614
-14.002794,-6.47719,5.4718614
-18.407093,-16.788992,-1.1920328000000002
-18.407093,-16.788992,-1.1920328000000002
-18.407093,-16.788992,-1.1920328000000002
-18.407093,-16.788992,-1.1920328000000002
7.5782647,-19.594337,-7.5303917
7.5782647,-19.594337,-7.5303917
7.5782647,-19.594337,-7.5303917
7.5782647,-19.594337,-7.5303917
19.594337,-18.742203,-7.4729443
19.594337,-18.742203,-7.4729443
19.594337,-18.742203,-7.4729443
18.569860000000002,2.8101335,-12.844273
18.569860000000002,2.8101335,-12.844273
18.569860000000002,2.8101335,-12.844273
18.569860000000002,2.8101335,-12.844273
8.286782,19.603912,-15.84111
8.286782,19.603912,-15.84111
8.286782,19.603912,-15.84111
8.286782,19.603912,-15.84111
16.434732,12.375119,-10.747444
16.434732,12.375119,-10.747444
16.434732,12.375119,-10.747444
16.434732,12.375119,-10.747444
19.594337,-2.4845984,-8.995299000000001
19.594337,-2.4845984,-8.995299000000001
19.594337,-2.4845984,-8.995299000000001
19.594337,-2.4845984,-8.995299000000001
19.517742000000002,-19.594337,-8.736787
19.517742000000002,-19.594337,-8.736787
19.517742000000002,-19.594337,-8.736787
6.7357035000000005,-17.928364000000002,0.2441513
6.7357035000000005,-17.928364000000002,0.2441513
6.7357035000000005,-17.928364000000002,0.2441513
6.7357035000000005,-17.928364000000002,0.2441513
6.7357035000000005,-17.928364000000002,0.2441513
-12.662355999999999,-6.036760299999999,3.6431203
-12.662355999999999,-6.036760299999999,3.6431203
-12.662355999999999,-6.036760299999999,3.6431203
-18.42624,-6.3527207,1.8335283
-18.42624,-6.3527207,1.8335283
-18.42624,-6.3527207,1.8335283
-18.42624,-6.3527207,1.8335283
-13.964497,-17.487934,-5.261221
-13.964497,-17.487934,-5.261221
-13.964497,-17.487934,-5.261221
-13.964497,-17.487934,-5.261221
14.452798999999999,-19.594337,-12.001712
14.452798999999999,-19.594337,-12.001712
14.452798999999999,-19.594337,-12.001712
14.452798999999999,-19.594337,-12.001712
19.594337,-17.689001,-9.407005
19.594337,-17.689001,-9.407005
19.594337,-17.689001,-9.407005
19.594337,-17.689001,-9.407005
17.401764,3.8633351,-10.843189
17.401764,3.8633351,-10.843189
17.401764,3.8633351,-10.843189
17.401764,3.8633351,-10.843189
9.339984,19.603912,-13.725132
9.339984,19.603912,-13.725132
9.339984,19.603912,-13.725132
9.339984,19.603912,-13.725132
18.196451,14.9794,-12.068733
18.196451,14.9794,-12.068733
18.196451,14.9794,-12.068733
19.594337,-5.634629,-9.713391
19.594337,-5.634629,-9.713391
19.594337,-5.634629,-9.713391
19.594337,-5.634629,-9.713391
19.594337,-5.634629,-9.713391
19.335825,-19.594337,-4.648448999999999
19.335825,-19.594337,-4.648448999999999
19.335825,-19.594337,-4.648448999999999
4.3803616,-18.139006,-0.56968635
4.3803616,-18.139006,-0.56968635
4.3803616,-18.139006,-0.56968635
4.3803616,-18.139006,-0.56968635
-10.0868,-12.298523,0.8090504
-10.0868,-12.298523,0.8090504
-10.0868,-12.298523,0.8090504
-10.0868,-12.298523,0.8090504
-19.182632,-9.75169,-1.9196993000000002
-19.182632,-9.75169,-1.9196993000000002
-19.182632,-9.75169,-1.9196993000000002
-19.182632,-9.75169,-1.9196993000000002
-14.529395000000001,-19.594337,-5.0793040000000005
-14.529395000000001,-19.594337,-5.0793040000000005
-14.529395000000001,-19.594337,-5.0793040000000005
-14.529395000000001,-19.594337,-5.0793040000000005
14.969825,-19.594337,-10.421909
14.969825,-19.594337,-10.421909
14.969825,-19.594337,-10.421909
14.969825,-19.594337,-10.421909
19.594337,-15.611320499999998,-9.052747
19.594337,-15.611320499999998,-9.052747
19.594337,-15.611320499999998,-9.052747
19.594337,-15.611320499999998,-9.052747
15.649619,7.9899707,-19.182632
15.649619,7.9899707,-19.182632
15.649619,7.9899707,-19.182632
10.431483,19.603912,-14.577269
10.431483,19.603912,-14.577269
10.431483,19.603912,-14.577269
10.431483,19.603912,-14.577269
18.35922,8.095291,-11.858092999999998
18.35922,8.095291,-11.858092999999998
18.35922,8.095291,-11.858092999999998
18.35922,8.095291,-11.858092999999998
19.594337,-11.331491999999999,-9.349558
19.594337,-11.331491999999999,-9.349558
19.594337,-11.331491999999999,-9.349558
19.594337,-11.331491999999999,-9.349558
19.125185000000002,-19.594337,-8.66019
19.125185000000002,-19.594337,-8.66019
19.125185000000002,-19.594337,-8.66019
19.125185000000002,-19.594337,-8.66019
5.041005999999999,-16.894312,-3.5952474999999997
5.041005999999999,-16.894312,-3.5952474999999997
5.041005999999999,-16.894312,-3.5952474999999997
5.041005999999999,-16.894312,-3.5952474999999997
-9.512326,-8.612317,2.5899186000000003
-9.512326,-8.612317,2.5899186000000003
-9.512326,-8.612317,2.5899186000000003
-17.545382,-10.776167999999998,2.5420458
-17.545382,-10.776167999999998,2.5420458
-17.545382,-10.776167999999998,2.5420458
-17.545382,-10.776167999999998,2.5420458
-17.545382,-10.776167999999998,2.5420458
-14.740035999999998,-19.594337,0.110107444
-14.740035999999998,-19.594337,0.110107444
-14.740035999999998,-19.594337,0.110107444
17.1624,-19.594337,-2.5803439999999997
17.1624,-19.594337,-2.5803439999999997
17.1624,-19.594337,-2.5803439999999997
17.1624,-19.594337,-2.5803439999999997
19.594337,-14.088965,-6.821874
19.594337,-14.088965,-6.821874
19.594337,-14.088965,-6.821874
19.594337,-14.088965,-6.821874
15.898558,9.560199,-11.752773
15.898558,9.560199,-11.752773
15.898558,9.560199,-11.752773
15.898558,9.560199,-11.752773
9.655944,19.603912,-13.380448000000001
9.655944,19.603912,-13.380448000000001
9.655944,19.603912,-13.380448000000001
9.655944,19.603912,-13.380448000000001
19.594337,9.454879,-11.207023
19.594337,9.454879,-11.207023
19.594337,9.454879,-11.207023
19.594337,9.454879,-11.207023
19.594337,-6.9559183,-10.431483
19.594337,-6.9559183,-10.431483
19.594337,-6.9559183,-10.431483
19.594337,-6.9559183,-10.431483
19.53689,-19.594337,-4.6388745
19.53689,-19.594337,-4.6388745
19.53689,-19.594337,-4.6388745
4.696322,-17.775171,-2.408002
4.696322,-17.775171,-2.408002
4.696322,-17.775171,-2.408002
4.696322,-17.775171,-2.408002
-11.580430999999999,-12.729378,0.023936402000000002
-11.580430999999999,-12.729378,0.023936402000000002
-11.580430999999999,-12.729378,0.023936402000000002
-11.580430999999999,-12.729378,0.023936402000000002
-18.550710000000002,-12.25065,-2.7622607000000006
-18.550710000000002,-12.25065,-2.7622607000000006
-18.550710000000002,-12.25065,-2.7622607000000006
-18.550710000000002,-12.25065,-2.7622607000000006
-8.708063000000001,-19.594337,-8.076141
-8.708063000000001,-19.594337,-8.076141
-8.708063000000001,-19.594337,-8.076141
-8.708063000000001,-19.594337,-8.076141
18.7805,-19.594337,-9.18679
18.7805,-19.594337,-9.18679
18.7805,-19.594337,-9.18679
18.7805,-19.594337,-9.18679
19.594337,-14.682589000000002,-6.410168
19.594337,-14.682589000000002,-6.410168
19.594337,-14.682589000000002,-6.410168
19.594337,-14.682589000000002,-6.410168
16.788992,6.304848000000001,-12.260224000000001
16.788992,6.304848000000001,-12.260224000000001
16.788992,6.304848000000001,-12.260224000000001
10.709146,19.603912,-11.771922
10.709146,19.603912,-11.771922
10.709146,19.603912,-11.771922
10.709146,19.603912,-11.771922
10.709146,19.603912,-11.771922
19.039013,11.551707,-10.967659
19.039013,11.551707,-10.967659
19.039013,11.551707,-10.967659
19.594337,-8.459125,-8.918703
19.594337,-8.459125,-8.918703
19.594337,-8.459125,-8.918703
19.594337,-8.459125,-8.918703
18.454966,-19.594337,0.2920241
18.454966,-19.594337,0.2920241
18.454966,-19.594337,0.2920241
18.454966,-19.594337,0.2920241
-4.0261025,-16.607075,-0.00478728
-4.0261025,-16.607075,-0.00478728
-4.0261025,-16.607075,-0.00478728
-4.0261025,-16.607075,-0.00478728
-9.62722,-8.631466,5.672927
-9.62722,-8.631466,5.672927
-9.62722,-8.631466,5.672927
-9.62722,-8.631466,5.672927
-16.664522,-4.466532,2.513322
-16.664522,-4.466532,2.513322
-16.664522,-4.466532,2.513322
-16.664522,-4.466532,2.513322
-7.2335806,-18.100706,-2.4175766
-7.2335806,-18.100706,-2.4175766
-7.2335806,-18.100706,-2.4175766
16.884737,-19.594337,-7.271878699999999
16.884737,-19.594337,-7.271878699999999
16.884737,-19.594337,-7.271878699999999
16.884737,-19.594337,-7.271878699999999
19.594337,-15.266637,-8.037844
19.594337,-15.266637,-8.037844
19.594337,-15.266637,-8.037844
19.594337,-15.266637,-8.037844
16.923035000000002,10.259142,-13.868751000000001
16.923035000000002,10.259142,-13.868751000000001
16.923035000000002,10.259142,-13.868751000000001
16.923035000000002,10.259142,-13.868751000000001
11.149575,19.584763,-12.212352000000001
11.149575,19.584763,-12.212352000000001
11.149575,19.584763,-12.212352000000001
11.149575,19.584763,-12.212352000000001
16.6358,7.654861,-8.755936
16.6358,7.654861,-8.755936
16.6358,7.654861,-8.755936
16.6358,7.654861,-8.755936
19.594337,-8.583592999999999,-6.1995277
19.594337,-8.583592999999999,-6.1995277
19.594337,-8.583592999999999,-6.1995277
19.594337,-8.583592999999999,-6.1995277
18.139006,-19.594337,-4.476107
18.139006,-19.594337,-4.476107
18.139006,-19.594337,-4.476107
-3.930357,-16.626225,-4.466532
-3.930357,-16.626225,-4.466532
-3.930357,-16.626225,-4.466532
-3.930357,-16.626225,-4.466532
-3.930357,-16.626225,-4.466532
-9.75169,-7.243155000000001,2.254809
-9.75169,-7.243155000000001,2.254809
-9.75169,-7.243155000000001,2.254809
-16.645372000000002,-4.284616000000001,3.5378
-16.645372000000002,-4.284616000000001,3.5378
-16.645372000000002,-4.284616000000001,3.5378
-16.645372000000002,-4.284616000000001,3.5378
-15.544298999999999,-13.8879,11.551707
-15.544298999999999,-13.8879,11.551707
-15.544298999999999,-13.8879,11.551707
-15.544298999999999,-13.8879,11.551707
12.90172,-19.594337,10.345312
12.90172,-19.594337,10.345312
12.90172,-19.594337,10.345312
12.90172,-19.594337,10.345312
19.594337,-18.014536,-2.8101335
19.594337,-18.014536,-2.8101335
19.594337,-18.014536,-2.8101335
19.594337,-18.014536,-2.8101335
16.808142,3.4229053999999994,-8.736787
16.808142,3.4229053999999994,-8.736787
16.808142,3.4229053999999994,-8.736787
16.808142,3.4229053999999994,-8.736787
10.900637,19.603912,-15.620895
10.900637,19.603912,-15.620895
10.900637,19.603912,-15.620895
10.900637,19.603912,-15.620895
19.594337,8.7750845,-14.625141000000001
19.594337,8.7750845,-14.625141000000001
19.594337,8.7750845,-14.625141000000001
19.594337,-11.628304,-6.706979799999999
19.594337,-11.628304,-6.706979799999999
19.594337,-11.628304,-6.706979799999999
19.594337,-11.628304,-6.706979799999999
19.594337,-11.628304,-6.706979799999999
18.454966,-19.594337,-6.3814445
18.454966,-19.594337,-6.3814445
18.454966,-19.594337,-6.3814445
-1.2016073,-15.611320499999998,1.4505458999999998
-1.2016073,-15.611320499999998,1.4505458999999998
-1.2016073,-15.611320499999998,1.4505458999999998
-1.2016073,-15.611320499999998,1.4505458999999998
-8.066567,-10.594251,2.5707695
-8.066567,-10.594251,2.5707695
-8.066567,-10.594251,2.5707695
-8.066567,-10.594251,2.5707695
-14.960251000000001,-4.437809,0.28244954
-14.960251000000001,-4.437809,0.28244954
-14.960251000000001,-4.437809,0.28244954
-14.960251000000001,-4.437809,0.28244954
-14.270883,-9.014449,-2.513322
-14.270883,-9.014449,-2.513322
-14.270883,-9.014449,-2.513322
11.886817,-19.594337,-11.178299
11.886817,-19.594337,-11.178299
11.886817,-19.594337,-11.178299
11.886817,-19.594337,-11.178299
19.594337,-18.301773,-8.2676325
19.594337,-18.301773,-8.2676325
19.594337,-18.301773,-8.2676325
19.594337,-18.301773,-8.2676325
13.476192999999999,5.452712,-7.434646000000001
13.476192999999999,5.452712,-7.434646000000001
13.476192999999999,5.452712,-7.434646000000001
13.476192999999999,5.452712,-7.434646000000001
5.672927,19.603912,-12.528313
5.672927,19.603912,-12.528313
5.672927,19.603912,-12.528313
5.672927,19.603912,-12.528313
16.798567000000002,10.5080805,-14.30918
16.798567000000002,10.5080805,-14.30918
16.798567000000002,10.5080805,-14.30918
16.798567000000002,10.5080805,-14.30918
19.594337,-4.619725,-9.722966
19.594337,-4.619725,-9.722966
19.594337,-4.619725,-9.722966
19.594337,-4.619725,-9.722966
19.259228,-19.594337,-4.0069537
19.259228,-19.594337,-4.0069537
19.259228,-19.594337,-4.0069537
19.259228,-19.594337,-4.0069537
2.9633265,-18.665606,-3.0973704
2.9633265,-18.665606,-3.0973704
2.9633265,-18.665606,-3.0973704
2.9633265,-18.665606,-3.0973704
-9.512326,-9.474028,3.4803526
-9.512326,-9.474028,3.4803526
-9.512326,-9.474028,3.4803526
-15.707067000000002,-3.8346114,3.9112080000000002
-15.707067000000002,-3.8346114,3.9112080000000002
-15.707067000000002,-3.8346114,3.9112080000000002
-15.707067000000002,-3.8346114,3.9112080000000002
-13.591088000000001,-12.767676,-0.56968635
-13.591088000000001,-12.767676,-0.56968635
-13.591088000000001,-12.767676,-0.56968635
-13.591088000000001,-12.767676,-0.56968635
12.202777000000001,-19.594337,-1.0771381000000002
12.202777000000001,-19.594337,-1.0771381000000002
12.202777000000001,-19.594337,-1.0771381000000002
12.202777000000001,-19.594337,-1.0771381000000002
19.594337,-18.014536,-1.5367169
19.594337,-18.014536,-1.5367169
19.594337,-18.014536,-1.5367169
19.594337,-18.014536,-1.5367169
15.573023000000001,4.255892299999999,-5.5963306
15.573023000000001,4.255892299999999,-5.5963306
15.573023000000001,4.255892299999999,-5.5963306
15.573023000000001,4.255892299999999,-5.5963306
7.9420977,17.1624,-13.064487
7.9420977,17.1624,-13.064487
7.9420977,17.1624,-13.064487
7.9420977,17.1624,-13.064487
14.462373999999999,7.319751299999999,-10.019777000000001
14.462373999999999,7.319751299999999,-10.019777000000001
14.462373999999999,7.319751299999999,-10.019777000000001
16.444307000000002,-2.2069361,-8.392102000000001
16.444307000000002,-2.2069361,-8.392102000000001
16.444307000000002,-2.2069361,-8.392102000000001
16.444307000000002,-2.2069361,-8.392102000000001
16.444307000000002,-2.2069361,-8.392102000000001
19.594337,-19.594337,-4.3803616
19.594337,-19.594337,-4.3803616
19.594337,-19.594337,-4.3803616
5.328243,-18.924118,-1.2590546999999999
5.328243,-18.924118,-1.2590546999999999
5.328243,-18.924118,-1.2590546999999999
5.328243,-18.924118,-1.2590546999999999
5.328243,-18.924118,-1.2590546999999999
5.328243,-18.924118,-1.2590546999999999
5.328243,-18.924118,-1.2590546999999999
5.328243,-18.924118,-1.2590546999999999
-15.649619,-8.056992999999999,3.2984362000000003
-15.649619,-8.056992999999999,3.2984362000000003
-15.649619,-8.056992999999999,3.2984362000000003
-12.537887,-11.168725,3.5569491
-12.537887,-11.168725,3.5569491
-12.537887,-11.168725,3.5569491
-12.537887,-11.168725,3.5569491
6.4484663,-19.594337,1.9962958
6.4484663,-19.594337,1.9962958
6.4484663,-19.594337,1.9962958
6.4484663,-19.594337,1.9962958
19.594337,-19.489017,-0.8186249
19.594337,-19.489017,-0.8186249
19.594337,-19.489017,-0.8186249
19.594337,-19.489017,-0.8186249
15.707067000000002,0.09095833,-7.348475
15.707067000000002,0.09095833,-7.348475
15.707067000000002,0.09095833,-7.348475
15.707067000000002,0.09095833,-7.348475
9.684667999999999,14.529395000000001,-7.4154973
9.684667999999999,14.529395000000001,-7.4154973
9.684667999999999,14.529395000000001,-7.4154973
9.684667999999999,14.529395000000001,-7.4154973
12.231501,11.379365,-4.246317400000001
12.231501,11.379365,-4.246317400000001
12.231501,11.379365,-4.246317400000001
12.231501,11.379365,-4.246317400000001
18.119856,1.4122477,-6.256975
18.119856,1.4122477,-6.256975
18.119856,1.4122477,-6.256975
19.594337,-19.594337,-8.478273
19.594337,-19.594337,-8.478273
19.594337,-19.594337,-8.478273
19.594337,-19.594337,-8.478273
19.594337,-19.594337,-8.478273
9.31126,-19.393272,0.25372586
9.31126,-19.393272,0.25372586
9.31126,-19.393272,0.25372586
-8.372953,-11.235746,2.254809
-8.372953,-11.235746,2.254809
-8.372953,-11.235746,2.254809
-8.372953,-11.235746,2.254809
-14.864505,-5.002708,0.2920241
-14.864505,-5.002708,0.2920241
-14.864505,-5.002708,0.2920241
-14.864505,-5.002708,0.2920241
-15.094295,-7.1186857,-2.3888528
-15.094295,-7.1186857,-2.3888528
-15.094295,-7.1186857,-2.3888528
-15.094295,-7.1186857,-2.3888528
7.2623043,-19.594337,0.61755913
7.2623043,-19.594337,0.61755913
7.2623043,-19.594337,0.61755913
7.2623043,-19.594337,0.61755913
19.594337,-19.412422,0.13883112
19.594337,-19.412422,0.13883112
19.594337,-19.412422,0.13883112
16.540052,-2.5803439999999997,-4.3707867
16.540052,-2.5803439999999997,-4.3707867
16.540052,-2.5803439999999997,-4.3707867
16.540052,-2.5803439999999997,-4.3707867
16.540052,-2.5803439999999997,-4.3707867
10.986808,14.194285,-12.164479
10.986808,14.194285,-12.164479
10.986808,14.194285,-12.164479
12.738953,14.615566000000001,-10.737869
12.738953,14.615566000000001,-10.737869
12.738953,14.615566000000001,-10.737869
12.738953,14.615566000000001,-10.737869
19.594337,-0.20585304,-10.096374
19.594337,-0.20585304,-10.096374
19.594337,-0.20585304,-10.096374
19.594337,-0.20585304,-10.096374
19.594337,-19.594337,-2.972901
19.594337,-19.594337,-2.972901
19.594337,-19.594337,-2.972901
19.594337,-19.594337,-2.972901
9.579348,-19.144333,-4.236743
9.579348,-19.144333,-4.236743
9.579348,-19.144333,-4.236743
9.579348,-19.144333,-4.236743
-11.331491999999999,-9.483603,0.0718092
-11.331491999999999,-9.483603,0.0718092
-11.331491999999999,-9.483603,0.0718092
-11.331491999999999,-9.483603,0.0718092
-13.926198000000001,-6.869747,-0.13883112
-13.926198000000001,-6.869747,-0.13883112
-13.926198000000001,-6.869747,-0.13883112
-15.113443,-12.509163000000001,-0.03351096
-15.113443,-12.509163000000001,-0.03351096
-15.113443,-12.509163000000001,-0.03351096
-15.113443,-12.509163000000001,-0.03351096
6.1420803,-19.594337,0.6750065
6.1420803,-19.594337,0.6750065
6.1420803,-19.594337,0.6750065
6.1420803,-19.594337,0.6750065
19.594337,-19.508167,0.9526688
19.594337,-19.508167,0.9526688
19.594337,-19.508167,0.9526688
19.594337,-19.508167,0.9526688
18.7805,-1.7952299999999999,-7.271878699999999
18.7805,-1.7952299999999999,-7.271878699999999
18.7805,-1.7952299999999999,-7.271878699999999
18.7805,-1.7952299999999999,-7.271878699999999
11.838944,19.603912,-15.008123000000001
11.838944,19.603912,-15.008123000000001
11.838944,19.603912,-15.008123000000001
11.838944,19.603912,-15.008123000000001
18.407093,12.911294999999999,-12.097457
18.407093,12.911294999999999,-12.097457
18.407093,12.911294999999999,-12.097457
18.407093,12.911294999999999,-12.097457
19.594337,-2.34098,-11.015532
19.594337,-2.34098,-11.015532
19.594337,-2.34098,-11.015532
19.55604,-19.594337,-8.794233
19.55604,-19.594337,-8.794233
19.55604,-19.594337,-8.794233
19.55604,-19.594337,-8.794233
19.55604,-19.594337,-8.794233
10.000628,-18.742203,-0.56011176
10.000628,-18.742203,-0.56011176
10.000628,-18.742203,-0.56011176
-7.7601814,-12.825124,2.1782124
-7.7601814,-12.825124,2.1782124
-7.7601814,-12.825124,2.1782124
-7.7601814,-12.825124,2.1782124
-12.5474615,-9.904882,1.9005502
-12.5474615,-9.904882,1.9005502
-12.5474615,-9.904882,1.9005502
-12.5474615,-9.904882,1.9005502
-15.927280999999999,-14.290030999999999,-0.043085523
-15.927280999999999,-14.290030999999999,-0.043085523
-15.927280999999999,-14.290030999999999,-0.043085523
-15.927280999999999,-14.290030999999999,-0.043085523
5.960164,-19.594337,-2.8963046
5.960164,-19.594337,-2.8963046
5.960164,-19.594337,-2.8963046
5.960164,-19.594337,-2.8963046
19.594337,-19.546464999999998,-4.0261025
19.594337,-19.546464999999998,-4.0261025
19.594337,-19.546464999999998,-4.0261025
19.594337,-19.546464999999998,-4.0261025
19.354975,-0.11968201,-7.9037995
19.354975,-0.11968201,-7.9037995
19.354975,-0.11968201,-7.9037995
19.354975,-0.11968201,-7.9037995
14.53897,19.603912,-14.031518
14.53897,19.603912,-14.031518
14.53897,19.603912,-14.031518
18.818798,13.801729000000002,-11.149575
18.818798,13.801729000000002,-11.149575
18.818798,13.801729000000002,-11.149575
18.818798,13.801729000000002,-11.149575
18.818798,13.801729000000002,-11.149575
19.594337,-9.062322,-11.350641
19.594337,-9.062322,-11.350641
19.594337,-9.062322,-11.350641
18.454966,-19.594337,-5.155901
18.454966,-19.594337,-5.155901
18.454966,-19.594337,-5.155901
18.454966,-19.594337,-5.155901
1.7473572,-17.028357,0.00478728
1.7473572,-17.028357,0.00478728
1.7473572,-17.028357,0.00478728
1.7473572,-17.028357,0.00478728
-7.970821400000001,-6.304848000000001,3.9495062999999995
-7.970821400000001,-6.304848000000001,3.9495062999999995
-7.970821400000001,-6.304848000000001,3.9495062999999995
-7.970821400000001,-6.304848000000001,3.9495062999999995
-13.581514000000002,-0.20585304,0.9430941999999999
-13.581514000000002,-0.20585304,0.9430941999999999
-13.581514000000002,-0.20585304,0.9430941999999999
-13.581514000000002,-0.20585304,0.9430941999999999
-16.453882,-0.43564250000000004,0.13883112
-16.453882,-0.43564250000000004,0.13883112
-16.453882,-0.43564250000000004,0.13883112
-16.453882,-0.43564250000000004,0.13883112
2.4367256,-17.200697,-9.378282
2.4367256,-17.200697,-9.378282
2.4367256,-17.200697,-9.378282
19.594337,-19.594337,-11.436812
19.594337,-19.594337,-11.436812
19.594337,-19.594337,-11.436812
19.594337,-19.594337,-11.436812
15.419829,3.6526947,-7.137835000000001
15.419829,3.6526947,-7.137835000000001
15.419829,3.6526947,-7.137835000000001
15.419829,3.6526947,-7.137835000000001
10.048501,18.79965,-12.863422
10.048501,18.79965,-12.863422
10.048501,18.79965,-12.863422
10.048501,18.79965,-12.863422
17.05708,12.557036,-8.765511
17.05708,12.557036,-8.765511
17.05708,12.557036,-8.765511
17.05708,12.557036,-8.765511
19.594337,-0.2441513,-7.051664
19.594337,-0.2441513,-7.051664
19.594337,-0.2441513,-7.051664
19.594337,-0.2441513,-7.051664
19.55604,-19.594337,-2.4750240000000003
19.55604,-19.594337,-2.4750240000000003
19.55604,-19.594337,-2.4750240000000003
19.55604,-19.594337,-2.4750240000000003
5.06973,-19.316675,-2.0058703
5.06973,-19.316675,-2.0058703
5.06973,-19.316675,-2.0058703
-9.7899885,-11.140001,1.469695
-9.7899885,-11.140001,1.469695
-9.7899885,-11.140001,1.469695
-9.7899885,-11.140001,1.469695
-10.594251,-3.0973704,1.5462915000000002
-10.594251,-3.0973704,1.5462915000000002
-10.594251,-3.0973704,1.5462915000000002
-10.594251,-3.0973704,1.5462915000000002
-17.516659,-7.8272033,-2.3505547000000004
-17.516659,-7.8272033,-2.3505547000000004
-17.516659,-7.8272033,-2.3505547000000004
-17.516659,-7.8272033,-2.3505547000000004
2.3314054,-19.594337,-2.0058703
2.3314054,-19.594337,-2.0058703
2.3314054,-19.594337,-2.0058703
2.3314054,-19.594337,-2.0058703
19.594337,-19.010289999999998,-2.972901
19.594337,-19.010289999999998,-2.972901
19.594337,-19.010289999999998,-2.972901
19.594337,-19.010289999999998,-2.972901
16.492179999999998,3.9112080000000002,-5.7016506
16.492179999999998,3.9112080000000002,-5.7016506
16.492179999999998,3.9112080000000002,-5.7016506
16.492179999999998,3.9112080000000002,-5.7016506
10.06765,16.28154,-9.5889225
10.06765,16.28154,-9.5889225
10.06765,16.28154,-9.5889225
14.66344,13.504917,-7.310177
14.66344,13.504917,-7.310177
14.66344,13.504917,-7.310177
14.66344,13.504917,-7.310177
14.66344,13.504917,-7.310177
19.594337,3.7292912000000005,-8.439975
19.594337,3.7292912000000005,-8.439975
19.594337,3.7292912000000005,-8.439975
19.594337,-19.594337,-3.2026904
19.594337,-19.594337,-3.2026904
19.594337,-19.594337,-3.2026904
19.594337,-19.594337,-3.2026904
7.156984,-19.000715,-1.8048046999999998
7.156984,-19.000715,-1.8048046999999998
7.156984,-19.000715,-1.8048046999999998
7.156984,-19.000715,-1.8048046999999998
-9.96233,-11.398514,0.92394507
-9.96233,-11.398514,0.92394507
-9.96233,-11.398514,0.92394507
-9.96233,-11.398514,0.92394507
-10.584677000000001,-4.4186597,1.6516117
-10.584677000000001,-4.4186597,1.6516117
-10.584677000000001,-4.4186597,1.6516117
-10.584677000000001,-4.4186597,1.6516117
-17.143251,-4.801642,-4.342063
-17.143251,-4.801642,-4.342063
-17.143251,-4.801642,-4.342063
-17.143251,-4.801642,-4.342063
1.1154363,-17.593254,-6.8410234
1.1154363,-17.593254,-6.8410234
1.1154363,-17.593254,-6.8410234
1.1154363,-17.593254,-6.8410234
19.594337,-19.594337,-8.152739
19.594337,-19.594337,-8.152739
19.594337,-19.594337,-8.152739
17.133677,-4.0261025,-9.2825365
17.133677,-4.0261025,-9.2825365
17.133677,-4.0261025,-9.2825365
17.133677,-4.0261025,-9.2825365
10.077225,15.333657999999998,-9.560199
10.077225,15.333657999999998,-9.560199
10.077225,15.333657999999998,-9.560199
10.077225,15.333657999999998,-9.560199
9.512326,17.430487,-7.377198700000001
9.512326,17.430487,-7.377198700000001
9.512326,17.430487,-7.377198700000001
9.512326,17.430487,-7.377198700000001
19.594337,4.3133397,-8.191036
19.594337,4.3133397,-8.191036
19.594337,4.3133397,-8.191036
19.594337,4.3133397,-8.191036
19.594337,-19.594337,1.2494801000000002
19.594337,-19.594337,1.2494801000000002
19.594337,-19.594337,1.2494801000000002
19.594337,-19.594337,1.2494801000000002
9.933606,-16.856014000000002,2.7814097
9.933606,-16.856014000000002,2.7814097
9.933606,-16.856014000000002,2.7814097
9.933606,-16.856014000000002,2.7814097
-8.832532,-7.4729443,-2.6377914000000002
-8.832532,-7.4729443,-2.6377914000000002
-8.832532,-7.4729443,-2.6377914000000002
-8.832532,-7.4729443,-2.6377914000000002
-9.684667999999999,-5.0793040000000005,-1.3356511999999998
-9.684667999999999,-5.0793040000000005,-1.3356511999999998
-9.684667999999999,-5.0793040000000005,-1.3356511999999998
-19.603912,-10.077225,0.3398969
-19.603912,-10.077225,0.3398969
-19.603912,-10.077225,0.3398969
-19.603912,-10.077225,0.3398969
-5.002708,-19.594337,5.538883
-5.002708,-19.594337,5.538883
-5.002708,-19.594337,5.538883
-5.002708,-19.594337,5.538883
19.594337,-19.144333,1.6420371999999999
19.594337,-19.144333,1.6420371999999999
19.594337,-19.144333,1.6420371999999999
19.594337,-19.144333,1.6420371999999999
17.621979,-6.8027253,-6.027186
17.621979,-6.8027253,-6.027186
17.621979,-6.8027253,-6.027186
17.621979,-6.8027253,-6.027186
10.737869,10.555953,-10.06765
10.737869,10.555953,-10.06765
10.737869,10.555953,-10.06765
10.737869,10.555953,-10.06765
10.153821,13.150659,-11.082554
10.153821,13.150659,-11.082554
10.153821,13.150659,-11.082554
10.153821,13.150659,-11.082554
17.009207,2.6569404999999997,-9.177217
17.009207,2.6569404999999997,-9.177217
17.009207,2.6569404999999997,-9.177217
19.594337,-19.594337,2.494173
19.594337,-19.594337,2.494173
19.594337,-19.594337,2.494173
19.594337,-19.594337,2.494173
10.488931,-19.144333,3.7197167999999996
10.488931,-19.144333,3.7197167999999996
10.488931,-19.144333,3.7197167999999996
10.488931,-19.144333,3.7197167999999996
-8.459125,-8.765511,-1.5367169
-8.459125,-8.765511,-1.5367169
-8.459125,-8.765511,-1.5367169
-8.459125,-8.765511,-1.5367169
-12.978316,-4.8973875,-5.0122824
-12.978316,-4.8973875,-5.0122824
-12.978316,-4.8973875,-5.0122824
-12.978316,-4.8973875,-5.0122824
-18.177303,-12.7964,-4.275041000000001
-18.177303,-12.7964,-4.275041000000001
-18.177303,-12.7964,-4.275041000000001
-18.177303,-12.7964,-4.275041000000001
-1.2111819,-19.594337,0.2920241
-1.2111819,-19.594337,0.2920241
-1.2111819,-19.594337,0.2920241
-1.2111819,-19.594337,0.2920241
19.594337,-19.364548000000003,2.8771553
19.594337,-19.364548000000003,2.8771553
19.594337,-19.364548000000003,2.8771553
16.003878,-6.764427,-2.733537
16.003878,-6.764427,-2.733537
16.003878,-6.764427,-2.733537
16.003878,-6.764427,-2.733537
16.003878,-6.764427,-2.733537
8.200611,9.6942425,-8.363379
8.200611,9.6942425,-8.363379
8.200611,9.6942425,-8.363379
8.55487,13.208105999999999,-10.182545
8.55487,13.208105999999999,-10.182545
8.55487,13.208105999999999,-10.182545
8.55487,13.208105999999999,-10.182545
19.086885000000002,3.4995019999999997,-13.227255
19.086885000000002,3.4995019999999997,-13.227255
19.086885000000002,3.4995019999999997,-13.227255
19.086885000000002,3.4995019999999997,-13.227255
19.594337,-17.219847,-8.583592999999999
19.594337,-17.219847,-8.583592999999999
19.594337,-17.219847,-8.583592999999999
19.594337,-17.219847,-8.583592999999999
12.710229,-19.594337,-6.3622955999999995
12.710229,-19.594337,-6.3622955999999995
12.710229,-19.594337,-6.3622955999999995
12.710229,-19.594337,-6.3622955999999995
-8.23891,-10.06765,-1.469695
-8.23891,-10.06765,-1.469695
-8.23891,-10.06765,-1.469695
-8.23891,-10.06765,-1.469695
-7.9325233,-4.0548263,0.56968635
-7.9325233,-4.0548263,0.56968635
-7.9325233,-4.0548263,0.56968635
-7.9325233,-4.0548263,0.56968635
-19.163483,-7.022939999999999,-3.5665237999999997
-19.163483,-7.022939999999999,-3.5665237999999997
-19.163483,-7.022939999999999,-3.5665237999999997
-9.64637,-18.675179999999997,-9.272962
-9.64637,-18.675179999999997,-9.272962
-9.64637,-18.675179999999997,-9.272962
-9.64637,-18.675179999999997,-9.272962
17.574106,-19.594337,-11.379365
17.574106,-19.594337,-11.379365
17.574106,-19.594337,-11.379365
17.574106,-19.594337,-11.379365
19.192207,-9.512326,-7.377198700000001
19.192207,-9.512326,-7.377198700000001
19.192207,-9.512326,-7.377198700000001
19.192207,-9.512326,-7.377198700000001
13.169807,12.413418,-10.287866000000001
13.169807,12.413418,-10.287866000000001
13.169807,12.413418,-10.287866000000001
13.169807,12.413418,-10.287866000000001
12.528313,16.626225,-6.2665496
12.528313,16.626225,-6.2665496
12.528313,16.626225,-6.2665496
12.528313,16.626225,-6.2665496
17.401764,7.2240057,-7.875075999999999
17.401764,7.2240057,-7.875075999999999
17.401764,7.2240057,-7.875075999999999
19.594337,-14.127264000000002,-11.781497
19.594337,-14.127264000000002,-11.781497
19.594337,-14.127264000000002,-11.781497
19.594337,-14.127264000000002,-11.781497
19.594337,-14.127264000000002,-11.781497
13.7730055,-19.594337,-6.592085000000001
13.7730055,-19.594337,-6.592085000000001
13.7730055,-19.594337,-6.592085000000001
-7.195282000000001,-12.90172,-1.2686293
-7.195282000000001,-12.90172,-1.2686293
-7.195282000000001,-12.90172,-1.2686293
-7.195282000000001,-12.90172,-1.2686293
-5.835694999999999,-7.386773599999999,3.039923
-5.835694999999999,-7.386773599999999,3.039923
-5.835694999999999,-7.386773599999999,3.039923
-5.835694999999999,-7.386773599999999,3.039923
-13.208105999999999,-3.7675896,2.6090677
-13.208105999999999,-3.7675896,2.6090677
-13.208105999999999,-3.7675896,2.6090677
-13.208105999999999,-3.7675896,2.6090677
-16.549626999999997,-13.217680999999999,-2.4558747000000003
-16.549626999999997,-13.217680999999999,-2.4558747000000003
-16.549626999999997,-13.217680999999999,-2.4558747000000003
-16.549626999999997,-13.217680999999999,-2.4558747000000003
6.458041000000001,-19.594337,-11.513409
6.458041000000001,-19.594337,-11.513409
6.458041000000001,-19.594337,-11.513409
6.458041000000001,-19.594337,-11.513409
19.594337,-17.478360000000002,-11.187874
19.594337,-17.478360000000002,-11.187874
19.594337,-17.478360000000002,-11.187874
19.594337,-17.478360000000002,-11.187874
15.132593,6.2665496,-8.181462
15.132593,6.2665496,-8.181462
15.132593,6.2665496,-8.181462
9.0814705,15.994304000000001,-8.23891
9.0814705,15.994304000000001,-8.23891
9.0814705,15.994304000000001,-8.23891
9.0814705,15.994304000000001,-8.23891
9.0814705,15.994304000000001,-8.23891
15.850685,8.861256,-9.85701
15.850685,8.861256,-9.85701
15.850685,8.861256,-9.85701
19.594337,-5.146326,-10.479357
19.594337,-5.146326,-10.479357
19.594337,-5.146326,-10.479357
19.594337,-5.146326,-10.479357
19.039013,-19.594337,-9.560199
19.039013,-19.594337,-9.560199
19.039013,-19.594337,-9.560199
19.039013,-19.594337,-9.560199
1.8239537000000001,-17.516659,-2.3984275
1.8239537000000001,-17.516659,-2.3984275
1.8239537000000001,-17.516659,-2.3984275
1.8239537000000001,-17.516659,-2.3984275
-7.7027339999999995,-8.698488000000001,3.5856729
-7.7027339999999995,-8.698488000000001,3.5856729
-7.7027339999999995,-8.698488000000001,3.5856729
-7.7027339999999995,-8.698488000000001,3.5856729
-15.180466000000001,-3.3750327000000007,4.2175937
-15.180466000000001,-3.3750327000000007,4.2175937
-15.180466000000001,-3.3750327000000007,4.2175937
-17.497509,-9.761265,2.3792782000000003
-17.497509,-9.761265,2.3792782000000003
-17.497509,-9.761265,2.3792782000000003
-17.497509,-9.761265,2.3792782000000003
-17.497509,-9.761265,2.3792782000000003
8.516571,-19.594337,5.8165455
8.516571,-19.594337,5.8165455
8.516571,-19.594337,5.8165455
19.594337,-18.952842999999998,-1.776081
19.594337,-18.952842999999998,-1.776081
19.594337,-18.952842999999998,-1.776081
19.594337,-18.952842999999998,-1.776081
18.943268,3.0973704,-9.024023
18.943268,3.0973704,-9.024023
18.943268,3.0973704,-9.024023
18.943268,3.0973704,-9.024023
11.7049,19.603912,-11.953838000000001
11.7049,19.603912,-11.953838000000001
11.7049,19.603912,-11.953838000000001
11.7049,19.603912,-11.953838000000001
19.182632,9.502751,-10.661273
19.182632,9.502751,-10.661273
19.182632,9.502751,-10.661273
19.182632,9.502751,-10.661273
19.594337,-7.683584700000001,-10.527229
19.594337,-7.683584700000001,-10.527229
19.594337,-7.683584700000001,-10.527229
19.594337,-7.683584700000001,-10.527229
18.139006,-19.594337,-8.679339
18.139006,-19.594337,-8.679339
18.139006,-19.594337,-8.679339
-0.25372586,-16.05175,-1.5941644
-0.25372586,-16.05175,-1.5941644
-0.25372586,-16.05175,-1.5941644
-0.25372586,-16.05175,-1.5941644
-9.091045,-7.9133744,1.8526775000000002
-9.091045,-7.9133744,1.8526775000000002
-9.091045,-7.9133744,1.8526775000000002
-9.091045,-7.9133744,1.8526775000000002
-18.636882999999997,-8.66019,-0.47394073
-18.636882999999997,-8.66019,-0.47394073
-18.636882999999997,-8.66019,-0.47394073
-18.636882999999997,-8.66019,-0.47394073
-15.123018,-19.20178,-1.1537346000000002
-15.123018,-19.20178,-1.1537346000000002
-15.123018,-19.20178,-1.1537346000000002
-15.123018,-19.20178,-1.1537346000000002
12.174053,-19.594337,-1.2303311000000001
12.174053,-19.594337,-1.2303311000000001
12.174053,-19.594337,-1.2303311000000001
12.174053,-19.594337,-1.2303311000000001
19.594337,-17.784746,-5.1271772
19.594337,-17.784746,-5.1271772
19.594337,-17.784746,-5.1271772
19.594337,-17.784746,-5.1271772
15.362382,3.6239712,-12.174053
15.362382,3.6239712,-12.174053
15.362382,3.6239712,-12.174053
10.354887,16.999632000000002,-14.20386
10.354887,16.999632000000002,-14.20386
10.354887,16.999632000000002,-14.20386
10.354887,16.999632000000002,-14.20386
10.354887,16.999632000000002,-14.20386
16.310265,9.138917999999999,-13.00704
16.310265,9.138917999999999,-13.00704
16.310265,9.138917999999999,-13.00704
19.594337,-7.3676243,-11.36979
19.594337,-7.3676243,-11.36979
19.594337,-7.3676243,-11.36979
19.594337,-7.3676243,-11.36979
18.904970000000002,-19.594337,-5.567607
18.904970000000002,-19.594337,-5.567607
18.904970000000002,-19.594337,-5.567607
18.904970000000002,-19.594337,-5.567607
0.5313880999999999,-16.654947,1.0292653
0.5313880999999999,-16.654947,1.0292653
0.5313880999999999,-16.654947,1.0292653
0.5313880999999999,-16.654947,1.0292653
-10.374036,-7.1474094,3.6622693999999996
-10.374036,-7.1474094,3.6622693999999996
-10.374036,-7.1474094,3.6622693999999996
-10.374036,-7.1474094,3.6622693999999996
-18.703903,-6.304848000000001,-0.83777404
-18.703903,-6.304848000000001,-0.83777404
-18.703903,-6.304848000000001,-0.83777404
-18.703903,-6.304848000000001,-0.83777404
-14.09854,-13.543216000000001,-2.8388572
-14.09854,-13.543216000000001,-2.8388572
-14.09854,-13.543216000000001,-2.8388572
-14.09854,-13.543216000000001,-2.8388572
6.1612295999999995,-19.594337,-5.328243
6.1612295999999995,-19.594337,-5.328243
6.1612295999999995,-19.594337,-5.328243
19.594337,-19.316675,-5.0122824
19.594337,-19.316675,-5.0122824
19.594337,-19.316675,-5.0122824
19.594337,-19.316675,-5.0122824
19.594337,-19.316675,-5.0122824
17.114527,4.0548263,-6.2091026
17.114527,4.0548263,-6.2091026
17.114527,4.0548263,-6.2091026
15.324084,19.603912,-8.497422
15.324084,19.603912,-8.497422
15.324084,19.603912,-8.497422
15.324084,19.603912,-8.497422
19.22093,9.033598,-8.746361
19.22093,9.033598,-8.746361
19.22093,9.033598,-8.746361
19.22093,9.033598,-8.746361
19.594337,-7.4537954,-9.655944
19.594337,-7.4537954,-9.655944
19.594337,-7.4537954,-9.655944
19.594337,-7.4537954,-9.655944
19.584763,-19.594337,5.366541000000001
19.584763,-19.594337,5.366541000000001
19.584763,-19.594337,5.366541000000001
19.584763,-19.594337,5.366541000000001
10.172971,-18.34007,9.263388
10.172971,-18.34007,9.263388
10.172971,-18.34007,9.263388
10.172971,-18.34007,9.263388
-8.516571,-9.330409,4.275041000000001
-8.516571,-9.330409,4.275041000000001
-8.516571,-9.330409,4.275041000000001
-16.903887,-5.739949,3.8154623999999995
-16.903887,-5.739949,3.8154623999999995
-16.903887,-5.739949,3.8154623999999995
-16.903887,-5.739949,3.8154623999999995
-15.142167,-17.708149,-2.3026817000000004
-15.142167,-17.708149,-2.3026817000000004
-15.142167,-17.708149,-2.3026817000000004
-15.142167,-17.708149,-2.3026817000000004
12.46129,-19.594337,-7.4729443
12.46129,-19.594337,-7.4729443
12.46129,-19.594337,-7.4729443
12.46129,-19.594337,-7.4729443
19.594337,-18.675179999999997,-8.727212
19.594337,-18.675179999999997,-8.727212
19.594337,-18.675179999999997,-8.727212
19.594337,-18.675179999999997,-8.727212
18.387943,2.1207652,-11.034680999999999
18.387943,2.1207652,-11.034680999999999
18.387943,2.1207652,-11.034680999999999
18.387943,2.1207652,-11.034680999999999
12.719804,19.441145000000002,-12.67193
12.719804,19.441145000000002,-12.67193
12.719804,19.441145000000002,-12.67193
12.719804,19.441145000000002,-12.67193
18.837948,13.332576000000001,-14.242159
18.837948,13.332576000000001,-14.242159
18.837948,13.332576000000001,-14.242159
19.594337,-2.6952388,-12.432567
19.594337,-2.6952388,-12.432567
19.594337,-2.6952388,-12.432567
19.594337,-2.6952388,-12.432567
19.565615,-19.594337,-3.4803526
19.565615,-19.594337,-3.4803526
19.565615,-19.594337,-3.4803526
19.565615,-19.594337,-3.4803526
7.951672599999999,-19.43157,2.015445
7.951672599999999,-19.43157,2.015445
7.951672599999999,-19.43157,2.015445
7.951672599999999,-19.43157,2.015445
-7.9133744,-14.462373999999999,2.7431116
-7.9133744,-14.462373999999999,2.7431116
-7.9133744,-14.462373999999999,2.7431116
-7.9133744,-14.462373999999999,2.7431116
-14.290030999999999,-8.746361,0.99096704
-14.290030999999999,-8.746361,0.99096704
-14.290030999999999,-8.746361,0.99096704
-14.290030999999999,-8.746361,0.99096704
-18.052834,-16.434732,0.76117754
-18.052834,-16.434732,0.76117754
-18.052834,-16.434732,0.76117754
-18.052834,-16.434732,0.76117754
9.569773,-19.594337,4.0069537
9.569773,-19.594337,4.0069537
9.569773,-19.594337,4.0069537
19.594337,-18.656029999999998,-7.2240057
19.594337,-18.656029999999998,-7.2240057
19.594337,-18.656029999999998,-7.2240057
19.594337,-18.656029999999998,-7.2240057
19.594337,-18.656029999999998,-7.2240057
17.746449,3.2888615,-16.84644
17.746449,3.2888615,-16.84644
17.746449,3.2888615,-16.84644
10.125097,19.603912,-14.66344
10.125097,19.603912,-14.66344
10.125097,19.603912,-14.66344
10.125097,19.603912,-14.66344
10.125097,19.603912,-14.66344
10.125097,19.603912,-14.66344
10.125097,19.603912,-14.66344
10.125097,19.603912,-14.66344
19.594337,-4.294190400000001,-13.13151
19.594337,-4.294190400000001,-13.13151
19.594337,-4.294190400000001,-13.13151
18.981565,-19.594337,-8.765511
18.981565,-19.594337,-8.765511
18.981565,-19.594337,-8.765511
18.981565,-19.594337,-8.765511
1.3260766000000002,-18.119856,1.7569318999999999
1.3260766000000002,-18.119856,1.7569318999999999
1.3260766000000002,-18.119856,1.7569318999999999
1.3260766000000002,-18.119856,1.7569318999999999
-8.506997,-13.323001000000001,7.6740103
-8.506997,-13.323001000000001,7.6740103
-8.506997,-13.323001000000001,7.6740103
-8.506997,-13.323001000000001,7.6740103
-16.501755,-8.037844,6.8027253
-16.501755,-8.037844,6.8027253
-16.501755,-8.037844,6.8027253
-16.501755,-8.037844,6.8027253
-15.285785999999998,-18.349646,-2.3984275
-15.285785999999998,-18.349646,-2.3984275
-15.285785999999998,-18.349646,-2.3984275
-15.285785999999998,-18.349646,-2.3984275
10.680422,-19.594337,-2.1590632999999997
10.680422,-19.594337,-2.1590632999999997
10.680422,-19.594337,-2.1590632999999997
10.680422,-19.594337,-2.1590632999999997
19.594337,-16.291114999999998,-5.0601554
19.594337,-16.291114999999998,-5.0601554
19.594337,-16.291114999999998,-5.0601554
14.443225,4.2175937,-9.608071
14.443225,4.2175937,-9.608071
14.443225,4.2175937,-9.608071
14.443225,4.2175937,-9.608071
14.443225,4.2175937,-9.608071
10.891063,17.641129,-14.902803
10.891063,17.641129,-14.902803
10.891063,17.641129,-14.902803
19.57519,12.269799,-13.667685500000001
19.57519,12.269799,-13.667685500000001
19.57519,12.269799,-13.667685500000001
19.57519,12.269799,-13.667685500000001
19.594337,-11.618729,-9.004874000000001
19.594337,-11.618729,-9.004874000000001
19.594337,-11.618729,-9.004874000000001
19.594337,-11.618729,-9.004874000000001
15.247487,-19.594337,-0.93351966
15.247487,-19.594337,-0.93351966
15.247487,-19.594337,-0.93351966
15.247487,-19.594337,-0.93351966
-9.272962,-14.031518,5.108028
-9.272962,-14.031518,5.108028
-9.272962,-14.031518,5.108028
-9.272962,-14.031518,5.108028
-12.107032,-6.2378263,5.0505805
-12.107032,-6.2378263,5.0505805
-12.107032,-6.2378263,5.0505805
-12.107032,-6.2378263,5.0505805
-18.828373000000003,-13.658110999999998,-1.8814011999999998
-18.828373000000003,-13.658110999999998,-1.8814011999999998
-18.828373000000003,-13.658110999999998,-1.8814011999999998
-18.828373000000003,-13.658110999999998,-1.8814011999999998
-2.0441686999999997,-19.594337,1.2590546999999999
-2.0441686999999997,-19.594337,1.2590546999999999
-2.0441686999999997,-19.594337,1.2590546999999999
19.594337,-19.517742000000002,6.1612295999999995
19.594337,-19.517742000000002,6.1612295999999995
19.594337,-19.517742000000002,6.1612295999999995
19.594337,-19.517742000000002,6.1612295999999995
19.594337,-12.260224000000001,-2.1303396
19.594337,-12.260224000000001,-2.1303396
19.594337,-12.260224000000001,-2.1303396
19.594337,-12.260224000000001,-2.1303396
15.209189000000002,13.064487,-12.978316
15.209189000000002,13.064487,-12.978316
15.209189000000002,13.064487,-12.978316
15.209189000000002,13.064487,-12.978316
16.348562,18.646456,-12.202777000000001
16.348562,18.646456,-12.202777000000001
16.348562,18.646456,-12.202777000000001
16.348562,18.646456,-12.202777000000001
19.594337,5.0793040000000005,-11.417664
19.594337,5.0793040000000005,-11.417664
19.594337,5.0793040000000005,-11.417664
19.594337,5.0793040000000005,-11.417664
19.594337,-19.077312,-7.7027339999999995
19.594337,-19.077312,-7.7027339999999995
19.594337,-19.077312,-7.7027339999999995
19.594337,-19.077312,-7.7027339999999995
19.594337,-19.077312,-7.7027339999999995
19.594337,-19.077312,-7.7027339999999995
19.594337,-19.077312,-7.7027339999999995
-8.937852000000001,-14.021944,5.797396
-8.937852000000001,-14.021944,5.797396
-8.937852000000001,-14.021944,5.797396
-8.937852000000001,-14.021944,5.797396
-14.759185,-8.602742,8.018694
-14.759185,-8.602742,8.018694
-14.759185,-8.602742,8.018694
-14.759185,-8.602742,8.018694
-18.675179999999997,-12.537887,2.6377914000000002
-18.675179999999997,-12.537887,2.6377914000000002
-18.675179999999997,-12.537887,2.6377914000000002
0.05266008,-19.594337,-3.7005677
0.05266008,-19.594337,-3.7005677
0.05266008,-19.594337,-3.7005677
0.05266008,-19.594337,-3.7005677
0.05266008,-19.594337,-3.7005677
19.594337,-19.230504999999997,0.665432
19.594337,-19.230504999999997,0.665432
19.594337,-19.230504999999997,0.665432
18.263474,-2.714388,-8.755936
18.263474,-2.714388,-8.755936
18.263474,-2.714388,-8.755936
18.263474,-2.714388,-8.755936
11.36979,19.603912,-13.974070999999999
11.36979,19.603912,-13.974070999999999
11.36979,19.603912,-13.974070999999999
11.36979,19.603912,-13.974070999999999
17.823044,8.784659,-8.066567
17.823044,8.784659,-8.066567
17.823044,8.784659,-8.066567
17.823044,8.784659,-8.066567
19.594337,-1.9675721999999998,-8.947427000000001
19.594337,-1.9675721999999998,-8.947427000000001
19.594337,-1.9675721999999998,-8.947427000000001
19.594337,-1.9675721999999998,-8.947427000000001
19.546464999999998,-19.517742000000002,-2.6090677
19.546464999999998,-19.517742000000002,-2.6090677
19.546464999999998,-19.517742000000002,-2.6090677
19.546464999999998,-19.517742000000002,-2.6090677
12.422992,-19.393272,8.1623125
12.422992,-19.393272,8.1623125
12.422992,-19.393272,8.1623125
12.422992,-19.393272,8.1623125
-7.1474094,-10.555953,6.113357
-7.1474094,-10.555953,6.113357
-7.1474094,-10.555953,6.113357
-13.514492,-7.5399666,1.9867213
-13.514492,-7.5399666,1.9867213
-13.514492,-7.5399666,1.9867213
-13.514492,-7.5399666,1.9867213
-15.869833999999999,-13.160233499999999,2.8484317999999997
-15.869833999999999,-13.160233499999999,2.8484317999999997
-15.869833999999999,-13.160233499999999,2.8484317999999997
-15.869833999999999,-13.160233499999999,2.8484317999999997
1.4026731000000001,-19.594337,0.33032233
1.4026731000000001,-19.594337,0.33032233
1.4026731000000001,-19.594337,0.33032233
1.4026731000000001,-19.594337,0.33032233
19.594337,-19.594337,-6.9654926999999995
19.594337,-19.594337,-6.9654926999999995
19.594337,-19.594337,-6.9654926999999995
19.594337,-19.594337,-6.9654926999999995
19.594337,-5.6250544,-7.3676243
19.594337,-5.6250544,-7.3676243
19.594337,-5.6250544,-7.3676243
19.594337,-5.6250544,-7.3676243
14.605992,16.30069,-12.700654
14.605992,16.30069,-12.700654
14.605992,16.30069,-12.700654
13.428320999999999,16.654947,-9.809137
13.428320999999999,16.654947,-9.809137
13.428320999999999,16.654947,-9.809137
13.428320999999999,16.654947,-9.809137
13.428320999999999,16.654947,-9.809137
18.828373000000003,2.972901,-12.001712
18.828373000000003,2.972901,-12.001712
18.828373000000003,2.972901,-12.001712
19.594337,-14.194285,-9.215514
19.594337,-14.194285,-9.215514
19.594337,-14.194285,-9.215514
19.594337,-14.194285,-9.215514
18.407093,-19.594337,3.7867386
18.407093,-19.594337,3.7867386
18.407093,-19.594337,3.7867386
18.407093,-19.594337,3.7867386
-1.0962871,-16.511329999999997,4.5335545999999995
-1.0962871,-16.511329999999997,4.5335545999999995
-1.0962871,-16.511329999999997,4.5335545999999995
-1.0962871,-16.511329999999997,4.5335545999999995
-3.0494976,-9.54105,6.285699
-3.0494976,-9.54105,6.285699
-3.0494976,-9.54105,6.285699
-3.0494976,-9.54105,6.285699
-10.393186,-8.4686985,3.5473747
-10.393186,-8.4686985,3.5473747
-10.393186,-8.4686985,3.5473747
-10.393186,-8.4686985,3.5473747
-10.096374,-11.666602000000001,0.00478728
-10.096374,-11.666602000000001,0.00478728
-10.096374,-11.666602000000001,0.00478728
-10.096374,-11.666602000000001,0.00478728
14.711312,-19.594337,10.555953
14.711312,-19.594337,10.555953
14.711312,-19.594337,10.555953
19.594337,-15.276210999999998,-2.88673
19.594337,-15.276210999999998,-2.88673
19.594337,-15.276210999999998,-2.88673
19.594337,-15.276210999999998,-2.88673
14.950676000000001,8.937852000000001,-13.878325
14.950676000000001,8.937852000000001,-13.878325
14.950676000000001,8.937852000000001,-13.878325
14.950676000000001,8.937852000000001,-13.878325
11.542132,19.603912,-17.669851
11.542132,19.603912,-17.669851
11.542132,19.603912,-17.669851
11.542132,19.603912,-17.669851
18.273048,10.000628,-16.05175
18.273048,10.000628,-16.05175
18.273048,10.000628,-16.05175
18.273048,10.000628,-16.05175
19.594337,-12.231501,-13.504917
19.594337,-12.231501,-13.504917
19.594337,-12.231501,-13.504917
19.594337,-12.231501,-13.504917
17.736874,-19.594337,-6.0176110000000005
17.736874,-19.594337,-6.0176110000000005
17.736874,-19.594337,-6.0176110000000005
17.736874,-19.594337,-6.0176110000000005
-1.5941644,-14.060242,0.4164934
-1.5941644,-14.060242,0.4164934
-1.5941644,-14.060242,0.4164934
-4.9739842,-11.858092999999998,6.5154879999999995
-4.9739842,-11.858092999999998,6.5154879999999995
-4.9739842,-11.858092999999998,6.5154879999999995
-4.9739842,-11.858092999999998,6.5154879999999995
-4.9739842,-11.858092999999998,6.5154879999999995
-16.482605,-7.176133,6.1229315
-16.482605,-7.176133,6.1229315
-16.482605,-7.176133,6.1229315
-7.482519,-13.849601999999999,1.3739493999999999
-7.482519,-13.849601999999999,1.3739493999999999
-7.482519,-13.849601999999999,1.3739493999999999
-7.482519,-13.849601999999999,1.3739493999999999
17.26772,-19.594337,-6.410168
17.26772,-19.594337,-6.410168
17.26772,-19.594337,-6.410168
17.26772,-19.594337,-6.410168
19.594337,-14.366628,-7.252729400000001
19.594337,-14.366628,-7.252729400000001
19.594337,-14.366628,-7.252729400000001
19.594337,-14.366628,-7.252729400000001
15.266637,8.870830999999999,-10.182545
15.266637,8.870830999999999,-10.182545
15.266637,8.870830999999999,-10.182545
15.266637,8.870830999999999,-10.182545
9.64637,19.603912,-10.278291000000001
9.64637,19.603912,-10.278291000000001
9.64637,19.603912,-10.278291000000001
9.64637,19.603912,-10.278291000000001
18.742203,10.709146,-8.334655
18.742203,10.709146,-8.334655
18.742203,10.709146,-8.334655
19.594337,-9.96233,-6.103782
19.594337,-9.96233,-6.103782
19.594337,-9.96233,-6.103782
19.594337,-9.96233,-6.103782
18.148579,-19.594337,-7.951672599999999
18.148579,-19.594337,-7.951672599999999
18.148579,-19.594337,-7.951672599999999
18.148579,-19.594337,-7.951672599999999
0.2154276,-13.524067,-4.045252
0.2154276,-13.524067,-4.045252
0.2154276,-13.524067,-4.045252
0.2154276,-13.524067,-4.045252
-6.726128599999999,-12.748528,-5.4335629999999995
-6.726128599999999,-12.748528,-5.4335629999999995
-6.726128599999999,-12.748528,-5.4335629999999995
-6.726128599999999,-12.748528,-5.4335629999999995
-19.029438,-8.411251,-5.366541000000001
-19.029438,-8.411251,-5.366541000000001
-19.029438,-8.411251,-5.366541000000001
-19.029438,-8.411251,-5.366541000000001
-14.136839000000002,-19.594337,-1.8814011999999998
-14.136839000000002,-19.594337,-1.8814011999999998
-14.136839000000002,-19.594337,-1.8814011999999998
-14.136839000000002,-19.594337,-1.8814011999999998
12.557036,-19.594337,5.759098000000001
12.557036,-19.594337,5.759098000000001
12.557036,-19.594337,5.759098000000001
19.594337,-15.869833999999999,-0.50266445
19.594337,-15.869833999999999,-0.50266445
19.594337,-15.869833999999999,-0.50266445
19.594337,-15.869833999999999,-0.50266445
19.594337,-15.869833999999999,-0.50266445
14.500670999999999,8.727212,-4.5718527
14.500670999999999,8.727212,-4.5718527
14.500670999999999,8.727212,-4.5718527
9.148492999999998,12.978316,-5.711225499999999
9.148492999999998,12.978316,-5.711225499999999
9.148492999999998,12.978316,-5.711225499999999
9.148492999999998,12.978316,-5.711225499999999
11.819795,3.6526947,-5.366541000000001
11.819795,3.6526947,-5.366541000000001
11.819795,3.6526947,-5.366541000000001
11.819795,3.6526947,-5.366541000000001
19.498592000000002,-7.1186857,-7.1091112999999995
19.498592000000002,-7.1186857,-7.1091112999999995
19.498592000000002,-7.1186857,-7.1091112999999995
19.498592000000002,-7.1186857,-7.1091112999999995
19.546464999999998,-19.594337,-4.648448999999999
19.546464999999998,-19.594337,-4.648448999999999
19.546464999999998,-19.594337,-4.648448999999999
19.546464999999998,-19.594337,-4.648448999999999
6.400593799999999,-19.460295000000002,-5.031431700000001
6.400593799999999,-19.460295000000002,-5.031431700000001
6.400593799999999,-19.460295000000002,-5.031431700000001
6.400593799999999,-19.460295000000002,-5.031431700000001
-5.5101595,-17.756021,-2.4750240000000003
-5.5101595,-17.756021,-2.4750240000000003
-5.5101595,-17.756021,-2.4750240000000003
-5.5101595,-17.756021,-2.4750240000000003
-10.891063,-13.820878,2.2356597999999996
-10.891063,-13.820878,2.2356597999999996
-10.891063,-13.820878,2.2356597999999996
-15.400681,-15.237913,1.7282081999999999
-15.400681,-15.237913,1.7282081999999999
-15.400681,-15.237913,1.7282081999999999
-15.400681,-15.237913,1.7282081999999999
-15.400681,-15.237913,1.7282081999999999
5.088879,-19.594337,0.54096264
5.088879,-19.594337,0.54096264
5.088879,-19.594337,0.54096264
19.594337,-19.584763,-1.5941644
19.594337,-19.584763,-1.5941644
19.594337,-19.584763,-1.5941644
19.594337,-19.584763,-1.5941644
16.358137,-7.683584700000001,3.1548176
16.358137,-7.683584700000001,3.1548176
16.358137,-7.683584700000001,3.1548176
16.358137,-7.683584700000001,3.1548176
6.5537868,4.83994,3.1835412999999995
6.5537868,4.83994,3.1835412999999995
6.5537868,4.83994,3.1835412999999995
6.5537868,4.83994,3.1835412999999995
6.151655,6.5154879999999995,2.4654493
6.151655,6.5154879999999995,2.4654493
6.151655,6.5154879999999995,2.4654493
6.151655,6.5154879999999995,2.4654493
3.384607,-0.359046,6.2091026
3.384607,-0.359046,6.2091026
3.384607,-0.359046,6.2091026
-3.930357,-1.5175678999999997,16.645372000000002
-3.930357,-1.5175678999999997,16.645372000000002
-3.930357,-1.5175678999999997,16.645372000000002
-3.930357,-1.5175678999999997,16.645372000000002
-6.745278,0.46436617,17.736874
-6.745278,0.46436617,17.736874
-6.745278,0.46436617,17.736874
-6.745278,0.46436617,17.736874
-5.845269,-1.6324625,13.160233499999999
-5.845269,-1.6324625,13.160233499999999
-5.845269,-1.6324625,13.160233499999999
-5.845269,-1.6324625,13.160233499999999
-3.3941817000000003,1.1920328000000002,0.110107444
-3.3941817000000003,1.1920328000000002,0.110107444
-3.3941817000000003,1.1920328000000002,0.110107444
-3.3941817000000003,1.1920328000000002,0.110107444
-2.2356597999999996,-1.2782038,-1.5941644
-2.2356597999999996,-1.2782038,-1.5941644
-2.2356597999999996,-1.2782038,-1.5941644
-2.2356597999999996,-1.2782038,-1.5941644
-6.103782,1.5175678999999997,-0.014361841
-6.103782,1.5175678999999997,-0.014361841
-6.103782,1.5175678999999997,-0.014361841
-6.103782,1.5175678999999997,-0.014361841
-10.82404,3.8154623999999995,8.832532
-10.82404,3.8154623999999995,8.832532
-10.82404,3.8154623999999995,8.832532
-10.82404,3.8154623999999995,8.832532
-12.011286,0.8856468000000001,14.012369
-12.011286,0.8856468000000001,14.012369
-12.011286,0.8856468000000001,14.012369
-5.653778,2.3122563,9.933606
-5.653778,2.3122563,9.933606
-5.653778,2.3122563,9.933606
-5.653778,2.3122563,9.933606
-1.1824582000000001,-0.09095833,6.3431463
-1.1824582000000001,-0.09095833,6.3431463
-1.1824582000000001,-0.09095833,6.3431463
-1.1824582000000001,-0.09095833,6.3431463
1.9675721999999998,0.76117754,4.2080193
1.9675721999999998,0.76117754,4.2080193
1.9675721999999998,0.76117754,4.2080193
1.9675721999999998,0.76117754,4.2080193
1.6707608,0.98139244,6.304848000000001
1.6707608,0.98139244,6.304848000000001
1.6707608,0.98139244,6.304848000000001
1.6707608,0.98139244,6.304848000000001
-3.7675896,3.9590807,15.467703
-3.7675896,3.9590807,15.467703
-3.7675896,3.9590807,15.467703
-3.7675896,3.9590807,15.467703
-8.966576,2.2260852000000004,17.28687
-8.966576,2.2260852000000004,17.28687
-8.966576,2.2260852000000004,17.28687
-8.966576,2.2260852000000004,17.28687
-6.9942164,1.9771467,5.797396
-6.9942164,1.9771467,5.797396
-6.9942164,1.9771467,5.797396
-4.543129,-0.665432,0.36862057
-4.543129,-0.665432,0.36862057
-4.543129,-0.665432,0.36862057
-4.543129,-0.665432,0.36862057
-4.543129,-0.665432,0.36862057
-3.2984362000000003,-0.0718092,0.081383765
-3.2984362000000003,-0.0718092,0.081383765
-3.2984362000000003,-0.0718092,0.081383765
-7.1474094,-0.2441513,2.8771553
-7.1474094,-0.2441513,2.8771553
-7.1474094,-0.2441513,2.8771553
-7.1474094,-0.2441513,2.8771553
-12.67193,-3.212265,15.036847
-12.67193,-3.212265,15.036847
-12.67193,-3.212265,15.036847
-12.67193,-3.212265,15.036847
-9.742115,-2.5324712000000003,17.602829
-9.742115,-2.5324712000000003,17.602829
-9.742115,-2.5324712000000003,17.602829
-9.742115,-2.5324712000000003,17.602829
-0.9718179,0.5313880999999999,3.3175852
-0.9718179,0.5313880999999999,3.3175852
-0.9718179,0.5313880999999999,3.3175852
-0.9718179,0.5313880999999999,3.3175852
4.437809,0.63670826,-4.294190400000001
4.437809,0.63670826,-4.294190400000001
4.437809,0.63670826,-4.294190400000001
4.437809,0.63670826,-4.294190400000001
10.871913000000001,2.3888528,-5.634629
10.871913000000001,2.3888528,-5.634629
10.871913000000001,2.3888528,-5.634629
10.871913000000001,2.3888528,-5.634629
16.109198000000003,1.2399056,-5.194199
16.109198000000003,1.2399056,-5.194199
16.109198000000003,1.2399056,-5.194199
19.594337,-17.028357,1.1824582000000001
19.594337,-17.028357,1.1824582000000001
19.594337,-17.028357,1.1824582000000001
19.594337,-17.028357,1.1824582000000001
18.636882999999997,-19.594337,6.984642
18.636882999999997,-19.594337,6.984642
18.636882999999997,-19.594337,6.984642
18.636882999999997,-19.594337,6.984642
2.8580062,-15.850685,1.1250108
2.8580062,-15.850685,1.1250108
2.8580062,-15.850685,1.1250108
2.8580062,-15.850685,1.1250108
-7.3676243,-9.742115,5.2133484
-7.3676243,-9.742115,5.2133484
-7.3676243,-9.742115,5.2133484
-7.3676243,-9.742115,5.2133484
-9.560199,-8.813383,5.6154795
-9.560199,-8.813383,5.6154795
-9.560199,-8.813383,5.6154795
-9.560199,-8.813383,5.6154795
-8.411251,-8.803808,5.8261199999999995
-8.411251,-8.803808,5.8261199999999995
-8.411251,-8.803808,5.8261199999999995
-8.411251,-8.803808,5.8261199999999995
7.970821400000001,-19.594337,8.698488000000001
7.970821400000001,-19.594337,8.698488000000001
7.970821400000001,-19.594337,8.698488000000001
19.594337,-16.607075,-2.168638
19.594337,-16.607075,-2.168638
19.594337,-16.607075,-2.168638
19.594337,-16.607075,-2.168638
17.401764,8.822957,-11.4272375
17.401764,8.822957,-11.4272375
17.401764,8.822957,-11.4272375
17.401764,8.822957,-11.4272375
5.222923000000001,10.891063,-8.803808
5.222923000000001,10.891063,-8.803808
5.222923000000001,10.891063,-8.803808
5.222923000000001,10.891063,-8.803808
3.8058877,6.0463347,-3.9782297999999994
3.8058877,6.0463347,-3.9782297999999994
3.8058877,6.0463347,-3.9782297999999994
3.8058877,6.0463347,-3.9782297999999994
4.610151,2.1590632999999997,-0.11968201
4.610151,2.1590632999999997,-0.11968201
4.610151,2.1590632999999997,-0.11968201
4.610151,2.1590632999999997,-0.11968201
16.884737,-12.499589,0.2441513
16.884737,-12.499589,0.2441513
16.884737,-12.499589,0.2441513
10.393186,-19.594337,-4.5910015
10.393186,-19.594337,-4.5910015
10.393186,-19.594337,-4.5910015
10.393186,-19.594337,-4.5910015
10.393186,-19.594337,-4.5910015
3.7675896,-12.288948,-2.6186423
3.7675896,-12.288948,-2.6186423
3.7675896,-12.288948,-2.6186423
1.9579976000000003,-3.5473747,-1.2590546999999999
1.9579976000000003,-3.5473747,-1.2590546999999999
1.9579976000000003,-3.5473747,-1.2590546999999999
1.9579976000000003,-3.5473747,-1.2590546999999999
0.61755913,-2.5228968,-0.665432
0.61755913,-2.5228968,-0.665432
0.61755913,-2.5228968,-0.665432
0.61755913,-2.5228968,-0.665432
16.0709,-4.9069624,-6.391019
16.0709,-4.9069624,-6.391019
16.0709,-4.9069624,-6.391019
16.0709,-4.9069624,-6.391019
10.40276,-0.6845810999999999,-3.0016246
10.40276,-0.6845810999999999,-3.0016246
10.40276,-0.6845810999999999,-3.0016246
10.40276,-0.6845810999999999,-3.0016246
10.326163000000001,-2.3984275,-0.76117754
10.326163000000001,-2.3984275,-0.76117754
10.326163000000001,-2.3984275,-0.76117754
10.326163000000001,-2.3984275,-0.76117754
6.410168,-2.5324712000000003,-1.4026731000000001
6.410168,-2.5324712000000003,-1.4026731000000001
6.410168,-2.5324712000000003,-1.4026731000000001
6.410168,-2.5324712000000003,-1.4026731000000001
8.832532,-2.7622607000000006,-1.6516117
8.832532,-2.7622607000000006,-1.6516117
8.832532,-2.7622607000000006,-1.6516117
11.26447,-3.4803526,-1.6803354
11.26447,-3.4803526,-1.6803354
11.26447,-3.4803526,-1.6803354
11.26447,-3.4803526,-1.6803354
11.26447,-3.4803526,-1.6803354
9.004874000000001,-2.5707695,0.19627848
9.004874000000001,-2.5707695,0.19627848
9.004874000000001,-2.5707695,0.19627848
9.435728999999998,-3.1069447999999995,-0.34947145
9.435728999999998,-3.1069447999999995,-0.34947145
9.435728999999998,-3.1069447999999995,-0.34947145
9.435728999999998,-3.1069447999999995,-0.34947145
10.038927000000001,-3.193116,-0.7324539000000001
10.038927000000001,-3.193116,-0.7324539000000001
10.038927000000001,-3.193116,-0.7324539000000001
10.038927000000001,-3.193116,-0.7324539000000001
8.822957,-3.518651,0.062234644000000006
8.822957,-3.518651,0.062234644000000006
8.822957,-3.518651,0.062234644000000006
8.822957,-3.518651,0.062234644000000006
9.110194,-4.916537,-0.7994758000000001
9.110194,-4.916537,-0.7994758000000001
9.110194,-4.916537,-0.7994758000000001
9.110194,-4.916537,-0.7994758000000001
9.091045,-3.6239712,0.22500217
9.091045,-3.6239712,0.22500217
9.091045,-3.6239712,0.22500217
9.091045,-3.6239712,0.22500217
9.339984,-3.5378,0.043085523
9.339984,-3.5378,0.043085523
9.339984,-3.5378,0.043085523
9.244238000000001,-2.6856642,0.30159867
9.244238000000001,-2.6856642,0.30159867
9.244238000000001,-2.6856642,0.30159867
9.244238000000001,-2.6856642,0.30159867
9.445304,-3.078221,0.23457673
9.445304,-3.078221,0.23457673
9.445304,-3.078221,0.23457673
9.445304,-3.078221,0.23457673
9.464453,-3.039923,0.45479164
9.464453,-3.039923,0.45479164
9.464453,-3.039923,0.45479164
9.464453,-3.039923,0.45479164
9.569773,-3.5378,0.37819514
9.569773,-3.5378,0.37819514
9.569773,-3.5378,0.37819514
9.569773,-3.5378,0.37819514
9.158066999999999,-3.5090763999999997,0.18670394
9.158066999999999,-3.5090763999999997,0.18670394
9.158066999999999,-3.5090763999999997,0.18670394
9.158066999999999,-3.5090763999999997,0.18670394
9.550624000000001,-3.1739669999999998,0.10053288
9.550624000000001,-3.1739669999999998,0.10053288
9.550624000000001,-3.1739669999999998,0.10053288
9.550624000000001,-3.1739669999999998,0.10053288
9.828286,-3.231414,0.22500217
9.828286,-3.231414,0.22500217
9.828286,-3.231414,0.22500217
9.828286,-3.231414,0.22500217
9.454879,-3.4420545,0.110107444
9.454879,-3.4420545,0.110107444
9.454879,-3.4420545,0.110107444
9.454879,-3.4420545,0.110107444
9.41658,-3.2218397000000003,0.043085523
9.41658,-3.2218397000000003,0.043085523
9.41658,-3.2218397000000003,0.043085523
9.435728999999998,-3.4707782,0.14840569
9.435728999999998,-3.4707782,0.14840569
9.435728999999998,-3.4707782,0.14840569
9.435728999999998,-3.4707782,0.14840569
9.397431,-3.2601378,0.2441513
9.397431,-3.2601378,0.2441513
9.397431,-3.2601378,0.2441513
9.397431,-3.2601378,0.2441513
9.502751,-3.2601378,0.10053288
9.502751,-3.2601378,0.10053288
9.502751,-3.2601378,0.10053288
9.502751,-3.2601378,0.10053288
9.502751,-3.2218397000000003,0.15798025
9.502751,-3.2218397000000003,0.15798025
9.502751,-3.2218397000000003,0.15798025
9.502751,-3.2218397000000003,0.15798025
9.54105,-3.193116,0.3398969
9.54105,-3.193116,0.3398969
9.54105,-3.193116,0.3398969
9.368708,-3.1739669999999998,0.23457673
9.368708,-3.1739669999999998,0.23457673
9.368708,-3.1739669999999998,0.23457673
9.368708,-3.1739669999999998,0.23457673
9.368708,-3.1739669999999998,0.23457673
9.579348,-3.4995019999999997,0.44521707
9.579348,-3.4995019999999997,0.44521707
9.579348,-3.4995019999999997,0.44521707
9.435728999999998,-3.3080106,0.37819514
9.435728999999998,-3.3080106,0.37819514
9.435728999999998,-3.3080106,0.37819514
9.435728999999998,-3.3080106,0.37819514
9.474028,-3.1739669999999998,0.26330042
9.474028,-3.1739669999999998,0.26330042
9.474028,-3.1739669999999998,0.26330042
9.474028,-3.1739669999999998,0.26330042
9.502751,-3.3367343000000003,0.34947145
9.502751,-3.3367343000000003,0.34947145
9.502751,-3.3367343000000003,0.34947145
9.502751,-3.3367343000000003,0.34947145
9.502751,-3.3367343000000003,0.34947145
9.502751,-3.3367343000000003,0.34947145
9.502751,-3.3367343000000003,0.34947145
9.474028,-3.2888615,0.37819514
9.474028,-3.2888615,0.37819514
9.474028,-3.2888615,0.37819514
9.474028,-3.2888615,0.37819514
9.435728999999998,-3.4803526,0.5505372
9.435728999999998,-3.4803526,0.5505372
9.435728999999998,-3.4803526,0.5505372
9.435728999999998,-3.4803526,0.5505372
9.435728999999998,-3.3080106,0.512239
9.435728999999998,-3.3080106,0.512239
9.435728999999998,-3.3080106,0.512239
9.435728999999998,-3.3080106,0.512239
9.550624000000001,-3.4707782,0.5218136
9.550624000000001,-3.4707782,0.5218136
9.550624000000001,-3.4707782,0.5218136
9.550624000000001,-3.4707782,0.5218136
9.349558,-3.2697124,0.6271336999999999
9.349558,-3.2697124,0.6271336999999999
9.349558,-3.2697124,0.6271336999999999
9.349558,-3.2697124,0.6271336999999999
9.474028,-3.2026904,0.56011176
9.474028,-3.2026904,0.56011176
9.474028,-3.2026904,0.56011176
9.454879,-3.1548176,0.56968635
9.454879,-3.1548176,0.56968635
9.454879,-3.1548176,0.56968635
9.454879,-3.1548176,0.56968635
9.454879,-3.1548176,0.56968635
9.215514,-3.451629,0.6079846
9.215514,-3.451629,0.6079846
9.215514,-3.451629,0.6079846
9.426155,-3.3175852,0.5792609000000001
9.426155,-3.3175852,0.5792609000000001
9.426155,-3.3175852,0.5792609000000001
9.426155,-3.3175852,0.5792609000000001
9.292110000000001,-3.451629,0.665432
9.292110000000001,-3.451629,0.665432
9.292110000000001,-3.451629,0.665432
9.292110000000001,-3.451629,0.665432
9.493176,-3.7197167999999996,0.5218136
9.493176,-3.7197167999999996,0.5218136
9.493176,-3.7197167999999996,0.5218136
9.493176,-3.7197167999999996,0.5218136
9.560199,-3.2505634,0.6558574
9.560199,-3.2505634,0.6558574
9.560199,-3.2505634,0.6558574
9.560199,-3.2505634,0.6558574
9.397431,-3.1548176,0.56011176
9.397431,-3.1548176,0.56011176
9.397431,-3.1548176,0.56011176
9.397431,-3.1548176,0.56011176
9.3878565,-3.4133307999999998,0.5218136
9.3878565,-3.4133307999999998,0.5218136
9.3878565,-3.4133307999999998,0.5218136
9.3878565,-3.4133307999999998,0.5218136
9.454879,-3.4420545,0.59841
9.454879,-3.4420545,0.59841
9.454879,-3.4420545,0.59841
9.407005,-3.4037561000000003,0.6558574
9.407005,-3.4037561000000003,0.6558574
9.407005,-3.4037561000000003,0.6558574
9.407005,-3.4037561000000003,0.6558574
9.407005,-3.4037561000000003,0.6558574
9.474028,-3.4133307999999998,0.5313880999999999
9.474028,-3.4133307999999998,0.5313880999999999
9.474028,-3.4133307999999998,0.5313880999999999
9.330409,-3.384607,0.59841
9.330409,-3.384607,0.59841
9.330409,-3.384607,0.59841
9.330409,-3.384607,0.59841
9.320834,-3.8154623999999995,0.8186249
9.320834,-3.8154623999999995,0.8186249
9.320834,-3.8154623999999995,0.8186249
9.320834,-3.8154623999999995,0.8186249
9.368708,-3.451629,0.78032666
9.368708,-3.451629,0.78032666
9.368708,-3.451629,0.78032666
9.368708,-3.451629,0.78032666
9.483603,-3.1069447999999995,0.61755913
9.483603,-3.1069447999999995,0.61755913
9.483603,-3.1069447999999995,0.61755913
9.483603,-3.1069447999999995,0.61755913
9.474028,-3.3558834,1.1345854
9.474028,-3.3558834,1.1345854
9.474028,-3.3558834,1.1345854
9.474028,-3.3558834,1.1345854
9.2825365,-3.7580150000000003,1.1345854
9.2825365,-3.7580150000000003,1.1345854
9.2825365,-3.7580150000000003,1.1345854
9.2825365,-3.7580150000000003,1.1345854
9.435728999999998,-4.7441945,2.7048132000000003
9.435728999999998,-4.7441945,2.7048132000000003
9.435728999999998,-4.7441945,2.7048132000000003
13.753855999999999,-12.930444,8.200611
13.753855999999999,-12.930444,8.200611
13.753855999999999,-12.930444,8.200611
13.753855999999999,-12.930444,8.200611
17.37304,-19.029438,3.384607
17.37304,-19.029438,3.384607
17.37304,-19.029438,3.384607
17.37304,-19.029438,3.384607
13.638962,-13.121935,-3.8154623999999995
13.638962,-13.121935,-3.8154623999999995
13.638962,-13.121935,-3.8154623999999995
13.638962,-13.121935,-3.8154623999999995
7.319751299999999,-3.9782297999999994,-4.236743
7.319751299999999,-3.9782297999999994,-4.236743
7.319751299999999,-3.9782297999999994,-4.236743
7.319751299999999,-3.9782297999999994,-4.236743
3.9590807,0.512239,-0.6750065
3.9590807,0.512239,-0.6750065
3.9590807,0.512239,-0.6750065
3.9590807,0.512239,-0.6750065
1.3069274,4.0069537,3.0111992
1.3069274,4.0069537,3.0111992
1.3069274,4.0069537,3.0111992
0.13883112,3.1643922000000004,4.5527034
0.13883112,3.1643922000000004,4.5527034
0.13883112,3.1643922000000004,4.5527034
0.13883112,3.1643922000000004,4.5527034
0.36862057,5.960164,5.28037
0.36862057,5.960164,5.28037
0.36862057,5.960164,5.28037
0.36862057,5.960164,5.28037
1.5079931999999998,4.246317400000001,6.486765
1.5079931999999998,4.246317400000001,6.486765
1.5079931999999998,4.246317400000001,6.486765
1.5079931999999998,4.246317400000001,6.486765
2.4654493,4.610151,8.047417999999999
2.4654493,4.610151,8.047417999999999
11.867668,-8.736787,5.289944599999999
10.699572,-7.6740103,2.9250283
10.699572,-7.6740103,2.9250283
10.699572,-7.6740103,2.9250283
10.699572,-7.6740103,2.9250283
9.569773,-7.0995364,1.4409714
9.569773,-7.0995364,1.4409714
9.569773,-7.0995364,1.4409714
9.569773,-7.0995364,1.4409714
9.569773,-7.0995364,1.4409714
9.569773,-7.0995364,1.4409714
9.569773,-7.0995364,1.4409714
8.430401,-5.9697385,-0.64628285
8.430401,-5.9697385,-0.64628285
8.430401,-5.9697385,-0.64628285
8.430401,-5.9697385,-0.64628285
8.909127999999999,-5.1176023,0.043085523
8.909127999999999,-5.1176023,0.043085523
8.909127999999999,-5.1176023,0.043085523
8.909127999999999,-5.1176023,0.043085523
9.359133,-3.7005677,0.99096704
9.359133,-3.7005677,0.99096704
9.359133,-3.7005677,0.99096704
9.359133,-3.7005677,0.99096704
8.937852000000001,-4.7058964,0.46436617
8.937852000000001,-4.7058964,0.46436617
8.937852000000001,-4.7058964,0.46436617
8.937852000000001,-4.7058964,0.46436617
8.937852000000001,-5.0122824,-0.17712937
8.937852000000001,-5.0122824,-0.17712937
8.937852000000001,-5.0122824,-0.17712937
8.966576,-4.811217,0.14840569
8.966576,-4.811217,0.14840569
8.966576,-4.811217,0.14840569
8.966576,-4.811217,0.14840569
8.813383,-4.504830999999999,0.28244954
8.813383,-4.504830999999999,0.28244954
8.813383,-4.504830999999999,0.28244954
8.813383,-4.504830999999999,0.28244954
8.937852000000001,-4.409085299999999,0.3111732
8.937852000000001,-4.409085299999999,0.3111732
8.937852000000001,-4.409085299999999,0.3111732
8.937852000000001,-4.409085299999999,0.3111732
8.966576,-4.6005764000000005,0.33032233
8.966576,-4.6005764000000005,0.33032233
8.966576,-4.6005764000000005,0.33032233
8.966576,-4.6005764000000005,0.33032233
8.976150500000001,-4.5144053,0.3877697
8.976150500000001,-4.5144053,0.3877697
8.976150500000001,-4.5144053,0.3877697
8.976150500000001,-4.5144053,0.3877697
9.091045,-4.4473834000000005,0.28244954
9.091045,-4.4473834000000005,0.28244954
9.091045,-4.4473834000000005,0.28244954
9.091045,-4.4473834000000005,0.28244954
8.947427000000001,-4.428234,0.09095833
8.947427000000001,-4.428234,0.09095833
8.947427000000001,-4.428234,0.09095833
8.937852000000001,-4.045252,0.23457673
8.937852000000001,-4.045252,0.23457673
8.937852000000001,-4.045252,0.23457673
8.937852000000001,-4.045252,0.23457673
8.995299000000001,-4.322914,0.6271336999999999
8.995299000000001,-4.322914,0.6271336999999999
8.995299000000001,-4.322914,0.6271336999999999
8.995299000000001,-4.322914,0.6271336999999999
8.985725,-4.456958,0.512239
8.985725,-4.456958,0.512239
8.985725,-4.456958,0.512239
8.985725,-4.456958,0.512239
9.043172,-4.5144053,0.50266445
9.043172,-4.5144053,0.50266445
9.043172,-4.5144053,0.50266445
9.043172,-4.5144053,0.50266445
9.014449,-4.3324885,0.45479164
9.014449,-4.3324885,0.45479164
9.014449,-4.3324885,0.45479164
9.014449,-4.3324885,0.45479164
9.043172,-4.275041000000001,0.512239
9.043172,-4.275041000000001,0.512239
9.043172,-4.275041000000001,0.512239
8.966576,-4.763344,0.665432
8.966576,-4.763344,0.665432
8.966576,-4.763344,0.665432
8.966576,-4.763344,0.665432
8.966576,-4.763344,0.665432
8.813383,-4.294190400000001,0.50266445
8.813383,-4.294190400000001,0.50266445
8.813383,-4.294190400000001,0.50266445
9.234664,-4.1888704,0.359046
9.234664,-4.1888704,0.359046
9.234664,-4.1888704,0.359046
9.234664,-4.1888704,0.359046
9.234664,-4.3133397,0.5505372
9.234664,-4.3133397,0.5505372
9.234664,-4.3133397,0.5505372
9.234664,-4.3133397,0.5505372
8.909127999999999,-4.016528,0.39734426
8.909127999999999,-4.016528,0.39734426
8.909127999999999,-4.016528,0.39734426
8.909127999999999,-4.016528,0.39734426
8.976150500000001,-4.1122737,0.7420284
8.976150500000001,-4.1122737,0.7420284
8.976150500000001,-4.1122737,0.7420284
8.976150500000001,-4.1122737,0.7420284
8.995299000000001,-4.1792955,0.665432
8.995299000000001,-4.1792955,0.665432
8.995299000000001,-4.1792955,0.665432
8.995299000000001,-4.1792955,0.665432
9.004874000000001,-4.5910015,0.8186249
9.004874000000001,-4.5910015,0.8186249
9.004874000000001,-4.5910015,0.8186249
9.004874000000001,-4.5910015,0.8186249
9.071896,-4.5622783,0.71330476
9.071896,-4.5622783,0.71330476
9.071896,-4.5622783,0.71330476
9.138917999999999,-4.0356774,0.7324539000000001
9.138917999999999,-4.0356774,0.7324539000000001
9.138917999999999,-4.0356774,0.7324539000000001
9.138917999999999,-4.0356774,0.7324539000000001
9.138917999999999,-4.0356774,0.7324539000000001
8.947427000000001,-4.0644007,0.71330476
8.947427000000001,-4.0644007,0.71330476
8.947427000000001,-4.0644007,0.71330476
9.043172,-4.2271686,0.9718179
9.043172,-4.2271686,0.9718179
9.043172,-4.2271686,0.9718179
9.043172,-4.2271686,0.9718179
9.062322,-4.466532,0.751603
9.062322,-4.466532,0.751603
9.062322,-4.466532,0.751603
9.062322,-4.466532,0.751603
8.957002000000001,-4.0548263,0.92394507
8.957002000000001,-4.0548263,0.92394507
8.957002000000001,-4.0548263,0.92394507
8.957002000000001,-4.0548263,0.92394507
8.870830999999999,-4.2175937,0.8952214
8.870830999999999,-4.2175937,0.8952214
8.870830999999999,-4.2175937,0.8952214
8.870830999999999,-4.2175937,0.8952214
9.091045,-4.9739842,0.99096704
9.091045,-4.9739842,0.99096704
9.091045,-4.9739842,0.99096704
9.091045,-4.9739842,0.99096704
9.004874000000001,-4.6388745,0.8856468000000001
9.004874000000001,-4.6388745,0.8856468000000001
9.004874000000001,-4.6388745,0.8856468000000001
9.004874000000001,-4.6388745,0.8856468000000001
8.755936,-4.3612123,0.7420284
8.755936,-4.3612123,0.7420284
8.755936,-4.3612123,0.7420284
8.765511,-4.342063,0.85692316
8.765511,-4.342063,0.85692316
8.765511,-4.342063,0.85692316
8.765511,-4.342063,0.85692316
8.909127999999999,-4.6867475999999995,0.8952214
8.909127999999999,-4.6867475999999995,0.8952214
8.909127999999999,-4.6867475999999995,0.8952214
8.909127999999999,-4.6867475999999995,0.8952214
9.052747,-4.3995104000000005,0.83777404
9.052747,-4.3995104000000005,0.83777404
9.052747,-4.3995104000000005,0.83777404
9.052747,-4.3995104000000005,0.83777404
9.100619,-4.255892299999999,0.7324539000000001
9.100619,-4.255892299999999,0.7324539000000001
9.100619,-4.255892299999999,0.7324539000000001
9.100619,-4.255892299999999,0.7324539000000001
9.033598,-4.437809,0.77075213
9.033598,-4.437809,0.77075213
9.033598,-4.437809,0.77075213
9.033598,-4.437809,0.77075213
8.985725,-4.6675982000000005,0.91437054
8.985725,-4.6675982000000005,0.91437054
8.985725,-4.6675982000000005,0.91437054
8.851681,-4.294190400000001,0.8186249
8.851681,-4.294190400000001,0.8186249
8.851681,-4.294190400000001,0.8186249
8.851681,-4.294190400000001,0.8186249
8.784659,-4.255892299999999,0.8090504
8.784659,-4.255892299999999,0.8090504
8.784659,-4.255892299999999,0.8090504
8.784659,-4.255892299999999,0.8090504
8.755936,-4.4952559999999995,0.92394507
8.755936,-4.4952559999999995,0.92394507
8.755936,-4.4952559999999995,0.92394507
8.755936,-4.4952559999999995,0.92394507
9.091045,-4.8303657,1.1154363
9.091045,-4.8303657,1.1154363
9.091045,-4.8303657,1.1154363
9.091045,-4.8303657,1.1154363
8.985725,-4.169721,0.85692316
8.985725,-4.169721,0.85692316
8.985725,-4.169721,0.85692316
8.985725,-4.169721,0.85692316
8.995299000000001,-3.9878044000000004,0.8090504
8.995299000000001,-3.9878044000000004,0.8090504
8.995299000000001,-3.9878044000000004,0.8090504
8.995299000000001,-3.9878044000000004,0.8090504
9.033598,-4.5239797,0.76117754
9.033598,-4.5239797,0.76117754
9.033598,-4.5239797,0.76117754
8.928278,-4.3995104000000005,0.8281995000000001
8.928278,-4.3995104000000005,0.8281995000000001
8.928278,-4.3995104000000005,0.8281995000000001
8.928278,-4.3995104000000005,0.8281995000000001
8.928278,-4.3995104000000005,0.8281995000000001
8.928278,-4.102699299999999,0.78032666
8.928278,-4.102699299999999,0.78032666
8.928278,-4.102699299999999,0.78032666
8.966576,-4.504830999999999,0.8952214
8.966576,-4.504830999999999,0.8952214
8.966576,-4.504830999999999,0.8952214
8.966576,-4.504830999999999,0.8952214
8.995299000000001,-4.2654667,1.0579889
8.995299000000001,-4.2654667,1.0579889
8.995299000000001,-4.2654667,1.0579889
8.995299000000001,-4.2654667,1.0579889
9.014449,-4.255892299999999,0.9526688
9.014449,-4.255892299999999,0.9526688
9.014449,-4.255892299999999,0.9526688
9.014449,-4.255892299999999,0.9526688
8.928278,-4.1888704,0.8952214
8.928278,-4.1888704,0.8952214
8.928278,-4.1888704,0.8952214
8.928278,-4.1888704,0.8952214
8.765511,-4.255892299999999,1.1058618
8.765511,-4.255892299999999,1.1058618
8.765511,-4.255892299999999,1.1058618
8.765511,-4.255892299999999,1.1058618
8.784659,-4.150572,0.8952214
8.784659,-4.150572,0.8952214
8.784659,-4.150572,0.8952214
8.784659,-4.150572,0.8952214
8.55487,-3.8920587999999996,0.93351966
8.55487,-3.8920587999999996,0.93351966
8.55487,-3.8920587999999996,0.93351966
7.7123084,-5.031431700000001,2.8197080000000003
7.7123084,-5.031431700000001,2.8197080000000003
7.7123084,-5.031431700000001,2.8197080000000003
7.7123084,-5.031431700000001,2.8197080000000003
7.7123084,-5.031431700000001,2.8197080000000003
6.304848000000001,-8.535721,4.8878129999999995
6.304848000000001,-8.535721,4.8878129999999995
6.304848000000001,-8.535721,4.8878129999999995
8.66019,-14.175137,3.4707782
8.66019,-14.175137,3.4707782
8.66019,-14.175137,3.4707782
8.66019,-14.175137,3.4707782
7.281453,-12.815549,2.5994933
7.281453,-12.815549,2.5994933
7.281453,-12.815549,2.5994933
7.281453,-12.815549,2.5994933
7.300602400000001,-9.196365,0.8760723
7.300602400000001,-9.196365,0.8760723
7.300602400000001,-9.196365,0.8760723
7.300602400000001,-9.196365,0.8760723
8.736787,-4.7920675,-1.1250108
8.736787,-4.7920675,-1.1250108
8.736787,-4.7920675,-1.1250108
8.736787,-4.7920675,-1.1250108
9.924032,-1.9196993000000002,-4.7058964
9.924032,-1.9196993000000002,-4.7058964
9.924032,-1.9196993000000002,-4.7058964
9.924032,-1.9196993000000002,-4.7058964
8.34423,0.30159867,-4.782493
8.34423,0.30159867,-4.782493
8.34423,0.30159867,-4.782493
10.689997,1.7282081999999999,-3.5952474999999997
10.689997,1.7282081999999999,-3.5952474999999997
10.689997,1.7282081999999999,-3.5952474999999997
10.689997,1.7282081999999999,-3.5952474999999997
19.460295000000002,-1.0867126,-6.975067
19.460295000000002,-1.0867126,-6.975067
19.460295000000002,-1.0867126,-6.975067
19.460295000000002,-1.0867126,-6.975067
19.594337,-10.527229,-3.518651
19.594337,-10.527229,-3.518651
19.594337,-10.527229,-3.518651
19.594337,-10.527229,-3.518651
19.249653,-19.594337,2.972901
19.249653,-19.594337,2.972901
19.249653,-19.594337,2.972901
19.249653,-19.594337,2.972901
5.6825019999999995,-17.794321,2.9920502
5.6825019999999995,-17.794321,2.9920502
5.6825019999999995,-17.794321,2.9920502
5.6825019999999995,-17.794321,2.9920502
-12.834699,-15.257062,-1.1633091
-12.834699,-15.257062,-1.1633091
-12.834699,-15.257062,-1.1633091
-12.834699,-15.257062,-1.1633091
-15.793238,-18.818798,-0.110107444
-15.793238,-18.818798,-0.110107444
-15.793238,-18.818798,-0.110107444
9.5219,-19.594337,-0.3111732
9.5219,-19.594337,-0.3111732
9.5219,-19.594337,-0.3111732
9.5219,-19.594337,-0.3111732
9.5219,-19.594337,-0.3111732
19.594337,-19.57519,-1.8909756999999998
19.594337,-19.57519,-1.8909756999999998
19.594337,-19.57519,-1.8909756999999998
19.508167,-18.349646,0.3111732
19.508167,-18.349646,0.3111732
19.508167,-18.349646,0.3111732
19.508167,-18.349646,0.3111732
19.594337,5.2133484,-12.748528
19.594337,5.2133484,-12.748528
19.594337,5.2133484,-12.748528
19.594337,5.2133484,-12.748528
19.594337,19.603912,-19.603912
19.594337,19.603912,-19.603912
19.594337,19.603912,-19.603912
19.594337,19.603912,-19.603912
19.594337,5.787822,-12.882571
19.594337,5.787822,-12.882571
19.594337,5.787822,-12.882571
19.594337,5.787822,-12.882571
19.594337,-19.594337,-12.825124
19.594337,-19.594337,-12.825124
19.594337,-19.594337,-12.825124
16.6358,-19.594337,-0.03351096
16.6358,-19.594337,-0.03351096
16.6358,-19.594337,-0.03351096
16.6358,-19.594337,-0.03351096
16.6358,-19.594337,-0.03351096
-7.156984,-17.334742000000002,5.38569
-7.156984,-17.334742000000002,5.38569
-7.156984,-17.334742000000002,5.38569
-15.9177065,-10.536804,5.9314404000000005
-15.9177065,-10.536804,5.9314404000000005
-15.9177065,-10.536804,5.9314404000000005
-15.9177065,-10.536804,5.9314404000000005
-16.099623,-15.5060005,2.408002
-16.099623,-15.5060005,2.408002
-16.099623,-15.5060005,2.408002
-16.099623,-15.5060005,2.408002
6.2378263,-19.594337,0.8952214
6.2378263,-19.594337,0.8952214
6.2378263,-19.594337,0.8952214
6.2378263,-19.594337,0.8952214
19.594337,-19.565615,0.26330042
19.594337,-19.565615,0.26330042
19.594337,-19.565615,0.26330042
19.594337,-19.565615,0.26330042
19.297527,-10.441058,-6.1899533
19.297527,-10.441058,-6.1899533
19.297527,-10.441058,-6.1899533
19.297527,-10.441058,-6.1899533
18.790075,13.016615,-19.20178
18.790075,13.016615,-19.20178
18.790075,13.016615,-19.20178
18.790075,13.016615,-19.20178
19.13476,17.593254,-15.180466000000001
19.13476,17.593254,-15.180466000000001
19.13476,17.593254,-15.180466000000001
19.594337,1.3356511999999998,-8.382527
19.594337,1.3356511999999998,-8.382527
19.594337,1.3356511999999998,-8.382527
19.594337,1.3356511999999998,-8.382527
19.594337,-17.03793,-8.21976
19.594337,-17.03793,-8.21976
19.594337,-17.03793,-8.21976
19.594337,-17.03793,-8.21976
19.479443,-19.594337,-19.603912
19.479443,-19.594337,-19.603912
19.479443,-19.594337,-19.603912
19.479443,-19.594337,-19.603912
3.2792869,-17.851768,-10.785743
3.2792869,-17.851768,-10.785743
3.2792869,-17.851768,-10.785743
3.2792869,-17.851768,-10.785743
-16.702820000000003,-13.677259,-6.3527207
-16.702820000000003,-13.677259,-6.3527207
-16.702820000000003,-13.677259,-6.3527207
-16.702820000000003,-13.677259,-6.3527207
-18.53156,-17.507084,-14.32833
-18.53156,-17.507084,-14.32833
-18.53156,-17.507084,-14.32833
-18.53156,-17.507084,-14.32833
2.4558747000000003,-19.594337,-19.603912
2.4558747000000003,-19.594337,-19.603912
2.4558747000000003,-19.594337,-19.603912
2.4558747000000003,-19.594337,-19.603912
19.594337,-19.565615,-19.603912
19.594337,-19.565615,-19.603912
19.594337,-19.565615,-19.603912
19.594337,-8.32508,-13.99322
19.594337,-8.32508,-13.99322
19.594337,-8.32508,-13.99322
19.594337,-8.32508,-13.99322
14.66344,15.170891000000001,-11.570856
14.66344,15.170891000000001,-11.570856
14.66344,15.170891000000001,-11.570856
14.66344,15.170891000000001,-11.570856
12.968742,19.603912,-15.113443
12.968742,19.603912,-15.113443
12.968742,19.603912,-15.113443
12.968742,19.603912,-15.113443
19.594337,9.0814705,-15.266637
19.594337,9.0814705,-15.266637
19.594337,9.0814705,-15.266637
19.594337,9.0814705,-15.266637
19.584763,-19.594337,-16.607075
19.584763,-19.594337,-16.607075
19.584763,-19.594337,-16.607075
19.584763,-19.594337,-16.607075
8.909127999999999,-19.594337,-8.602742
8.909127999999999,-19.594337,-8.602742
8.909127999999999,-19.594337,-8.602742
8.909127999999999,-19.594337,-8.602742
-8.401677000000001,-11.590005999999999,4.0261025
-8.401677000000001,-11.590005999999999,4.0261025
-8.401677000000001,-11.590005999999999,4.0261025
-9.655944,-4.5144053,4.9835587
-9.655944,-4.5144053,4.9835587
-9.655944,-4.5144053,4.9835587
-9.655944,-4.5144053,4.9835587
-9.655944,-4.5144053,4.9835587
-17.641129,-6.831449,2.9633265
-17.641129,-6.831449,2.9633265
-17.641129,-6.831449,2.9633265
-2.7909843999999997,-19.594337,-6.391019
-2.7909843999999997,-19.594337,-6.391019
-2.7909843999999997,-19.594337,-6.391019
-2.7909843999999997,-19.594337,-6.391019
19.594337,-19.594337,-9.636795
19.594337,-19.594337,-9.636795
19.594337,-19.594337,-9.636795
19.594337,-19.594337,-9.636795
19.374123,-10.125097,-6.639958
19.374123,-10.125097,-6.639958
19.374123,-10.125097,-6.639958
19.374123,-10.125097,-6.639958
9.75169,10.728295,-10.958084
9.75169,10.728295,-10.958084
9.75169,10.728295,-10.958084
9.75169,10.728295,-10.958084
12.0400095,19.603912,-17.842194
12.0400095,19.603912,-17.842194
12.0400095,19.603912,-17.842194
12.0400095,19.603912,-17.842194
19.594337,12.020861,-16.434732
19.594337,12.020861,-16.434732
19.594337,12.020861,-16.434732
19.594337,12.020861,-16.434732
19.584763,-17.37304,-10.479357
19.584763,-17.37304,-10.479357
19.584763,-17.37304,-10.479357
17.334742000000002,-19.594337,-14.021944
17.334742000000002,-19.594337,-14.021944
17.334742000000002,-19.594337,-14.021944
17.334742000000002,-19.594337,-14.021944
-2.2931072999999995,-14.232584,-2.494173
-2.2931072999999995,-14.232584,-2.494173
-2.2931072999999995,-14.232584,-2.494173
-2.2931072999999995,-14.232584,-2.494173
-13.591088000000001,-13.830453,-1.383524
-13.591088000000001,-13.830453,-1.383524
-13.591088000000001,-13.830453,-1.383524
-13.591088000000001,-13.830453,-1.383524
-19.383698000000003,-15.582597,-2.5803439999999997
-19.383698000000003,-15.582597,-2.5803439999999997
-19.383698000000003,-15.582597,-2.5803439999999997
-19.383698000000003,-15.582597,-2.5803439999999997
-2.7431116,-19.594337,-8.832532
-2.7431116,-19.594337,-8.832532
-2.7431116,-19.594337,-8.832532
-2.7431116,-19.594337,-8.832532
19.594337,-19.57519,-11.992137
19.594337,-19.57519,-11.992137
19.594337,-19.57519,-11.992137
19.594337,-19.57519,-11.992137
19.594337,-11.465536,-5.998462
19.594337,-11.465536,-5.998462
19.594337,-11.465536,-5.998462
13.916623999999999,11.455961,-14.826207
13.916623999999999,11.455961,-14.826207
13.916623999999999,11.455961,-14.826207
13.916623999999999,11.455961,-14.826207
15.371957,19.603912,-15.113443
15.371957,19.603912,-15.113443
15.371957,19.603912,-15.113443
15.371957,19.603912,-15.113443
19.594337,10.172971,-11.580430999999999
19.594337,10.172971,-11.580430999999999
19.594337,10.172971,-11.580430999999999
19.594337,10.172971,-11.580430999999999
19.57519,-12.643207,-5.5963306
19.57519,-12.643207,-5.5963306
19.57519,-12.643207,-5.5963306
19.57519,-12.643207,-5.5963306
18.751776,-19.594337,-5.6633525
18.751776,-19.594337,-5.6633525
18.751776,-19.594337,-5.6633525
18.751776,-19.594337,-5.6633525
-0.37819514,-17.890066,-1.8909756999999998
-0.37819514,-17.890066,-1.8909756999999998
-0.37819514,-17.890066,-1.8909756999999998
-0.37819514,-17.890066,-1.8909756999999998
-14.242159,-11.503835,2.561195
-14.242159,-11.503835,2.561195
-14.242159,-11.503835,2.561195
-14.242159,-11.503835,2.561195
-19.498592000000002,-12.422992,0.6845810999999999
-19.498592000000002,-12.422992,0.6845810999999999
-19.498592000000002,-12.422992,0.6845810999999999
-7.0037910000000005,-19.594337,-9.914457
-7.0037910000000005,-19.594337,-9.914457
-7.0037910000000005,-19.594337,-9.914457
-7.0037910000000005,-19.594337,-9.914457
18.014536,-19.594337,-16.023027
18.014536,-19.594337,-16.023027
18.014536,-19.594337,-16.023027
18.014536,-19.594337,-16.023027
19.594337,-13.792154,-8.382527
19.594337,-13.792154,-8.382527
19.594337,-13.792154,-8.382527
19.594337,-13.792154,-8.382527
13.792154,6.611234,-10.450633
13.792154,6.611234,-10.450633
13.792154,6.611234,-10.450633
13.792154,6.611234,-10.450633
12.394267999999999,19.584763,-10.29744
12.394267999999999,19.584763,-10.29744
12.394267999999999,19.584763,-10.29744
12.394267999999999,19.584763,-10.29744
18.742203,12.260224000000001,-10.852764
18.742203,12.260224000000001,-10.852764
18.742203,12.260224000000001,-10.852764
18.742203,12.260224000000001,-10.852764
19.594337,-7.626137299999999,-10.479357
19.594337,-7.626137299999999,-10.479357
19.594337,-7.626137299999999,-10.479357
18.244326,-19.594337,-6.745278
18.244326,-19.594337,-6.745278
18.244326,-19.594337,-6.745278
18.244326,-19.594337,-6.745278
18.244326,-19.594337,-6.745278
0.23457673,-18.206026,-0.37819514
0.23457673,-18.206026,-0.37819514
0.23457673,-18.206026,-0.37819514
-10.565528,-1.1824582000000001,6.2091026
-10.565528,-1.1824582000000001,6.2091026
-10.565528,-1.1824582000000001,6.2091026
-10.565528,-1.1824582000000001,6.2091026
-16.042175,1.8814011999999998,3.4707782
-16.042175,1.8814011999999998,3.4707782
-16.042175,1.8814011999999998,3.4707782
-16.042175,1.8814011999999998,3.4707782
-17.382614,0.062234644000000006,1.6133133999999998
-17.382614,0.062234644000000006,1.6133133999999998
-17.382614,0.062234644000000006,1.6133133999999998
-17.382614,0.062234644000000006,1.6133133999999998
4.389936,-19.412422,-3.7292912000000005
4.389936,-19.412422,-3.7292912000000005
4.389936,-19.412422,-3.7292912000000005
4.389936,-19.412422,-3.7292912000000005
19.594337,-18.656029999999998,-5.941015
19.594337,-18.656029999999998,-5.941015
19.594337,-18.656029999999998,-5.941015
19.594337,-18.656029999999998,-5.941015
12.001712,1.3643749,-5.7495236
12.001712,1.3643749,-5.7495236
12.001712,1.3643749,-5.7495236
12.001712,1.3643749,-5.7495236
6.936769,10.785743,-11.197449
6.936769,10.785743,-11.197449
6.936769,10.785743,-11.197449
10.852764,17.411339,-11.475111
10.852764,17.411339,-11.475111
10.852764,17.411339,-11.475111
10.852764,17.411339,-11.475111
18.809223,6.0176110000000005,-10.996383
18.809223,6.0176110000000005,-10.996383
18.809223,6.0176110000000005,-10.996383
18.809223,6.0176110000000005,-10.996383
19.594337,-19.383698000000003,-12.078308
19.594337,-19.383698000000003,-12.078308
19.594337,-19.383698000000003,-12.078308
19.594337,-19.383698000000003,-12.078308
10.287866000000001,-19.479443,-6.151655
10.287866000000001,-19.479443,-6.151655
10.287866000000001,-19.479443,-6.151655
10.287866000000001,-19.479443,-6.151655
-8.420826,-10.19212,-0.36862057
-8.420826,-10.19212,-0.36862057
-8.420826,-10.19212,-0.36862057
-8.420826,-10.19212,-0.36862057
-7.951672599999999,-6.8122997000000005,0.59841
-7.951672599999999,-6.8122997000000005,0.59841
-7.951672599999999,-6.8122997000000005,0.59841
-7.951672599999999,-6.8122997000000005,0.59841
-18.541135999999998,-9.608071,0.043085523
-18.541135999999998,-9.608071,0.043085523
-18.541135999999998,-9.608071,0.043085523
-2.2356597999999996,-19.594337,-4.342063
-2.2356597999999996,-19.594337,-4.342063
-2.2356597999999996,-19.594337,-4.342063
-2.2356597999999996,-19.594337,-4.342063
19.144333,-19.594337,-12.844273
19.144333,-19.594337,-12.844273
19.144333,-19.594337,-12.844273
19.144333,-19.594337,-12.844273
19.594337,-11.561282,-9.943181
19.594337,-11.561282,-9.943181
19.594337,-11.561282,-9.943181
19.594337,-11.561282,-9.943181
13.945347,1.4984187,-12.35597
13.945347,1.4984187,-12.35597
13.945347,1.4984187,-12.35597
13.945347,1.4984187,-12.35597
6.1995277,15.850685,-12.269799
6.1995277,15.850685,-12.269799
6.1995277,15.850685,-12.269799
6.1995277,15.850685,-12.269799
8.66019,19.603912,-11.436812
8.66019,19.603912,-11.436812
8.66019,19.603912,-11.436812
19.594337,-0.12925656,-11.838944
19.594337,-0.12925656,-11.838944
19.594337,-0.12925656,-11.838944
19.594337,-0.12925656,-11.838944
19.594337,-0.12925656,-11.838944
18.933692999999998,-19.594337,-9.31126
18.933692999999998,-19.594337,-9.31126
18.933692999999998,-19.594337,-9.31126
1.6899098999999997,-14.462373999999999,-2.4750240000000003
1.6899098999999997,-14.462373999999999,-2.4750240000000003
1.6899098999999997,-14.462373999999999,-2.4750240000000003
1.6899098999999997,-14.462373999999999,-2.4750240000000003
-14.491097,-6.113357,-2.4367256
-14.491097,-6.113357,-2.4367256
-14.491097,-6.113357,-2.4367256
-14.491097,-6.113357,-2.4367256
-12.90172,-2.8197080000000003,2.6377914000000002
-12.90172,-2.8197080000000003,2.6377914000000002
-12.90172,-2.8197080000000003,2.6377914000000002
-12.90172,-2.8197080000000003,2.6377914000000002
-10.498505999999999,-9.18679,-0.5218136
-10.498505999999999,-9.18679,-0.5218136
-10.498505999999999,-9.18679,-0.5218136
-10.498505999999999,-9.18679,-0.5218136
4.294190400000001,-19.594337,-12.767676
4.294190400000001,-19.594337,-12.767676
4.294190400000001,-19.594337,-12.767676
4.294190400000001,-19.594337,-12.767676
19.594337,-19.268803,-15.103869
19.594337,-19.268803,-15.103869
19.594337,-19.268803,-15.103869
19.594337,-19.268803,-15.103869
17.957088,3.8824842000000004,-11.896391
17.957088,3.8824842000000004,-11.896391
17.957088,3.8824842000000004,-11.896391
12.384694,19.297527,-9.531475
12.384694,19.297527,-9.531475
12.384694,19.297527,-9.531475
12.384694,19.297527,-9.531475
12.384694,19.297527,-9.531475
11.542132,14.797482999999998,-6.668680999999999
11.542132,14.797482999999998,-6.668680999999999
11.542132,14.797482999999998,-6.668680999999999
19.594337,7.693159,-10.153821
19.594337,7.693159,-10.153821
19.594337,7.693159,-10.153821
19.594337,7.693159,-10.153821
19.594337,-15.419829,-18.052834
19.594337,-15.419829,-18.052834
19.594337,-15.419829,-18.052834
19.594337,-15.419829,-18.052834
12.059159,-19.594337,-4.342063
12.059159,-19.594337,-4.342063
12.059159,-19.594337,-4.342063
12.059159,-19.594337,-4.342063
-11.274045,-8.085716,2.6377914000000002
-11.274045,-8.085716,2.6377914000000002
-11.274045,-8.085716,2.6377914000000002
-11.274045,-8.085716,2.6377914000000002
-12.528313,-5.4048395,-1.2782038
-12.528313,-5.4048395,-1.2782038
-12.528313,-5.4048395,-1.2782038
-12.528313,-5.4048395,-1.2782038
-18.732628,-15.180466000000001,-6.4197426
-18.732628,-15.180466000000001,-6.4197426
-18.732628,-15.180466000000001,-6.4197426
-18.732628,-15.180466000000001,-6.4197426
0.44521707,-19.594337,-4.294190400000001
0.44521707,-19.594337,-4.294190400000001
0.44521707,-19.594337,-4.294190400000001
19.594337,-19.527314999999998,-8.363379
19.594337,-19.527314999999998,-8.363379
19.594337,-19.527314999999998,-8.363379
19.594337,-19.527314999999998,-8.363379
19.46987,-11.063405,-6.3718699999999995
19.46987,-11.063405,-6.3718699999999995
19.46987,-11.063405,-6.3718699999999995
19.46987,-11.063405,-6.3718699999999995
15.103869,10.584677000000001,-13.447470000000001
15.103869,10.584677000000001,-13.447470000000001
15.103869,10.584677000000001,-13.447470000000001
15.103869,10.584677000000001,-13.447470000000001
14.357054000000002,19.603912,-10.488931
14.357054000000002,19.603912,-10.488931
14.357054000000002,19.603912,-10.488931
14.357054000000002,19.603912,-10.488931
19.594337,8.124015,-9.770839
19.594337,8.124015,-9.770839
19.594337,8.124015,-9.770839
19.594337,8.124015,-9.770839
19.594337,-14.998548499999998,-15.908133
19.594337,-14.998548499999998,-15.908133
19.594337,-14.998548499999998,-15.908133
16.224092000000002,-19.594337,-6.783575999999999
16.224092000000002,-19.594337,-6.783575999999999
16.224092000000002,-19.594337,-6.783575999999999
16.224092000000002,-19.594337,-6.783575999999999
16.224092000000002,-19.594337,-6.783575999999999
-6.706979799999999,-12.0400095,2.972901
-6.706979799999999,-12.0400095,2.972901
-6.706979799999999,-12.0400095,2.972901
-13.188957,-1.5654407,2.4367256
-13.188957,-1.5654407,2.4367256
-13.188957,-1.5654407,2.4367256
-13.188957,-1.5654407,2.4367256
-15.027272,-8.095291,-2.3984275
-15.027272,-8.095291,-2.3984275
-15.027272,-8.095291,-2.3984275
-15.027272,-8.095291,-2.3984275
-5.711225499999999,-17.554956,-3.930357
-5.711225499999999,-17.554956,-3.930357
-5.711225499999999,-17.554956,-3.930357
-5.711225499999999,-17.554956,-3.930357
14.720885999999998,-19.594337,-7.051664
14.720885999999998,-19.594337,-7.051664
14.720885999999998,-19.594337,-7.051664
14.720885999999998,-19.594337,-7.051664
19.594337,-13.964497,-4.849515
19.594337,-13.964497,-4.849515
19.594337,-13.964497,-4.849515
11.7049,3.7867386,-8.813383
11.7049,3.7867386,-8.813383
11.7049,3.7867386,-8.813383
11.7049,3.7867386,-8.813383
11.7049,3.7867386,-8.813383
4.131423000000001,17.650702,-9.818711
4.131423000000001,17.650702,-9.818711
4.131423000000001,17.650702,-9.818711
11.925115,13.3612995,-9.818711
11.925115,13.3612995,-9.818711
11.925115,13.3612995,-9.818711
11.925115,13.3612995,-9.818711
19.546464999999998,3.1452432,-8.976150500000001
19.546464999999998,3.1452432,-8.976150500000001
19.546464999999998,3.1452432,-8.976150500000001
19.546464999999998,3.1452432,-8.976150500000001
19.594337,-17.583681,-5.17505
19.594337,-17.583681,-5.17505
19.594337,-17.583681,-5.17505
19.594337,-17.583681,-5.17505
14.912378,-18.627308,2.800559
14.912378,-18.627308,2.800559
14.912378,-18.627308,2.800559
14.912378,-18.627308,2.800559
-2.3697037999999995,-6.0176110000000005,4.1888704
-2.3697037999999995,-6.0176110000000005,4.1888704
-2.3697037999999995,-6.0176110000000005,4.1888704
-2.3697037999999995,-6.0176110000000005,4.1888704
-6.4484663,-4.5144053,1.4218222
-6.4484663,-4.5144053,1.4218222
-6.4484663,-4.5144053,1.4218222
-6.4484663,-4.5144053,1.4218222
-18.44539,-6.2952733,-2.2069361
-18.44539,-6.2952733,-2.2069361
-18.44539,-6.2952733,-2.2069361
-6.036760299999999,-19.594337,-0.76117754
-6.036760299999999,-19.594337,-0.76117754
-6.036760299999999,-19.594337,-0.76117754
-6.036760299999999,-19.594337,-0.76117754
-6.036760299999999,-19.594337,-0.76117754
18.656029999999998,-19.594337,-1.3260766000000002
18.656029999999998,-19.594337,-1.3260766000000002
18.656029999999998,-19.594337,-1.3260766000000002
19.594337,-11.187874,-8.047417999999999
19.594337,-11.187874,-8.047417999999999
19.594337,-11.187874,-8.047417999999999
19.594337,-11.187874,-8.047417999999999
17.459211,13.725132,-14.491097
17.459211,13.725132,-14.491097
17.459211,13.725132,-14.491097
17.459211,13.725132,-14.491097
14.519820999999999,18.904970000000002,-12.528313
14.519820999999999,18.904970000000002,-12.528313
14.519820999999999,18.904970000000002,-12.528313
14.519820999999999,18.904970000000002,-12.528313
17.746449,5.586755999999999,-12.604909
17.746449,5.586755999999999,-12.604909
17.746449,5.586755999999999,-12.604909
17.746449,5.586755999999999,-12.604909
19.594337,-16.109198000000003,-10.354887
19.594337,-16.109198000000003,-10.354887
19.594337,-16.109198000000003,-10.354887
19.594337,-16.109198000000003,-10.354887
15.094295,-19.594337,-1.2303311000000001
15.094295,-19.594337,-1.2303311000000001
15.094295,-19.594337,-1.2303311000000001
-2.3314054,-12.375119,3.4420545
-2.3314054,-12.375119,3.4420545
-2.3314054,-12.375119,3.4420545
-2.3314054,-12.375119,3.4420545
-7.980396300000001,-5.883567299999999,1.3548003
-7.980396300000001,-5.883567299999999,1.3548003
-7.980396300000001,-5.883567299999999,1.3548003
-7.980396300000001,-5.883567299999999,1.3548003
-19.603912,-7.319751299999999,-6.8601727
-19.603912,-7.319751299999999,-6.8601727
-19.603912,-7.319751299999999,-6.8601727
-19.603912,-7.319751299999999,-6.8601727
-6.946343400000001,-19.383698000000003,-5.462287
-6.946343400000001,-19.383698000000003,-5.462287
-6.946343400000001,-19.383698000000003,-5.462287
-6.946343400000001,-19.383698000000003,-5.462287
19.211354999999998,-19.594337,-1.9771467
19.211354999999998,-19.594337,-1.9771467
19.211354999999998,-19.594337,-1.9771467
19.211354999999998,-19.594337,-1.9771467
19.594337,-11.398514,-3.2218397000000003
19.594337,-11.398514,-3.2218397000000003
19.594337,-11.398514,-3.2218397000000003
19.594337,-11.398514,-3.2218397000000003
11.7049,3.997379,-9.052747
11.7049,3.997379,-9.052747
11.7049,3.997379,-9.052747
8.506997,12.729378,-12.107032
8.506997,12.729378,-12.107032
8.506997,12.729378,-12.107032
8.506997,12.729378,-12.107032
8.506997,12.729378,-12.107032
16.0709,13.332576000000001,-11.628304
16.0709,13.332576000000001,-11.628304
16.0709,13.332576000000001,-11.628304
19.594337,-1.5271424,-13.188957
19.594337,-1.5271424,-13.188957
19.594337,-1.5271424,-13.188957
19.594337,-1.5271424,-13.188957
19.13476,-19.594337,-5.9218655
19.13476,-19.594337,-5.9218655
19.13476,-19.594337,-5.9218655
19.13476,-19.594337,-5.9218655
0.09095833,-16.185795000000002,0.46436617
0.09095833,-16.185795000000002,0.46436617
0.09095833,-16.185795000000002,0.46436617
0.09095833,-16.185795000000002,0.46436617
-12.2410755,-6.3718699999999995,3.8250370000000005
-12.2410755,-6.3718699999999995,3.8250370000000005
-12.2410755,-6.3718699999999995,3.8250370000000005
-12.2410755,-6.3718699999999995,3.8250370000000005
-16.453882,-5.8644185,0.5313880999999999
-16.453882,-5.8644185,0.5313880999999999
-16.453882,-5.8644185,0.5313880999999999
-12.25065,-19.192207,-3.5282254
-12.25065,-19.192207,-3.5282254
-12.25065,-19.192207,-3.5282254
-12.25065,-19.192207,-3.5282254
-12.25065,-19.192207,-3.5282254
9.502751,-19.594337,1.3643749
9.502751,-19.594337,1.3643749
9.502751,-19.594337,1.3643749
19.594337,-17.995386,-2.647366
19.594337,-17.995386,-2.647366
19.594337,-17.995386,-2.647366
19.594337,-17.995386,-2.647366
16.540052,-2.88673,-8.459125
16.540052,-2.88673,-8.459125
16.540052,-2.88673,-8.459125
16.540052,-2.88673,-8.459125
8.401677000000001,16.0709,-13.811303
8.401677000000001,16.0709,-13.811303
8.401677000000001,16.0709,-13.811303
8.401677000000001,16.0709,-13.811303
10.680422,17.37304,-11.398514
10.680422,17.37304,-11.398514
10.680422,17.37304,-11.398514
10.680422,17.37304,-11.398514
19.594337,1.3356511999999998,-10.891063
19.594337,1.3356511999999998,-10.891063
19.594337,1.3356511999999998,-10.891063
19.594337,1.3356511999999998,-10.891063
19.106035000000002,-19.594337,-5.0601554
19.106035000000002,-19.594337,-5.0601554
19.106035000000002,-19.594337,-5.0601554
19.106035000000002,-19.594337,-5.0601554
-0.23457673,-16.511329999999997,-2.9633265
-0.23457673,-16.511329999999997,-2.9633265
-0.23457673,-16.511329999999997,-2.9633265
-10.421909,-4.7058964,0.85692316
-10.421909,-4.7058964,0.85692316
-10.421909,-4.7058964,0.85692316
-10.421909,-4.7058964,0.85692316
-10.421909,-4.7058964,0.85692316
-14.108115,-6.5729356,-1.862252
-14.108115,-6.5729356,-1.862252
-14.108115,-6.5729356,-1.862252
-16.607075,-13.658110999999998,-6.3622955999999995
-16.607075,-13.658110999999998,-6.3622955999999995
-16.607075,-13.658110999999998,-6.3622955999999995
-16.607075,-13.658110999999998,-6.3622955999999995
5.2037735000000005,-19.594337,0.56968635
5.2037735000000005,-19.594337,0.56968635
5.2037735000000005,-19.594337,0.56968635
5.2037735000000005,-19.594337,0.56968635
19.594337,-18.627308,0.92394507
19.594337,-18.627308,0.92394507
19.594337,-18.627308,0.92394507
19.594337,-18.627308,0.92394507
17.679426,-1.0101161,-5.021857
17.679426,-1.0101161,-5.021857
17.679426,-1.0101161,-5.021857
11.628304,14.548545,-8.535721
11.628304,14.548545,-8.535721
11.628304,14.548545,-8.535721
11.628304,14.548545,-8.535721
