accx,accy,accz
-10.488931,-5.845269,-1.6516117
-10.488931,-5.845269,-1.6516117
-10.488931,-5.845269,-1.6516117
-10.488931,-5.845269,-1.6516117
-9.799562,-6.0559096,0.05266008
-9.799562,-6.0559096,0.05266008
-9.799562,-6.0559096,0.05266008
-9.799562,-6.0559096,0.05266008
-9.799562,-6.0559096,0.05266008
-9.75169,-3.2984362000000003,1.6707608
-9.75169,-3.2984362000000003,1.6707608
-9.75169,-3.2984362000000003,1.6707608
-9.435728999999998,-1.9962958,2.3792782000000003
-9.435728999999998,-1.9962958,2.3792782000000003
-9.435728999999998,-1.9962958,2.3792782000000003
-9.435728999999998,-1.9962958,2.3792782000000003
-9.435728999999998,-1.9962958,2.3792782000000003
-9.407005,-2.2835326,2.034594
-9.407005,-2.2835326,2.034594
-9.407005,-2.2835326,2.034594
-9.407005,-2.2835326,2.034594
-9.502751,-2.8484317999999997,1.3356511999999998
-9.502751,-2.8484317999999997,1.3356511999999998
-9.502751,-2.8484317999999997,1.3356511999999998
-9.828286,-2.2739582,1.0675635
-9.828286,-2.2739582,1.0675635
-9.828286,-2.2739582,1.0675635
-9.828286,-2.2739582,1.0675635
-9.828286,-2.2739582,1.0675635
-9.799562,-1.4313968000000001,2.0920415
-9.799562,-1.4313968000000001,2.0920415
-9.799562,-1.4313968000000001,2.0920415
-9.799562,-1.4313968000000001,2.0920415
-9.043172,-2.1973617,1.6324625
-9.043172,-2.1973617,1.6324625
-9.043172,-2.1973617,1.6324625
-9.043172,-2.1973617,1.6324625
-8.248484,-3.059072,0.665432
-8.248484,-3.059072,0.665432
-8.248484,-3.059072,0.665432
-8.248484,-3.059072,0.665432
-8.171887,-2.9633265,0.3398969
-8.171887,-2.9633265,0.3398969
-8.171887,-2.9633265,0.3398969
-8.171887,-2.9633265,0.3398969
-8.880403999999999,-2.5420458,0.8952214
-8.880403999999999,-2.5420458,0.8952214
-8.880403999999999,-2.5420458,0.8952214
-8.880403999999999,-2.5420458,0.8952214
-9.818711,-2.88673,1.0101161
-9.818711,-2.88673,1.0101161
-9.818711,-2.88673,1.0101161
-9.818711,-2.88673,1.0101161
-8.985725,-3.2792869,1.1633091
-8.985725,-3.2792869,1.1633091
-8.985725,-3.2792869,1.1633091
-8.985725,-3.2792869,1.1633091
-7.980396300000001,-2.5707695,1.5367169
-7.980396300000001,-2.5707695,1.5367169
-7.980396300000001,-2.5707695,1.5367169
-7.980396300000001,-2.5707695,1.5367169
-8.564445,-2.0920415,1.7952299999999999
-8.564445,-2.0920415,1.7952299999999999
-8.564445,-2.0920415,1.7952299999999999
-8.564445,-2.0920415,1.7952299999999999
-9.177217,-2.5994933,1.7377827000000001
-9.177217,-2.5994933,1.7377827000000001
-9.177217,-2.5994933,1.7377827000000001
-9.177217,-2.5994933,1.7377827000000001
-9.033598,-3.2409887000000004,1.469695
-9.033598,-3.2409887000000004,1.469695
-9.033598,-3.2409887000000004,1.469695
-9.033598,-3.2409887000000004,1.469695
-8.957002000000001,-3.0111992,1.3739493999999999
-8.957002000000001,-3.0111992,1.3739493999999999
-8.957002000000001,-3.0111992,1.3739493999999999
-8.957002000000001,-3.0111992,1.3739493999999999
-8.889978999999999,-2.7239625,1.5654407
-8.889978999999999,-2.7239625,1.5654407
-8.889978999999999,-2.7239625,1.5654407
-8.889978999999999,-2.7239625,1.5654407
-8.899554,-3.0111992,1.3452256999999999
-8.899554,-3.0111992,1.3452256999999999
-8.899554,-3.0111992,1.3452256999999999
-8.899554,-3.0111992,1.3452256999999999
-8.947427000000001,-2.9824755,1.1824582000000001
-8.947427000000001,-2.9824755,1.1824582000000001
-8.947427000000001,-2.9824755,1.1824582000000001
-8.947427000000001,-2.9824755,1.1824582000000001
-9.091045,-3.078221,1.1920328000000002
-9.091045,-3.078221,1.1920328000000002
-9.091045,-3.078221,1.1920328000000002
-9.091045,-3.078221,1.1920328000000002
-9.158066999999999,-3.0686467,1.2494801000000002
-9.158066999999999,-3.0686467,1.2494801000000002
-9.158066999999999,-3.0686467,1.2494801000000002
-9.158066999999999,-3.0686467,1.2494801000000002
-9.18679,-2.905879,1.469695
-9.18679,-2.905879,1.469695
-9.18679,-2.905879,1.469695
-9.18679,-2.905879,1.469695
-9.129342999999999,-2.7239625,1.5750152
-9.129342999999999,-2.7239625,1.5750152
-9.129342999999999,-2.7239625,1.5750152
-9.129342999999999,-2.7239625,1.5750152
-8.995299000000001,-2.8101335,1.2494801000000002
-8.995299000000001,-2.8101335,1.2494801000000002
-8.995299000000001,-2.8101335,1.2494801000000002
-8.995299000000001,-2.8101335,1.2494801000000002
-8.889978999999999,-2.905879,1.14416
-8.889978999999999,-2.905879,1.14416
-8.889978999999999,-2.905879,1.14416
-8.889978999999999,-2.905879,1.14416
-8.918703,-2.8771553,1.1058618
-8.918703,-2.8771553,1.1058618
-8.918703,-2.8771553,1.1058618
-8.918703,-2.8771553,1.1058618
-8.995299000000001,-2.905879,1.0962871
-8.995299000000001,-2.905879,1.0962871
-8.995299000000001,-2.905879,1.0962871
-8.995299000000001,-2.905879,1.0962871
-9.071896,-2.8771553,1.2111819
-9.071896,-2.8771553,1.2111819
-9.071896,-2.8771553,1.2111819
-9.071896,-2.8771553,1.2111819
-9.014449,-2.733537,1.4218222
-9.014449,-2.733537,1.4218222
-9.014449,-2.733537,1.4218222
-9.014449,-2.733537,1.4218222
-9.071896,-2.8101335,1.5367169
-9.071896,-2.8101335,1.5367169
-9.071896,-2.8101335,1.5367169
-9.071896,-2.8101335,1.5367169
-9.004874000000001,-2.9441773999999996,1.2973529
-9.004874000000001,-2.9441773999999996,1.2973529
-9.004874000000001,-2.9441773999999996,1.2973529
-9.004874000000001,-2.9441773999999996,1.2973529
-8.889978999999999,-2.9346027,1.2016073
-8.889978999999999,-2.9346027,1.2016073
-8.889978999999999,-2.9346027,1.2016073
-8.842107,-2.88673,1.2303311000000001
-8.842107,-2.88673,1.2303311000000001
-8.842107,-2.88673,1.2303311000000001
-8.842107,-2.88673,1.2303311000000001
-8.842107,-2.88673,1.2303311000000001
-8.889978999999999,-3.0111992,1.2782038
-8.889978999999999,-3.0111992,1.2782038
-8.889978999999999,-3.0111992,1.2782038
-8.976150500000001,-3.078221,1.3165021000000001
-8.976150500000001,-3.078221,1.3165021000000001
-8.976150500000001,-3.078221,1.3165021000000001
-8.976150500000001,-3.078221,1.3165021000000001
-8.928278,-2.9633265,1.383524
-8.928278,-2.9633265,1.383524
-8.928278,-2.9633265,1.383524
-8.928278,-2.9633265,1.383524
-8.861256,-2.8292825,1.4026731000000001
-8.861256,-2.8292825,1.4026731000000001
-8.861256,-2.8292825,1.4026731000000001
-8.861256,-2.8292825,1.4026731000000001
-8.937852000000001,-2.800559,1.4218222
-8.937852000000001,-2.800559,1.4218222
-8.937852000000001,-2.800559,1.4218222
-8.937852000000001,-2.800559,1.4218222
-9.004874000000001,-2.8963046,1.4218222
-9.004874000000001,-2.8963046,1.4218222
-9.004874000000001,-2.8963046,1.4218222
-9.004874000000001,-2.8963046,1.4218222
-8.918703,-3.078221,1.2590546999999999
-8.918703,-3.078221,1.2590546999999999
-8.918703,-3.078221,1.2590546999999999
-8.918703,-3.078221,1.2590546999999999
-8.889978999999999,-3.039923,1.2973529
-8.889978999999999,-3.039923,1.2973529
-8.889978999999999,-3.039923,1.2973529
-9.349558,-2.5228968,1.7282081999999999
-9.349558,-2.5228968,1.7282081999999999
-9.349558,-2.5228968,1.7282081999999999
-9.349558,-2.5228968,1.7282081999999999
-9.349558,-2.5228968,1.7282081999999999
-9.148492999999998,-2.5994933,1.6611862000000002
-9.148492999999998,-2.5994933,1.6611862000000002
-9.148492999999998,-2.5994933,1.6611862000000002
-9.148492999999998,-2.5994933,1.6611862000000002
-8.506997,-2.6377914000000002,1.7377827000000001
-8.506997,-2.6377914000000002,1.7377827000000001
-8.506997,-2.6377914000000002,1.7377827000000001
-8.4686985,-3.0877957,1.5271424
-8.4686985,-3.0877957,1.5271424
-8.4686985,-3.0877957,1.5271424
-8.4686985,-3.0877957,1.5271424
-8.4686985,-3.0877957,1.5271424
-9.445304,-3.4707782,1.4601203999999999
-9.445304,-3.4707782,1.4601203999999999
-9.445304,-3.4707782,1.4601203999999999
-9.445304,-3.4707782,1.4601203999999999
-8.794233,-6.1420803,-0.5888355
-8.794233,-6.1420803,-0.5888355
-8.794233,-6.1420803,-0.5888355
-7.1186857,-6.9559183,-0.40691882
-7.1186857,-6.9559183,-0.40691882
-7.1186857,-6.9559183,-0.40691882
-7.1186857,-6.9559183,-0.40691882
-7.1186857,-6.9559183,-0.40691882
-5.309094,-7.377198700000001,-1.5079931999999998
-5.309094,-7.377198700000001,-1.5079931999999998
-5.309094,-7.377198700000001,-1.5079931999999998
-5.309094,-7.377198700000001,-1.5079931999999998
-4.5335545999999995,-9.2825365,-2.8101335
-4.5335545999999995,-9.2825365,-2.8101335
-4.5335545999999995,-9.2825365,-2.8101335
-4.5335545999999995,-9.2825365,-2.8101335
-5.941015,-10.71872,-2.8580062
-5.941015,-10.71872,-2.8580062
-5.941015,-10.71872,-2.8580062
-5.941015,-10.71872,-2.8580062
-5.538883,-11.49426,-2.647366
-5.538883,-11.49426,-2.647366
-5.538883,-11.49426,-2.647366
-5.538883,-11.49426,-2.647366
-5.38569,-11.542132,-3.2888615
-5.38569,-11.542132,-3.2888615
-5.38569,-11.542132,-3.2888615
-5.38569,-11.542132,-3.2888615
-4.73462,-10.259142,-2.1303396
-4.73462,-10.259142,-2.1303396
-4.73462,-10.259142,-2.1303396
-4.0261025,-5.2037735000000005,0.05266008
-4.0261025,-5.2037735000000005,0.05266008
-4.0261025,-5.2037735000000005,0.05266008
-4.0261025,-5.2037735000000005,0.05266008
-4.0261025,-5.2037735000000005,0.05266008
-8.11444,-1.1537346000000002,1.3260766000000002
-8.11444,-1.1537346000000002,1.3260766000000002
-8.11444,-1.1537346000000002,1.3260766000000002
-13.744282,-4.1122737,3.1260939999999997
-13.744282,-4.1122737,3.1260939999999997
-13.744282,-4.1122737,3.1260939999999997
-13.744282,-4.1122737,3.1260939999999997
-13.744282,-4.1122737,3.1260939999999997
-12.844273,-19.594337,5.3186684
-12.844273,-19.594337,5.3186684
-12.844273,-19.594337,5.3186684
-12.844273,-19.594337,5.3186684
3.5282254,-17.392189000000002,0.36862057
3.5282254,-17.392189000000002,0.36862057
3.5282254,-17.392189000000002,0.36862057
11.522984,-6.2378263,-4.0261025
11.522984,-6.2378263,-4.0261025
11.522984,-6.2378263,-4.0261025
11.522984,-6.2378263,-4.0261025
11.522984,-6.2378263,-4.0261025
10.632549000000001,-1.9101248,1.6994845
10.632549000000001,-1.9101248,1.6994845
10.632549000000001,-1.9101248,1.6994845
10.632549000000001,-1.9101248,1.6994845
7.1857076,-8.1623125,-0.56011176
7.1857076,-8.1623125,-0.56011176
7.1857076,-8.1623125,-0.56011176
7.1857076,-8.1623125,-0.56011176
-5.806971,-19.594337,-1.0005416
-5.806971,-19.594337,-1.0005416
-5.806971,-19.594337,-1.0005416
-5.806971,-19.594337,-1.0005416
-8.889978999999999,-17.669851,-0.22500217
-8.889978999999999,-17.669851,-0.22500217
-8.889978999999999,-17.669851,-0.22500217
-8.889978999999999,-17.669851,-0.22500217
-9.0814705,-2.666515,-4.045252
-9.0814705,-2.666515,-4.045252
-9.0814705,-2.666515,-4.045252
-9.0814705,-2.666515,-4.045252
-10.527229,9.809137,-4.4856815
-10.527229,9.809137,-4.4856815
-10.527229,9.809137,-4.4856815
-10.527229,9.809137,-4.4856815
-10.680422,-1.4218222,1.8431028999999999
-10.680422,-1.4218222,1.8431028999999999
-10.680422,-1.4218222,1.8431028999999999
-10.680422,-1.4218222,1.8431028999999999
-11.896391,-19.594337,8.688913000000001
-11.896391,-19.594337,8.688913000000001
-11.896391,-19.594337,8.688913000000001
-11.896391,-19.594337,8.688913000000001
7.195282000000001,-14.127264000000002,-0.44521707
7.195282000000001,-14.127264000000002,-0.44521707
7.195282000000001,-14.127264000000002,-0.44521707
10.40276,2.2643836,-3.2888615
10.40276,2.2643836,-3.2888615
10.40276,2.2643836,-3.2888615
10.40276,2.2643836,-3.2888615
10.40276,2.2643836,-3.2888615
13.188957,1.469695,-0.85692316
13.188957,1.469695,-0.85692316
13.188957,1.469695,-0.85692316
13.188957,1.469695,-0.85692316
9.933606,-13.533641000000001,-4.801642
9.933606,-13.533641000000001,-4.801642
9.933606,-13.533641000000001,-4.801642
9.933606,-13.533641000000001,-4.801642
-2.5420458,-19.594337,-3.8058877
-2.5420458,-19.594337,-3.8058877
-2.5420458,-19.594337,-3.8058877
-2.5420458,-19.594337,-3.8058877
-14.184710999999998,-14.558119,-2.149489
-14.184710999999998,-14.558119,-2.149489
-14.184710999999998,-14.558119,-2.149489
-14.184710999999998,-14.558119,-2.149489
-12.911294999999999,8.985725,-3.3175852
-12.911294999999999,8.985725,-3.3175852
-12.911294999999999,8.985725,-3.3175852
-12.911294999999999,8.985725,-3.3175852
-9.971905,9.6942425,-3.2505634
-9.971905,9.6942425,-3.2505634
-9.971905,9.6942425,-3.2505634
-9.971905,9.6942425,-3.2505634
-14.988975,-14.347479000000002,8.918703
-14.988975,-14.347479000000002,8.918703
-14.988975,-14.347479000000002,8.918703
-14.988975,-14.347479000000002,8.918703
-1.9101248,-19.594337,9.933606
-1.9101248,-19.594337,9.933606
-1.9101248,-19.594337,9.933606
-1.9101248,-19.594337,9.933606
10.019777000000001,-8.698488000000001,-1.4984187
10.019777000000001,-8.698488000000001,-1.4984187
10.019777000000001,-8.698488000000001,-1.4984187
10.019777000000001,-8.698488000000001,-1.4984187
10.019777000000001,-8.698488000000001,-1.4984187
11.647452000000001,1.7186337,-1.9005502
11.647452000000001,1.7186337,-1.9005502
11.647452000000001,1.7186337,-1.9005502
14.854931,1.5941644,-0.33032233
14.854931,1.5941644,-0.33032233
14.854931,1.5941644,-0.33032233
14.854931,1.5941644,-0.33032233
8.497422,-17.861342999999998,-2.3026817000000004
8.497422,-17.861342999999998,-2.3026817000000004
8.497422,-17.861342999999998,-2.3026817000000004
8.497422,-17.861342999999998,-2.3026817000000004
-6.8888964999999995,-19.594337,3.7388659
-6.8888964999999995,-19.594337,3.7388659
-6.8888964999999995,-19.594337,3.7388659
-6.8888964999999995,-19.594337,3.7388659
-15.515575,-6.0463347,0.03351096
-15.515575,-6.0463347,0.03351096
-15.515575,-6.0463347,0.03351096
-15.515575,-6.0463347,0.03351096
-12.336822,11.522984,-6.9654926999999995
-12.336822,11.522984,-6.9654926999999995
-12.336822,11.522984,-6.9654926999999995
-12.336822,11.522984,-6.9654926999999995
-14.079391500000002,-2.2739582,0.8760723
-14.079391500000002,-2.2739582,0.8760723
-14.079391500000002,-2.2739582,0.8760723
-14.079391500000002,-2.2739582,0.8760723
-7.616563,-19.594337,12.863422
-7.616563,-19.594337,12.863422
-7.616563,-19.594337,12.863422
-7.616563,-19.594337,12.863422
7.7984796,-16.827289999999998,3.3654580000000003
7.7984796,-16.827289999999998,3.3654580000000003
7.7984796,-16.827289999999998,3.3654580000000003
7.7984796,-16.827289999999998,3.3654580000000003
10.967659,-2.168638,-2.0633178
10.967659,-2.168638,-2.0633178
10.967659,-2.168638,-2.0633178
10.967659,-2.168638,-2.0633178
10.967659,-2.168638,-2.0633178
15.228338,3.8154623999999995,-0.09095833
15.228338,3.8154623999999995,-0.09095833
15.228338,3.8154623999999995,-0.09095833
13.591088000000001,-7.128260000000001,-1.9292740000000002
13.591088000000001,-7.128260000000001,-1.9292740000000002
13.591088000000001,-7.128260000000001,-1.9292740000000002
13.591088000000001,-7.128260000000001,-1.9292740000000002
0.34947145,-19.594337,2.6856642
0.34947145,-19.594337,2.6856642
0.34947145,-19.594337,2.6856642
0.34947145,-19.594337,2.6856642
0.34947145,-19.594337,2.6856642
-10.115523,-13.705982999999998,1.9292740000000002
-10.115523,-13.705982999999998,1.9292740000000002
-10.115523,-13.705982999999998,1.9292740000000002
-10.594251,6.027186,-2.6569404999999997
-10.594251,6.027186,-2.6569404999999997
-10.594251,6.027186,-2.6569404999999997
-10.594251,6.027186,-2.6569404999999997
-10.594251,6.027186,-2.6569404999999997
-9.952755999999999,8.832532,-3.6431203
-9.952755999999999,8.832532,-3.6431203
-9.952755999999999,8.832532,-3.6431203
-9.952755999999999,8.832532,-3.6431203
-10.374036,-12.317672,2.2260852000000004
-10.374036,-12.317672,2.2260852000000004
-10.374036,-12.317672,2.2260852000000004
-10.374036,-12.317672,2.2260852000000004
-4.102699299999999,-19.594337,8.698488000000001
-4.102699299999999,-19.594337,8.698488000000001
-4.102699299999999,-19.594337,8.698488000000001
8.641041,-7.348475,-1.6994845
8.641041,-7.348475,-1.6994845
8.641041,-7.348475,-1.6994845
8.641041,-7.348475,-1.6994845
8.641041,-7.348475,-1.6994845
11.503835,-0.0718092,0.70373017
11.503835,-0.0718092,0.70373017
11.503835,-0.0718092,0.70373017
11.503835,-0.0718092,0.70373017
16.003878,-3.039923,-2.034594
16.003878,-3.039923,-2.034594
16.003878,-3.039923,-2.034594
7.0133657000000005,-19.594337,-7.35805
7.0133657000000005,-19.594337,-7.35805
7.0133657000000005,-19.594337,-7.35805
7.0133657000000005,-19.594337,-7.35805
7.0133657000000005,-19.594337,-7.35805
-12.308098,-19.594337,-1.2207563999999997
-12.308098,-19.594337,-1.2207563999999997
-12.308098,-19.594337,-1.2207563999999997
-12.308098,-19.594337,-1.2207563999999997
-13.23683,-9.320834,-1.4122477
-13.23683,-9.320834,-1.4122477
-13.23683,-9.320834,-1.4122477
-11.7336235,9.952755999999999,-2.6569404999999997
-11.7336235,9.952755999999999,-2.6569404999999997
-11.7336235,9.952755999999999,-2.6569404999999997
-11.7336235,9.952755999999999,-2.6569404999999997
-11.7336235,9.952755999999999,-2.6569404999999997
-11.130426,4.772918,-0.76117754
-11.130426,4.772918,-0.76117754
-11.130426,4.772918,-0.76117754
-11.130426,4.772918,-0.76117754
-4.926111,-19.173057999999997,7.214431299999999
-4.926111,-19.173057999999997,7.214431299999999
-4.926111,-19.173057999999997,7.214431299999999
-4.926111,-19.173057999999997,7.214431299999999
2.9633265,-18.924118,7.587839
2.9633265,-18.924118,7.587839
2.9633265,-18.924118,7.587839
2.9633265,-18.924118,7.587839
9.31126,-5.462287,-1.1250108
9.31126,-5.462287,-1.1250108
9.31126,-5.462287,-1.1250108
9.31126,-5.462287,-1.1250108
16.19537,3.4133307999999998,-1.9579976000000003
16.19537,3.4133307999999998,-1.9579976000000003
16.19537,3.4133307999999998,-1.9579976000000003
16.19537,3.4133307999999998,-1.9579976000000003
16.003878,-2.427151,-3.231414
16.003878,-2.427151,-3.231414
16.003878,-2.427151,-3.231414
16.003878,-2.427151,-3.231414
1.1633091,-19.594337,4.236743
1.1633091,-19.594337,4.236743
1.1633091,-19.594337,4.236743
1.1633091,-19.594337,4.236743
-11.034680999999999,-17.832619,5.8548436
-11.034680999999999,-17.832619,5.8548436
-11.034680999999999,-17.832619,5.8548436
-11.034680999999999,-17.832619,5.8548436
-13.763431,4.1409974,-3.4324798999999997
-13.763431,4.1409974,-3.4324798999999997
-13.763431,4.1409974,-3.4324798999999997
-13.763431,4.1409974,-3.4324798999999997
-13.763431,4.1409974,-3.4324798999999997
-13.016615,11.905966000000001,-4.342063
-13.016615,11.905966000000001,-4.342063
-13.016615,11.905966000000001,-4.342063
-13.935773000000001,-13.696407999999998,5.6250544
-13.935773000000001,-13.696407999999998,5.6250544
-13.935773000000001,-13.696407999999998,5.6250544
-13.935773000000001,-13.696407999999998,5.6250544
-4.08355,-19.594337,10.163396
-4.08355,-19.594337,10.163396
-4.08355,-19.594337,10.163396
-4.08355,-19.594337,10.163396
7.9037995,-8.698488000000001,0.110107444
7.9037995,-8.698488000000001,0.110107444
7.9037995,-8.698488000000001,0.110107444
7.9037995,-8.698488000000001,0.110107444
9.866585,2.4558747000000003,0.081383765
9.866585,2.4558747000000003,0.081383765
9.866585,2.4558747000000003,0.081383765
9.866585,2.4558747000000003,0.081383765
16.128347,1.9675721999999998,0.19627848
16.128347,1.9675721999999998,0.19627848
16.128347,1.9675721999999998,0.19627848
16.128347,1.9675721999999998,0.19627848
11.781497,-12.987891000000001,-3.5378
11.781497,-12.987891000000001,-3.5378
11.781497,-12.987891000000001,-3.5378
11.781497,-12.987891000000001,-3.5378
-11.216598,-19.594337,0.5888355
-11.216598,-19.594337,0.5888355
-11.216598,-19.594337,0.5888355
-11.216598,-19.594337,0.5888355
-10.977234,-7.2048570000000005,-2.015445
-10.977234,-7.2048570000000005,-2.015445
-10.977234,-7.2048570000000005,-2.015445
-10.977234,-7.2048570000000005,-2.015445
-10.670848,11.829369999999999,-5.0601554
-10.670848,11.829369999999999,-5.0601554
-10.670848,11.829369999999999,-5.0601554
-10.670848,11.829369999999999,-5.0601554
-10.670848,11.829369999999999,-5.0601554
-10.996383,3.9207826,-2.1111906000000005
-10.996383,3.9207826,-2.1111906000000005
-10.996383,3.9207826,-2.1111906000000005
-11.455961,-19.43157,10.077225
-11.455961,-19.43157,10.077225
-11.455961,-19.43157,10.077225
-11.455961,-19.43157,10.077225
0.93351966,-19.182632,5.452712
0.93351966,-19.182632,5.452712
0.93351966,-19.182632,5.452712
0.93351966,-19.182632,5.452712
0.93351966,-19.182632,5.452712
8.23891,-4.5718527,-1.2111819
8.23891,-4.5718527,-1.2111819
8.23891,-4.5718527,-1.2111819
14.912378,2.88673,-0.91437054
14.912378,2.88673,-0.91437054
14.912378,2.88673,-0.91437054
14.912378,2.88673,-0.91437054
18.818798,-0.09095833,-1.9101248
18.818798,-0.09095833,-1.9101248
18.818798,-0.09095833,-1.9101248
18.818798,-0.09095833,-1.9101248
18.818798,-0.09095833,-1.9101248
1.6133133999999998,-19.594337,-0.32074776
1.6133133999999998,-19.594337,-0.32074776
1.6133133999999998,-19.594337,-0.32074776
-12.260224000000001,-17.890066,3.9495062999999995
-12.260224000000001,-17.890066,3.9495062999999995
-12.260224000000001,-17.890066,3.9495062999999995
-12.260224000000001,-17.890066,3.9495062999999995
-10.622974000000001,2.2260852000000004,-3.671844
-10.622974000000001,2.2260852000000004,-3.671844
-10.622974000000001,2.2260852000000004,-3.671844
-10.622974000000001,2.2260852000000004,-3.671844
-10.622974000000001,2.2260852000000004,-3.671844
-10.019777000000001,11.379365,-3.8346114
-10.019777000000001,11.379365,-3.8346114
-10.019777000000001,11.379365,-3.8346114
-10.019777000000001,11.379365,-3.8346114
-13.437895999999999,-8.439975,2.360129
-13.437895999999999,-8.439975,2.360129
-13.437895999999999,-8.439975,2.360129
-7.051664,-19.594337,16.84644
-7.051664,-19.594337,16.84644
-7.051664,-19.594337,16.84644
-7.051664,-19.594337,16.84644
-7.051664,-19.594337,16.84644
6.6016593,-14.079391500000002,0.5792609000000001
6.6016593,-14.079391500000002,0.5792609000000001
6.6016593,-14.079391500000002,0.5792609000000001
6.6016593,-14.079391500000002,0.5792609000000001
10.804892,0.0,-0.2154276
10.804892,0.0,-0.2154276
10.804892,0.0,-0.2154276
16.913462,3.690993,-1.0867126
16.913462,3.690993,-1.0867126
16.913462,3.690993,-1.0867126
16.913462,3.690993,-1.0867126
16.913462,3.690993,-1.0867126
12.480439,-8.755936,-3.6239712
12.480439,-8.755936,-3.6239712
12.480439,-8.755936,-3.6239712
-5.883567299999999,-19.594337,14.395351000000002
-5.883567299999999,-19.594337,14.395351000000002
-5.883567299999999,-19.594337,14.395351000000002
-5.883567299999999,-19.594337,14.395351000000002
-11.254896,-12.269799,6.975067
-11.254896,-12.269799,6.975067
-11.254896,-12.269799,6.975067
-11.254896,-12.269799,6.975067
-11.254896,-12.269799,6.975067
-12.56661,5.414414,-3.0973704
-12.56661,5.414414,-3.0973704
-12.56661,5.414414,-3.0973704
-11.312344,7.310177,-4.83994
-11.312344,7.310177,-4.83994
-11.312344,7.310177,-4.83994
-11.312344,7.310177,-4.83994
-9.502751,-15.63047,9.761265
-9.502751,-15.63047,9.761265
-9.502751,-15.63047,9.761265
-9.502751,-15.63047,9.761265
-9.502751,-15.63047,9.761265
-5.222923000000001,-19.594337,17.736874
-5.222923000000001,-19.594337,17.736874
-5.222923000000001,-19.594337,17.736874
-5.222923000000001,-19.594337,17.736874
8.66019,-12.25065,2.2835326
8.66019,-12.25065,2.2835326
8.66019,-12.25065,2.2835326
14.740035999999998,-0.22500217,-0.11968201
14.740035999999998,-0.22500217,-0.11968201
14.740035999999998,-0.22500217,-0.11968201
14.740035999999998,-0.22500217,-0.11968201
14.740035999999998,-0.22500217,-0.11968201
15.898558,-1.7377827000000001,-2.0537431
15.898558,-1.7377827000000001,-2.0537431
15.898558,-1.7377827000000001,-2.0537431
15.898558,-1.7377827000000001,-2.0537431
6.4484663,-19.594337,7.137835000000001
6.4484663,-19.594337,7.137835000000001
6.4484663,-19.594337,7.137835000000001
-10.603826,-19.230504999999997,7.4729443
-10.603826,-19.230504999999997,7.4729443
-10.603826,-19.230504999999997,7.4729443
-10.603826,-19.230504999999997,7.4729443
-10.220842999999999,-4.437809,-0.32074776
-10.220842999999999,-4.437809,-0.32074776
-10.220842999999999,-4.437809,-0.32074776
-10.220842999999999,-4.437809,-0.32074776
-10.220842999999999,-4.437809,-0.32074776
-11.503835,10.986808,-5.088879
-11.503835,10.986808,-5.088879
-11.503835,10.986808,-5.088879
-11.503835,10.986808,-5.088879
-11.436812,2.2739582,-0.9718179
-11.436812,2.2739582,-0.9718179
-11.436812,2.2739582,-0.9718179
-11.925115,-19.594337,14.740035999999998
-11.925115,-19.594337,14.740035999999998
-11.925115,-19.594337,14.740035999999998
-11.925115,-19.594337,14.740035999999998
-11.925115,-19.594337,14.740035999999998
2.0250196,-18.933692999999998,7.377198700000001
2.0250196,-18.933692999999998,7.377198700000001
2.0250196,-18.933692999999998,7.377198700000001
2.0250196,-18.933692999999998,7.377198700000001
9.75169,-4.782493,0.6079846
9.75169,-4.782493,0.6079846
9.75169,-4.782493,0.6079846
18.809223,1.6324625,0.25372586
18.809223,1.6324625,0.25372586
18.809223,1.6324625,0.25372586
18.809223,1.6324625,0.25372586
18.809223,1.6324625,0.25372586
12.557036,-7.741032000000001,0.33032233
12.557036,-7.741032000000001,0.33032233
12.557036,-7.741032000000001,0.33032233
12.557036,-7.741032000000001,0.33032233
-4.1888704,-19.594337,8.966576
-4.1888704,-19.594337,8.966576
-4.1888704,-19.594337,8.966576
-8.870830999999999,-17.03793,4.1792955
-8.870830999999999,-17.03793,4.1792955
-8.870830999999999,-17.03793,4.1792955
-8.870830999999999,-17.03793,4.1792955
-8.870830999999999,-17.03793,4.1792955
-11.848517999999999,3.6143966,-2.2165107999999996
-11.848517999999999,3.6143966,-2.2165107999999996
-11.848517999999999,3.6143966,-2.2165107999999996
-11.848517999999999,3.6143966,-2.2165107999999996
-12.394267999999999,10.239991999999999,-4.3612123
-12.394267999999999,10.239991999999999,-4.3612123
-12.394267999999999,10.239991999999999,-4.3612123
-12.394267999999999,10.239991999999999,-4.3612123
-11.235746,-12.020861,2.972901
-11.235746,-12.020861,2.972901
-11.235746,-12.020861,2.972901
-11.235746,-12.020861,2.972901
-6.151655,-19.594337,15.956005
-6.151655,-19.594337,15.956005
-6.151655,-19.594337,15.956005
-6.151655,-19.594337,15.956005
7.022939999999999,-12.643207,1.9675721999999998
7.022939999999999,-12.643207,1.9675721999999998
7.022939999999999,-12.643207,1.9675721999999998
7.022939999999999,-12.643207,1.9675721999999998
13.437895999999999,-1.6133133999999998,1.1728836
13.437895999999999,-1.6133133999999998,1.1728836
13.437895999999999,-1.6133133999999998,1.1728836
13.437895999999999,-1.6133133999999998,1.1728836
16.444307000000002,0.5792609000000001,-0.751603
16.444307000000002,0.5792609000000001,-0.751603
16.444307000000002,0.5792609000000001,-0.751603
16.444307000000002,0.5792609000000001,-0.751603
9.904882,-18.454966,2.2069361
9.904882,-18.454966,2.2069361
9.904882,-18.454966,2.2069361
9.904882,-18.454966,2.2069361
-9.703816999999999,-19.594337,7.7601814
-9.703816999999999,-19.594337,7.7601814
-9.703816999999999,-19.594337,7.7601814
-9.703816999999999,-19.594337,7.7601814
-11.341067,-8.621891999999999,-0.44521707
-11.341067,-8.621891999999999,-0.44521707
-11.341067,-8.621891999999999,-0.44521707
-11.341067,-8.621891999999999,-0.44521707
-12.030436,9.378282,-5.778247400000001
-12.030436,9.378282,-5.778247400000001
-12.030436,9.378282,-5.778247400000001
-12.7964,4.7250457,-3.6239712
-12.7964,4.7250457,-3.6239712
-12.7964,4.7250457,-3.6239712
-12.7964,4.7250457,-3.6239712
-12.7964,4.7250457,-3.6239712
-15.3049345,-18.608158,11.982562
-15.3049345,-18.608158,11.982562
-15.3049345,-18.608158,11.982562
-2.015445,-19.594337,12.394267999999999
-2.015445,-19.594337,12.394267999999999
-2.015445,-19.594337,12.394267999999999
-2.015445,-19.594337,12.394267999999999
10.651698,-10.843189,0.50266445
10.651698,-10.843189,0.50266445
10.651698,-10.843189,0.50266445
10.651698,-10.843189,0.50266445
16.453882,0.9718179,0.5505372
16.453882,0.9718179,0.5505372
16.453882,0.9718179,0.5505372
16.453882,0.9718179,0.5505372
13.064487,-3.193116,-1.0388398
13.064487,-3.193116,-1.0388398
13.064487,-3.193116,-1.0388398
13.064487,-3.193116,-1.0388398
0.5792609000000001,-19.594337,7.501668
0.5792609000000001,-19.594337,7.501668
0.5792609000000001,-19.594337,7.501668
0.5792609000000001,-19.594337,7.501668
-14.960251000000001,-18.627308,12.020861
-14.960251000000001,-18.627308,12.020861
-14.960251000000001,-18.627308,12.020861
-14.960251000000001,-18.627308,12.020861
-14.960251000000001,-18.627308,12.020861
-14.960251000000001,-18.627308,12.020861
-14.960251000000001,-18.627308,12.020861
-14.960251000000001,-18.627308,12.020861
-12.164479,10.92936,-5.3186684
-12.164479,10.92936,-5.3186684
-12.164479,10.92936,-5.3186684
-12.164479,10.92936,-5.3186684
-10.910212,1.1058618,-0.8090504
-10.910212,1.1058618,-0.8090504
-10.910212,1.1058618,-0.8090504
-10.910212,1.1058618,-0.8090504
-11.130426,-19.594337,14.787908999999999
-11.130426,-19.594337,14.787908999999999
-11.130426,-19.594337,14.787908999999999
-11.130426,-19.594337,14.787908999999999
2.6760897999999997,-18.943268,6.132505999999999
2.6760897999999997,-18.943268,6.132505999999999
2.6760897999999997,-18.943268,6.132505999999999
2.6760897999999997,-18.943268,6.132505999999999
8.056992999999999,-3.6335455999999997,0.2920241
8.056992999999999,-3.6335455999999997,0.2920241
8.056992999999999,-3.6335455999999997,0.2920241
8.056992999999999,-3.6335455999999997,0.2920241
17.018782,2.321831,-1.383524
17.018782,2.321831,-1.383524
17.018782,2.321831,-1.383524
17.018782,2.321831,-1.383524
13.0549135,-9.454879,-0.023936402000000002
13.0549135,-9.454879,-0.023936402000000002
13.0549135,-9.454879,-0.023936402000000002
13.0549135,-9.454879,-0.023936402000000002
-1.9579976000000003,-19.594337,7.5782647
-1.9579976000000003,-19.594337,7.5782647
-1.9579976000000003,-19.594337,7.5782647
-1.9579976000000003,-19.594337,7.5782647
-12.308098,-15.266637,4.0644007
-12.308098,-15.266637,4.0644007
-12.308098,-15.266637,4.0644007
-12.308098,-15.266637,4.0644007
-10.010203,5.672927,-3.6239712
-10.010203,5.672927,-3.6239712
-10.010203,5.672927,-3.6239712
-10.010203,5.672927,-3.6239712
-10.565528,7.5399666,-4.96441
-10.565528,7.5399666,-4.96441
-10.565528,7.5399666,-4.96441
-10.565528,7.5399666,-4.96441
-11.417664,-13.246405,6.4484663
-11.417664,-13.246405,6.4484663
-11.417664,-13.246405,6.4484663
-11.417664,-13.246405,6.4484663
-3.4707782,-19.594337,13.897473999999999
-3.4707782,-19.594337,13.897473999999999
-3.4707782,-19.594337,13.897473999999999
6.3431463,-12.576185,2.149489
6.3431463,-12.576185,2.149489
6.3431463,-12.576185,2.149489
6.3431463,-12.576185,2.149489
6.3431463,-12.576185,2.149489
10.335738000000001,-1.6037389,0.8664976999999999
10.335738000000001,-1.6037389,0.8664976999999999
10.335738000000001,-1.6037389,0.8664976999999999
10.335738000000001,-1.6037389,0.8664976999999999
17.219847,1.4218222,-1.5750152
17.219847,1.4218222,-1.5750152
17.219847,1.4218222,-1.5750152
17.219847,1.4218222,-1.5750152
10.287866000000001,-14.357054000000002,0.61755913
10.287866000000001,-14.357054000000002,0.61755913
10.287866000000001,-14.357054000000002,0.61755913
10.287866000000001,-14.357054000000002,0.61755913
-7.865501400000001,-19.594337,10.182545
-7.865501400000001,-19.594337,10.182545
-7.865501400000001,-19.594337,10.182545
-7.865501400000001,-19.594337,10.182545
-10.431483,-10.163396,0.30159867
-10.431483,-10.163396,0.30159867
-10.431483,-10.163396,0.30159867
-10.431483,-10.163396,0.30159867
-10.910212,9.301685,-4.9835587
-10.910212,9.301685,-4.9835587
-10.910212,9.301685,-4.9835587
-10.910212,9.301685,-4.9835587
-10.728295,4.0644007,-2.1590632999999997
-10.728295,4.0644007,-2.1590632999999997
-10.728295,4.0644007,-2.1590632999999997
-10.728295,4.0644007,-2.1590632999999997
-9.847435,-18.818798,12.221927
-9.847435,-18.818798,12.221927
-9.847435,-18.818798,12.221927
-9.847435,-18.818798,12.221927
0.023936402000000002,-19.594337,10.058076
0.023936402000000002,-19.594337,10.058076
0.023936402000000002,-19.594337,10.058076
0.023936402000000002,-19.594337,10.058076
6.8027253,-6.9176197,0.8664976999999999
6.8027253,-6.9176197,0.8664976999999999
6.8027253,-6.9176197,0.8664976999999999
6.8027253,-6.9176197,0.8664976999999999
13.00704,-0.12925656,0.09095833
13.00704,-0.12925656,0.09095833
13.00704,-0.12925656,0.09095833
15.5060005,0.8952214,-2.6569404999999997
15.5060005,0.8952214,-2.6569404999999997
15.5060005,0.8952214,-2.6569404999999997
15.5060005,0.8952214,-2.6569404999999997
15.5060005,0.8952214,-2.6569404999999997
9.445304,-17.401764,-1.4026731000000001
9.445304,-17.401764,-1.4026731000000001
9.445304,-17.401764,-1.4026731000000001
9.445304,-17.401764,-1.4026731000000001
-10.431483,-19.594337,8.966576
-10.431483,-19.594337,8.966576
-10.431483,-19.594337,8.966576
-10.919786,-7.654861,-0.8473485999999999
-10.919786,-7.654861,-0.8473485999999999
-10.919786,-7.654861,-0.8473485999999999
-10.919786,-7.654861,-0.8473485999999999
-10.919786,-7.654861,-0.8473485999999999
-10.603826,8.066567,-3.8250370000000005
-10.603826,8.066567,-3.8250370000000005
-10.603826,8.066567,-3.8250370000000005
-10.603826,8.066567,-3.8250370000000005
-9.770839,2.905879,-1.9388485
-9.770839,2.905879,-1.9388485
-9.770839,2.905879,-1.9388485
-9.770839,2.905879,-1.9388485
-9.62722,-17.641129,10.833615
-9.62722,-17.641129,10.833615
-9.62722,-17.641129,10.833615
-2.8771553,-19.594337,13.715557999999998
-2.8771553,-19.594337,13.715557999999998
-2.8771553,-19.594337,13.715557999999998
-2.8771553,-19.594337,13.715557999999998
-2.8771553,-19.594337,13.715557999999998
7.875075999999999,-9.675094,0.9526688
7.875075999999999,-9.675094,0.9526688
7.875075999999999,-9.675094,0.9526688
7.875075999999999,-9.675094,0.9526688
14.414501000000001,1.4505458999999998,-1.2399056
14.414501000000001,1.4505458999999998,-1.2399056
14.414501000000001,1.4505458999999998,-1.2399056
15.975154000000002,0.10053288,-2.9441773999999996
15.975154000000002,0.10053288,-2.9441773999999996
15.975154000000002,0.10053288,-2.9441773999999996
15.975154000000002,0.10053288,-2.9441773999999996
15.975154000000002,0.10053288,-2.9441773999999996
6.3622955999999995,-19.441145000000002,4.610151
6.3622955999999995,-19.441145000000002,4.610151
6.3622955999999995,-19.441145000000002,4.610151
6.3622955999999995,-19.441145000000002,4.610151
-8.736787,-19.402847,10.230417999999998
-8.736787,-19.402847,10.230417999999998
-8.736787,-19.402847,10.230417999999998
-8.736787,-19.402847,10.230417999999998
-12.738953,-2.9633265,0.47394073
-12.738953,-2.9633265,0.47394073
-12.738953,-2.9633265,0.47394073
-12.738953,-2.9633265,0.47394073
-12.432567,8.698488000000001,-4.322914
-12.432567,8.698488000000001,-4.322914
-12.432567,8.698488000000001,-4.322914
-12.432567,8.698488000000001,-4.322914
-9.943181,2.3122563,-0.2154276
-9.943181,2.3122563,-0.2154276
-9.943181,2.3122563,-0.2154276
-9.943181,2.3122563,-0.2154276
-10.71872,-19.594337,18.483688
-10.71872,-19.594337,18.483688
-10.71872,-19.594337,18.483688
-10.71872,-19.594337,18.483688
-2.1877869999999997,-17.440062,12.212352000000001
-2.1877869999999997,-17.440062,12.212352000000001
-2.1877869999999997,-17.440062,12.212352000000001
-2.1877869999999997,-17.440062,12.212352000000001
10.565528,-6.151655,-1.1345854
10.565528,-6.151655,-1.1345854
10.565528,-6.151655,-1.1345854
10.565528,-6.151655,-1.1345854
17.823044,2.7622607000000006,-2.6760897999999997
17.823044,2.7622607000000006,-2.6760897999999997
17.823044,2.7622607000000006,-2.6760897999999997
17.823044,2.7622607000000006,-2.6760897999999997
13.524067,-6.726128599999999,-1.6324625
13.524067,-6.726128599999999,-1.6324625
13.524067,-6.726128599999999,-1.6324625
13.524067,-6.726128599999999,-1.6324625
-3.7867386,-19.594337,11.4272375
-3.7867386,-19.594337,11.4272375
-3.7867386,-19.594337,11.4272375
-3.7867386,-19.594337,11.4272375
-9.052747,-14.175137,11.178299
-9.052747,-14.175137,11.178299
-9.052747,-14.175137,11.178299
-9.052747,-14.175137,11.178299
-9.052747,-14.175137,11.178299
-10.019777000000001,2.1782124,-3.7580150000000003
-10.019777000000001,2.1782124,-3.7580150000000003
-10.019777000000001,2.1782124,-3.7580150000000003
-11.561282,8.7750845,-5.529309
-11.561282,8.7750845,-5.529309
-11.561282,8.7750845,-5.529309
-11.561282,8.7750845,-5.529309
-11.59958,-12.442142,5.7016506
-11.59958,-12.442142,5.7016506
-11.59958,-12.442142,5.7016506
-11.59958,-12.442142,5.7016506
-5.222923000000001,-19.594337,18.12943
-5.222923000000001,-19.594337,18.12943
-5.222923000000001,-19.594337,18.12943
-5.222923000000001,-19.594337,18.12943
6.5154879999999995,-13.323001000000001,1.7186337
6.5154879999999995,-13.323001000000001,1.7186337
6.5154879999999995,-13.323001000000001,1.7186337
6.5154879999999995,-13.323001000000001,1.7186337
10.469782,3.0494976,-0.09095833
10.469782,3.0494976,-0.09095833
10.469782,3.0494976,-0.09095833
10.469782,3.0494976,-0.09095833
18.665606,1.8239537000000001,-3.8250370000000005
18.665606,1.8239537000000001,-3.8250370000000005
18.665606,1.8239537000000001,-3.8250370000000005
18.665606,1.8239537000000001,-3.8250370000000005
18.665606,1.8239537000000001,-3.8250370000000005
10.776167999999998,-13.495343,-1.6037389
10.776167999999998,-13.495343,-1.6037389
10.776167999999998,-13.495343,-1.6037389
-9.531475,-19.594337,3.2218397000000003
-9.531475,-19.594337,3.2218397000000003
-9.531475,-19.594337,3.2218397000000003
-9.531475,-19.594337,3.2218397000000003
-12.595334,-7.5495410000000005,-0.03351096
-12.595334,-7.5495410000000005,-0.03351096
-12.595334,-7.5495410000000005,-0.03351096
-12.595334,-7.5495410000000005,-0.03351096
-12.595334,-7.5495410000000005,-0.03351096
-10.938935,11.36979,-2.0537431
-10.938935,11.36979,-2.0537431
-10.938935,11.36979,-2.0537431
-10.230417999999998,4.5239797,-3.0303482999999996
-10.230417999999998,4.5239797,-3.0303482999999996
-10.230417999999998,4.5239797,-3.0303482999999996
-10.230417999999998,4.5239797,-3.0303482999999996
-10.230417999999998,4.5239797,-3.0303482999999996
-12.834699,-19.594337,13.275128
-12.834699,-19.594337,13.275128
-12.834699,-19.594337,13.275128
-12.834699,-19.594337,13.275128
1.0675635,-19.3454,6.2378263
1.0675635,-19.3454,6.2378263
1.0675635,-19.3454,6.2378263
7.501668,-3.8537605000000004,1.1920328000000002
7.501668,-3.8537605000000004,1.1920328000000002
7.501668,-3.8537605000000004,1.1920328000000002
7.501668,-3.8537605000000004,1.1920328000000002
7.501668,-3.8537605000000004,1.1920328000000002
13.0549135,2.1303396,0.15798025
13.0549135,2.1303396,0.15798025
13.0549135,2.1303396,0.15798025
13.0549135,2.1303396,0.15798025
14.136839000000002,0.64628285,-0.23457673
14.136839000000002,0.64628285,-0.23457673
14.136839000000002,0.64628285,-0.23457673
14.136839000000002,0.64628285,-0.23457673
6.2378263,-17.507084,-0.3398969
6.2378263,-17.507084,-0.3398969
6.2378263,-17.507084,-0.3398969
-10.239991999999999,-19.594337,6.1612295999999995
-10.239991999999999,-19.594337,6.1612295999999995
-10.239991999999999,-19.594337,6.1612295999999995
-10.239991999999999,-19.594337,6.1612295999999995
-10.239991999999999,-19.594337,6.1612295999999995
-13.811303,-5.031431700000001,-0.50266445
-13.811303,-5.031431700000001,-0.50266445
-13.811303,-5.031431700000001,-0.50266445
-13.811303,-5.031431700000001,-0.50266445
-15.391106,12.815549,-3.3080106
-15.391106,12.815549,-3.3080106
-15.391106,12.815549,-3.3080106
-11.72405,-1.7856555,-0.16755481
-11.72405,-1.7856555,-0.16755481
-11.72405,-1.7856555,-0.16755481
-11.72405,-1.7856555,-0.16755481
-11.72405,-1.7856555,-0.16755481
-9.177217,-19.594337,4.8590894
-9.177217,-19.594337,4.8590894
-9.177217,-19.594337,4.8590894
-9.177217,-19.594337,4.8590894
6.285699,-16.913462,-2.6282167000000003
6.285699,-16.913462,-2.6282167000000003
6.285699,-16.913462,-2.6282167000000003
8.305931,-0.023936402000000002,-2.4463003
8.305931,-0.023936402000000002,-2.4463003
8.305931,-0.023936402000000002,-2.4463003
8.305931,-0.023936402000000002,-2.4463003
8.305931,-0.023936402000000002,-2.4463003
18.483688,3.0494976,-1.4984187
18.483688,3.0494976,-1.4984187
18.483688,3.0494976,-1.4984187
18.483688,3.0494976,-1.4984187
13.801729000000002,-9.742115,-0.5888355
13.801729000000002,-9.742115,-0.5888355
13.801729000000002,-9.742115,-0.5888355
13.801729000000002,-9.742115,-0.5888355
-4.322914,-19.594337,5.49101
-4.322914,-19.594337,5.49101
-4.322914,-19.594337,5.49101
-4.322914,-19.594337,5.49101
-9.722966,-16.903887,-2.733537
-9.722966,-16.903887,-2.733537
-9.722966,-16.903887,-2.733537
-9.722966,-16.903887,-2.733537
-12.786825,7.587839,-5.644203
-12.786825,7.587839,-5.644203
-12.786825,7.587839,-5.644203
-12.786825,7.587839,-5.644203
-11.580430999999999,10.747444,-2.647366
-11.580430999999999,10.747444,-2.647366
-11.580430999999999,10.747444,-2.647366
-11.580430999999999,10.747444,-2.647366
-13.734707,-14.127264000000002,7.7506065
-13.734707,-14.127264000000002,7.7506065
-13.734707,-14.127264000000002,7.7506065
-13.734707,-14.127264000000002,7.7506065
-5.672927,-19.594337,14.567694
-5.672927,-19.594337,14.567694
-5.672927,-19.594337,14.567694
-5.672927,-19.594337,14.567694
9.024023,-10.412334,0.77075213
9.024023,-10.412334,0.77075213
9.024023,-10.412334,0.77075213
9.024023,-10.412334,0.77075213
13.571939000000002,2.9154537,-1.8143792
13.571939000000002,2.9154537,-1.8143792
13.571939000000002,2.9154537,-1.8143792
13.571939000000002,2.9154537,-1.8143792
16.721970000000002,1.4026731000000001,-1.9005502
16.721970000000002,1.4026731000000001,-1.9005502
16.721970000000002,1.4026731000000001,-1.9005502
16.721970000000002,1.4026731000000001,-1.9005502
6.975067,-17.928364000000002,4.3133397
6.975067,-17.928364000000002,4.3133397
6.975067,-17.928364000000002,4.3133397
6.975067,-17.928364000000002,4.3133397
-6.5154879999999995,-19.594337,10.06765
-6.5154879999999995,-19.594337,10.06765
-6.5154879999999995,-19.594337,10.06765
-6.5154879999999995,-19.594337,10.06765
-10.230417999999998,-7.616563,-2.4558747000000003
-10.230417999999998,-7.616563,-2.4558747000000003
-10.230417999999998,-7.616563,-2.4558747000000003
-10.230417999999998,-7.616563,-2.4558747000000003
-11.657027000000001,9.20594,-4.5144053
-11.657027000000001,9.20594,-4.5144053
-11.657027000000001,9.20594,-4.5144053
-11.657027000000001,9.20594,-4.5144053
-9.809137,1.4505458999999998,-1.862252
-9.809137,1.4505458999999998,-1.862252
-9.809137,1.4505458999999998,-1.862252
-9.809137,1.4505458999999998,-1.862252
-3.4803526,-19.594337,13.4666195
-3.4803526,-19.594337,13.4666195
-3.4803526,-19.594337,13.4666195
-3.4803526,-19.594337,13.4666195
1.0771381000000002,-19.479443,10.71872
1.0771381000000002,-19.479443,10.71872
1.0771381000000002,-19.479443,10.71872
1.0771381000000002,-19.479443,10.71872
7.1665583,-7.463369999999999,-0.36862057
7.1665583,-7.463369999999999,-0.36862057
7.1665583,-7.463369999999999,-0.36862057
7.1665583,-7.463369999999999,-0.36862057
7.1665583,-7.463369999999999,-0.36862057
14.443225,3.0207740000000003,-1.9771467
14.443225,3.0207740000000003,-1.9771467
14.443225,3.0207740000000003,-1.9771467
15.831535,-2.0824668,-1.7473572
15.831535,-2.0824668,-1.7473572
15.831535,-2.0824668,-1.7473572
15.831535,-2.0824668,-1.7473572
15.831535,-2.0824668,-1.7473572
3.5378,-19.594337,4.294190400000001
3.5378,-19.594337,4.294190400000001
3.5378,-19.594337,4.294190400000001
3.5378,-19.594337,4.294190400000001
-7.9037995,-18.225176,6.5729356
-7.9037995,-18.225176,6.5729356
-7.9037995,-18.225176,6.5729356
-11.7049,-0.25372586,-2.427151
-11.7049,-0.25372586,-2.427151
-11.7049,-0.25372586,-2.427151
-11.7049,-0.25372586,-2.427151
-11.7049,-0.25372586,-2.427151
-11.848517999999999,11.274045,-3.8633351
-11.848517999999999,11.274045,-3.8633351
-11.848517999999999,11.274045,-3.8633351
-11.848517999999999,11.274045,-3.8633351
-11.082554,-8.870830999999999,1.5750152
-11.082554,-8.870830999999999,1.5750152
-11.082554,-8.870830999999999,1.5750152
-11.082554,-8.870830999999999,1.5750152
-11.082554,-8.870830999999999,1.5750152
-11.082554,-8.870830999999999,1.5750152
-11.082554,-8.870830999999999,1.5750152
3.5952474999999997,-12.662355999999999,5.4239883
3.5952474999999997,-12.662355999999999,5.4239883
3.5952474999999997,-12.662355999999999,5.4239883
3.5952474999999997,-12.662355999999999,5.4239883
9.8953085,-0.61755913,-1.3739493999999999
9.8953085,-0.61755913,-1.3739493999999999
9.8953085,-0.61755913,-1.3739493999999999
9.8953085,-0.61755913,-1.3739493999999999
17.200697,2.3792782000000003,-3.1452432
17.200697,2.3792782000000003,-3.1452432
17.200697,2.3792782000000003,-3.1452432
17.200697,2.3792782000000003,-3.1452432
11.283619999999999,-11.140001,0.3877697
11.283619999999999,-11.140001,0.3877697
11.283619999999999,-11.140001,0.3877697
11.283619999999999,-11.140001,0.3877697
-3.8537605000000004,-19.594337,9.3878565
-3.8537605000000004,-19.594337,9.3878565
-3.8537605000000004,-19.594337,9.3878565
-3.8537605000000004,-19.594337,9.3878565
-12.624058,-12.518738,7.080387599999999
-12.624058,-12.518738,7.080387599999999
-12.624058,-12.518738,7.080387599999999
-9.234664,1.6037389,-4.1409974
-9.234664,1.6037389,-4.1409974
-9.234664,1.6037389,-4.1409974
-9.234664,1.6037389,-4.1409974
-9.234664,1.6037389,-4.1409974
-10.048501,8.00912,-4.8782387
-10.048501,8.00912,-4.8782387
-10.048501,8.00912,-4.8782387
-10.048501,8.00912,-4.8782387
-9.713391,-8.55487,3.0686467
-9.713391,-8.55487,3.0686467
-9.713391,-8.55487,3.0686467
-9.713391,-8.55487,3.0686467
-6.2474008,-19.594337,17.554956
-6.2474008,-19.594337,17.554956
-6.2474008,-19.594337,17.554956
-6.2474008,-19.594337,17.554956
5.500585,-11.657027000000001,2.7431116
5.500585,-11.657027000000001,2.7431116
5.500585,-11.657027000000001,2.7431116
5.500585,-11.657027000000001,2.7431116
9.129342999999999,0.90479594,-2.867581
9.129342999999999,0.90479594,-2.867581
9.129342999999999,0.90479594,-2.867581
9.129342999999999,0.90479594,-2.867581
18.454966,0.91437054,-2.5228968
18.454966,0.91437054,-2.5228968
18.454966,0.91437054,-2.5228968
18.454966,0.91437054,-2.5228968
9.129342999999999,-15.754939000000002,0.023936402000000002
9.129342999999999,-15.754939000000002,0.023936402000000002
9.129342999999999,-15.754939000000002,0.023936402000000002
9.129342999999999,-15.754939000000002,0.023936402000000002
-8.277207,-19.594337,7.089962
-8.277207,-19.594337,7.089962
-8.277207,-19.594337,7.089962
-8.277207,-19.594337,7.089962
-9.474028,-11.274045,0.4164934
-9.474028,-11.274045,0.4164934
-9.474028,-11.274045,0.4164934
-9.474028,-11.274045,0.4164934
-8.918703,5.845269,-6.103782
-8.918703,5.845269,-6.103782
-8.918703,5.845269,-6.103782
-8.918703,5.845269,-6.103782
-9.474028,5.9314404000000005,-4.2080193
-9.474028,5.9314404000000005,-4.2080193
-9.474028,5.9314404000000005,-4.2080193
-9.474028,5.9314404000000005,-4.2080193
-8.784659,-14.759185,7.6069884000000005
-8.784659,-14.759185,7.6069884000000005
-8.784659,-14.759185,7.6069884000000005
-8.784659,-14.759185,7.6069884000000005
-3.451629,-19.594337,15.419829
-3.451629,-19.594337,15.419829
-3.451629,-19.594337,15.419829
-3.451629,-19.594337,15.419829
6.7931504,-11.503835,0.49308985
6.7931504,-11.503835,0.49308985
6.7931504,-11.503835,0.49308985
6.7931504,-11.503835,0.49308985
14.414501000000001,0.83777404,-1.2207563999999997
14.414501000000001,0.83777404,-1.2207563999999997
14.414501000000001,0.83777404,-1.2207563999999997
14.414501000000001,0.83777404,-1.2207563999999997
18.263474,2.2069361,-2.8197080000000003
18.263474,2.2069361,-2.8197080000000003
18.263474,2.2069361,-2.8197080000000003
18.263474,2.2069361,-2.8197080000000003
10.345312,-16.30069,1.9579976000000003
10.345312,-16.30069,1.9579976000000003
10.345312,-16.30069,1.9579976000000003
10.345312,-16.30069,1.9579976000000003
-9.809137,-19.594337,8.210186
-9.809137,-19.594337,8.210186
-9.809137,-19.594337,8.210186
-9.809137,-19.594337,8.210186
-9.799562,-8.305931,-0.03351096
-9.799562,-8.305931,-0.03351096
-9.799562,-8.305931,-0.03351096
-9.799562,-8.305931,-0.03351096
-9.799562,-8.305931,-0.03351096
-10.06765,8.861256,-3.0016246
-10.06765,8.861256,-3.0016246
-10.06765,8.861256,-3.0016246
-9.043172,3.451629,-1.0867126
-9.043172,3.451629,-1.0867126
-9.043172,3.451629,-1.0867126
-9.043172,3.451629,-1.0867126
-7.970821400000001,-18.263474,10.871913000000001
-7.970821400000001,-18.263474,10.871913000000001
-7.970821400000001,-18.263474,10.871913000000001
-7.970821400000001,-18.263474,10.871913000000001
-0.665432,-19.594337,12.087883
-0.665432,-19.594337,12.087883
-0.665432,-19.594337,12.087883
-0.665432,-19.594337,12.087883
7.482519,-9.876159,1.0005416
7.482519,-9.876159,1.0005416
7.482519,-9.876159,1.0005416
7.482519,-9.876159,1.0005416
7.482519,-9.876159,1.0005416
15.659194,0.18670394,1.8431028999999999
15.659194,0.18670394,1.8431028999999999
15.659194,0.18670394,1.8431028999999999
15.362382,-0.9430941999999999,-2.427151
15.362382,-0.9430941999999999,-2.427151
15.362382,-0.9430941999999999,-2.427151
15.362382,-0.9430941999999999,-2.427151
15.362382,-0.9430941999999999,-2.427151
4.255892299999999,-18.550710000000002,3.5473747
4.255892299999999,-18.550710000000002,3.5473747
4.255892299999999,-18.550710000000002,3.5473747
4.255892299999999,-18.550710000000002,3.5473747
-8.889978999999999,-17.133677,14.32833
-8.889978999999999,-17.133677,14.32833
-8.889978999999999,-17.133677,14.32833
-9.091045,-5.4335629999999995,0.05266008
-9.091045,-5.4335629999999995,0.05266008
-9.091045,-5.4335629999999995,0.05266008
-9.091045,-5.4335629999999995,0.05266008
-9.091045,-5.4335629999999995,0.05266008
-9.828286,5.0601554,-2.5803439999999997
-9.828286,5.0601554,-2.5803439999999997
-9.828286,5.0601554,-2.5803439999999997
-10.412334,-0.16755481,-2.1782124
-10.412334,-0.16755481,-2.1782124
-10.412334,-0.16755481,-2.1782124
-10.412334,-0.16755481,-2.1782124
-10.412334,-0.16755481,-2.1782124
-5.1846247000000005,-19.594337,12.662355999999999
-5.1846247000000005,-19.594337,12.662355999999999
-5.1846247000000005,-19.594337,12.662355999999999
-5.1846247000000005,-19.594337,12.662355999999999
4.1122737,-18.79965,6.429317500000001
4.1122737,-18.79965,6.429317500000001
4.1122737,-18.79965,6.429317500000001
10.575102000000001,-3.8920587999999996,-0.5792609000000001
10.575102000000001,-3.8920587999999996,-0.5792609000000001
10.575102000000001,-3.8920587999999996,-0.5792609000000001
10.575102000000001,-3.8920587999999996,-0.5792609000000001
10.575102000000001,-3.8920587999999996,-0.5792609000000001
16.84644,3.518651,0.2920241
16.84644,3.518651,0.2920241
16.84644,3.518651,0.2920241
16.84644,3.518651,0.2920241
13.7730055,-1.2494801000000002,0.8186249
13.7730055,-1.2494801000000002,0.8186249
13.7730055,-1.2494801000000002,0.8186249
13.7730055,-1.2494801000000002,0.8186249
0.36862057,-19.594337,-4.696322
0.36862057,-19.594337,-4.696322
0.36862057,-19.594337,-4.696322
0.36862057,-19.594337,-4.696322
-13.581514000000002,-15.850685,-0.0718092
-13.581514000000002,-15.850685,-0.0718092
-13.581514000000002,-15.850685,-0.0718092
-13.581514000000002,-15.850685,-0.0718092
-9.483603,0.6750065,-0.25372586
-9.483603,0.6750065,-0.25372586
-9.483603,0.6750065,-0.25372586
-9.483603,0.6750065,-0.25372586
-10.862339,14.012369,-4.7441945
-10.862339,14.012369,-4.7441945
-10.862339,14.012369,-4.7441945
-10.862339,14.012369,-4.7441945
-11.781497,-6.1229315,2.3984275
-11.781497,-6.1229315,2.3984275
-11.781497,-6.1229315,2.3984275
-11.781497,-6.1229315,2.3984275
-13.782579,-19.594337,15.209189000000002
-13.782579,-19.594337,15.209189000000002
-13.782579,-19.594337,15.209189000000002
-13.782579,-19.594337,15.209189000000002
7.5399666,-12.633633,-0.081383765
7.5399666,-12.633633,-0.081383765
7.5399666,-12.633633,-0.081383765
7.5399666,-12.633633,-0.081383765
12.767676,1.1824582000000001,-1.5558661
12.767676,1.1824582000000001,-1.5558661
12.767676,1.1824582000000001,-1.5558661
12.767676,1.1824582000000001,-1.5558661
17.420912,0.8473485999999999,-1.14416
17.420912,0.8473485999999999,-1.14416
17.420912,0.8473485999999999,-1.14416
17.420912,0.8473485999999999,-1.14416
7.597413499999999,-15.956005,1.9292740000000002
7.597413499999999,-15.956005,1.9292740000000002
7.597413499999999,-15.956005,1.9292740000000002
7.597413499999999,-15.956005,1.9292740000000002
-9.713391,-19.594337,8.305931
-9.713391,-19.594337,8.305931
-9.713391,-19.594337,8.305931
-9.713391,-19.594337,8.305931
-13.217680999999999,-11.360216000000001,1.8526775000000002
-13.217680999999999,-11.360216000000001,1.8526775000000002
-13.217680999999999,-11.360216000000001,1.8526775000000002
-13.217680999999999,-11.360216000000001,1.8526775000000002
-12.490014,10.374036,-4.763344
-12.490014,10.374036,-4.763344
-12.490014,10.374036,-4.763344
-12.490014,10.374036,-4.763344
-8.957002000000001,7.731457700000001,-4.610151
-8.957002000000001,7.731457700000001,-4.610151
-8.957002000000001,7.731457700000001,-4.610151
-8.957002000000001,7.731457700000001,-4.610151
-10.871913000000001,-13.265553,8.976150500000001
-10.871913000000001,-13.265553,8.976150500000001
-10.871913000000001,-13.265553,8.976150500000001
-10.871913000000001,-13.265553,8.976150500000001
-6.1899533,-19.594337,18.043259
-6.1899533,-19.594337,18.043259
-6.1899533,-19.594337,18.043259
-6.1899533,-19.594337,18.043259
7.520817299999999,-10.029352000000001,2.8388572
7.520817299999999,-10.029352000000001,2.8388572
7.520817299999999,-10.029352000000001,2.8388572
7.520817299999999,-10.029352000000001,2.8388572
14.730460999999998,-0.23457673,-1.5558661
14.730460999999998,-0.23457673,-1.5558661
14.730460999999998,-0.23457673,-1.5558661
14.730460999999998,-0.23457673,-1.5558661
13.121935,-3.5665237999999997,-0.665432
13.121935,-3.5665237999999997,-0.665432
13.121935,-3.5665237999999997,-0.665432
13.121935,-3.5665237999999997,-0.665432
2.905879,-19.594337,8.822957
2.905879,-19.594337,8.822957
2.905879,-19.594337,8.822957
2.905879,-19.594337,8.822957
-11.207023,-19.594337,12.422992
-11.207023,-19.594337,12.422992
-11.207023,-19.594337,12.422992
-11.207023,-19.594337,12.422992
-11.829369999999999,-7.8846507,1.7569318999999999
-11.829369999999999,-7.8846507,1.7569318999999999
-11.829369999999999,-7.8846507,1.7569318999999999
-11.829369999999999,-7.8846507,1.7569318999999999
-13.074062,11.752773,-4.428234
-13.074062,11.752773,-4.428234
-13.074062,11.752773,-4.428234
-13.074062,11.752773,-4.428234
-8.459125,6.2282515,-2.647366
-8.459125,6.2282515,-2.647366
-8.459125,6.2282515,-2.647366
-8.459125,6.2282515,-2.647366
-13.840027,-17.957088,12.700654
-13.840027,-17.957088,12.700654
-13.840027,-17.957088,12.700654
-13.840027,-17.957088,12.700654
-1.1345854,-19.594337,9.8953085
-1.1345854,-19.594337,9.8953085
-1.1345854,-19.594337,9.8953085
-1.1345854,-19.594337,9.8953085
9.818711,-9.253813000000001,-3.5378
9.818711,-9.253813000000001,-3.5378
9.818711,-9.253813000000001,-3.5378
9.818711,-9.253813000000001,-3.5378
9.818711,-9.253813000000001,-3.5378
16.95176,1.8335283,-3.8920587999999996
16.95176,1.8335283,-3.8920587999999996
16.95176,1.8335283,-3.8920587999999996
15.257062,-1.1633091,-4.0261025
15.257062,-1.1633091,-4.0261025
15.257062,-1.1633091,-4.0261025
15.257062,-1.1633091,-4.0261025
15.257062,-1.1633091,-4.0261025
-1.0005416,-19.565615,-1.469695
-1.0005416,-19.565615,-1.469695
-1.0005416,-19.565615,-1.469695
-1.0005416,-19.565615,-1.469695
-13.868751000000001,-16.434732,3.6431203
-13.868751000000001,-16.434732,3.6431203
-13.868751000000001,-16.434732,3.6431203
-7.022939999999999,-3.9782297999999994,-2.6952388
-7.022939999999999,-3.9782297999999994,-2.6952388
-7.022939999999999,-3.9782297999999994,-2.6952388
-7.022939999999999,-3.9782297999999994,-2.6952388
-7.022939999999999,-3.9782297999999994,-2.6952388
-13.34215,9.454879,-4.8878129999999995
-13.34215,9.454879,-4.8878129999999995
-13.34215,9.454879,-4.8878129999999995
-13.34215,9.454879,-4.8878129999999995
-11.666602000000001,-0.751603,1.948423
-11.666602000000001,-0.751603,1.948423
-11.666602000000001,-0.751603,1.948423
-11.666602000000001,-0.751603,1.948423
-12.490014,-19.594337,16.482605
-12.490014,-19.594337,16.482605
-12.490014,-19.594337,16.482605
-12.490014,-19.594337,16.482605
5.3378177,-16.243242000000002,2.666515
5.3378177,-16.243242000000002,2.666515
5.3378177,-16.243242000000002,2.666515
5.3378177,-16.243242000000002,2.666515
11.025106,-1.3069274,-3.0303482999999996
11.025106,-1.3069274,-3.0303482999999996
11.025106,-1.3069274,-3.0303482999999996
11.025106,-1.3069274,-3.0303482999999996
18.052834,1.3930986,-4.1888704
18.052834,1.3930986,-4.1888704
18.052834,1.3930986,-4.1888704
18.052834,1.3930986,-4.1888704
10.651698,-15.113443,0.8760723
10.651698,-15.113443,0.8760723
10.651698,-15.113443,0.8760723
10.651698,-15.113443,0.8760723
-9.292110000000001,-19.594337,11.7336235
-9.292110000000001,-19.594337,11.7336235
-9.292110000000001,-19.594337,11.7336235
-9.292110000000001,-19.594337,11.7336235
-11.800646,-12.470865,4.5527034
-11.800646,-12.470865,4.5527034
-11.800646,-12.470865,4.5527034
-11.800646,-12.470865,4.5527034
-9.876159,5.519734,-4.543129
-9.876159,5.519734,-4.543129
-9.876159,5.519734,-4.543129
-9.876159,5.519734,-4.543129
-7.7793303,6.304848000000001,-3.2505634
-7.7793303,6.304848000000001,-3.2505634
-7.7793303,6.304848000000001,-3.2505634
-7.7793303,6.304848000000001,-3.2505634
-6.9942164,-13.150659,5.8548436
-6.9942164,-13.150659,5.8548436
-6.9942164,-13.150659,5.8548436
-6.9942164,-13.150659,5.8548436
-1.0579889,-19.594337,14.816632
-1.0579889,-19.594337,14.816632
-1.0579889,-19.594337,14.816632
-1.0579889,-19.594337,14.816632
6.764427,-10.680422,1.6133133999999998
6.764427,-10.680422,1.6133133999999998
6.764427,-10.680422,1.6133133999999998
6.764427,-10.680422,1.6133133999999998
14.32833,0.2441513,-0.25372586
14.32833,0.2441513,-0.25372586
14.32833,0.2441513,-0.25372586
14.32833,0.2441513,-0.25372586
17.650702,1.6037389,-0.78032666
17.650702,1.6037389,-0.78032666
17.650702,1.6037389,-0.78032666
17.650702,1.6037389,-0.78032666
9.407005,-18.004960999999998,2.101616
9.407005,-18.004960999999998,2.101616
9.407005,-18.004960999999998,2.101616
9.407005,-18.004960999999998,2.101616
-10.6134,-19.594337,10.345312
-10.6134,-19.594337,10.345312
-10.6134,-19.594337,10.345312
-10.6134,-19.594337,10.345312
-12.614484,-5.8931417,1.4888442
-12.614484,-5.8931417,1.4888442
-12.614484,-5.8931417,1.4888442
-12.614484,-5.8931417,1.4888442
-10.575102000000001,14.941101999999999,-5.146326
-10.575102000000001,14.941101999999999,-5.146326
-10.575102000000001,14.941101999999999,-5.146326
-10.575102000000001,14.941101999999999,-5.146326
-13.725132,-1.0388398,-2.149489
-13.725132,-1.0388398,-2.149489
-13.725132,-1.0388398,-2.149489
-13.725132,-1.0388398,-2.149489
-11.398514,-19.594337,15.745364000000002
-11.398514,-19.594337,15.745364000000002
-11.398514,-19.594337,15.745364000000002
-11.398514,-19.594337,15.745364000000002
-1.0579889,-18.071983,5.222923000000001
-1.0579889,-18.071983,5.222923000000001
-1.0579889,-18.071983,5.222923000000001
-1.0579889,-18.071983,5.222923000000001
8.44955,-6.285699,-1.5941644
8.44955,-6.285699,-1.5941644
8.44955,-6.285699,-1.5941644
8.44955,-6.285699,-1.5941644
16.377285,2.1782124,0.2154276
16.377285,2.1782124,0.2154276
16.377285,2.1782124,0.2154276
16.377285,2.1782124,0.2154276
14.730460999999998,-2.0058703,-1.4122477
14.730460999999998,-2.0058703,-1.4122477
14.730460999999998,-2.0058703,-1.4122477
14.730460999999998,-2.0058703,-1.4122477
0.359046,-19.594337,0.512239
0.359046,-19.594337,0.512239
0.359046,-19.594337,0.512239
0.359046,-19.594337,0.512239
-13.811303,-19.153907999999998,6.7165539999999995
-13.811303,-19.153907999999998,6.7165539999999995
-13.811303,-19.153907999999998,6.7165539999999995
-13.811303,-19.153907999999998,6.7165539999999995
-9.722966,-3.7005677,-3.451629
-9.722966,-3.7005677,-3.451629
-9.722966,-3.7005677,-3.451629
-9.722966,-3.7005677,-3.451629
-9.722966,-3.7005677,-3.451629
-11.072979,14.050668,-2.800559
-11.072979,14.050668,-2.800559
-11.072979,14.050668,-2.800559
-11.72405,-1.5750152,-0.42606795
-11.72405,-1.5750152,-0.42606795
-11.72405,-1.5750152,-0.42606795
-11.72405,-1.5750152,-0.42606795
-12.183628,-19.594337,15.649619
-12.183628,-19.594337,15.649619
-12.183628,-19.594337,15.649619
-12.183628,-19.594337,15.649619
-12.183628,-19.594337,15.649619
3.2792869,-17.401764,2.9346027
3.2792869,-17.401764,2.9346027
3.2792869,-17.401764,2.9346027
8.028269,-2.494173,0.110107444
8.028269,-2.494173,0.110107444
8.028269,-2.494173,0.110107444
8.028269,-2.494173,0.110107444
8.028269,-2.494173,0.110107444
17.487934,3.0973704,-2.9250283
17.487934,3.0973704,-2.9250283
17.487934,3.0973704,-2.9250283
15.314509,-3.3558834,-3.4420545
15.314509,-3.3558834,-3.4420545
15.314509,-3.3558834,-3.4420545
15.314509,-3.3558834,-3.4420545
0.512239,-19.594337,2.972901
0.512239,-19.594337,2.972901
0.512239,-19.594337,2.972901
0.512239,-19.594337,2.972901
0.512239,-19.594337,2.972901
-11.245321,-17.526234,5.730374299999999
-11.245321,-17.526234,5.730374299999999
-11.245321,-17.526234,5.730374299999999
-15.458128,4.619725,-1.6707608
-15.458128,4.619725,-1.6707608
-15.458128,4.619725,-1.6707608
-15.458128,4.619725,-1.6707608
-15.458128,4.619725,-1.6707608
-12.154904,8.593167999999999,-4.016528
-12.154904,8.593167999999999,-4.016528
-12.154904,8.593167999999999,-4.016528
-12.154904,8.593167999999999,-4.016528
-8.947427000000001,-16.520905,5.998462
-8.947427000000001,-16.520905,5.998462
-8.947427000000001,-16.520905,5.998462
-8.947427000000001,-16.520905,5.998462
-1.1633091,-19.594337,12.595334
-1.1633091,-19.594337,12.595334
-1.1633091,-19.594337,12.595334
-1.1633091,-19.594337,12.595334
6.5537868,-11.752773,1.2207563999999997
6.5537868,-11.752773,1.2207563999999997
6.5537868,-11.752773,1.2207563999999997
6.5537868,-11.752773,1.2207563999999997
9.742115,-0.8952214,0.34947145
9.742115,-0.8952214,0.34947145
9.742115,-0.8952214,0.34947145
9.742115,-0.8952214,0.34947145
17.535807000000002,2.647366,-0.7324539000000001
17.535807000000002,2.647366,-0.7324539000000001
17.535807000000002,2.647366,-0.7324539000000001
17.535807000000002,2.647366,-0.7324539000000001
13.974070999999999,-11.072979,-0.91437054
13.974070999999999,-11.072979,-0.91437054
13.974070999999999,-11.072979,-0.91437054
13.974070999999999,-11.072979,-0.91437054
-4.849515,-19.594337,9.703816999999999
-4.849515,-19.594337,9.703816999999999
-4.849515,-19.594337,9.703816999999999
-4.849515,-19.594337,9.703816999999999
-10.785743,-14.74961,6.6591067
-10.785743,-14.74961,6.6591067
-10.785743,-14.74961,6.6591067
-10.785743,-14.74961,6.6591067
-12.863422,6.065484,-3.2505634
-12.863422,6.065484,-3.2505634
-12.863422,6.065484,-3.2505634
-12.863422,6.065484,-3.2505634
-12.729378,9.675094,-2.5994933
-12.729378,9.675094,-2.5994933
-12.729378,9.675094,-2.5994933
-12.729378,9.675094,-2.5994933
-11.522984,-15.898558,8.277207
-11.522984,-15.898558,8.277207
-11.522984,-15.898558,8.277207
-11.522984,-15.898558,8.277207
-6.0463347,-19.594337,14.9794
-6.0463347,-19.594337,14.9794
-6.0463347,-19.594337,14.9794
-6.0463347,-19.594337,14.9794
4.993133,-13.179382,1.0867126
4.993133,-13.179382,1.0867126
4.993133,-13.179382,1.0867126
4.993133,-13.179382,1.0867126
10.814466,-2.800559,2.3122563
10.814466,-2.800559,2.3122563
10.814466,-2.800559,2.3122563
10.814466,-2.800559,2.3122563
15.927280999999999,0.77075213,-0.27287498
15.927280999999999,0.77075213,-0.27287498
15.927280999999999,0.77075213,-0.27287498
15.927280999999999,0.77075213,-0.27287498
11.810221,-15.620895,-2.034594
11.810221,-15.620895,-2.034594
11.810221,-15.620895,-2.034594
11.810221,-15.620895,-2.034594
-9.253813000000001,-19.594337,4.696322
-9.253813000000001,-19.594337,4.696322
-9.253813000000001,-19.594337,4.696322
-9.253813000000001,-19.594337,4.696322
-10.910212,-13.7730055,1.5941644
-10.910212,-13.7730055,1.5941644
-10.910212,-13.7730055,1.5941644
-10.910212,-13.7730055,1.5941644
-11.063405,10.450633,-2.2452345
-11.063405,10.450633,-2.2452345
-11.063405,10.450633,-2.2452345
-11.063405,10.450633,-2.2452345
-14.012369,5.452712,-1.4601203999999999
-14.012369,5.452712,-1.4601203999999999
-14.012369,5.452712,-1.4601203999999999
-14.012369,5.452712,-1.4601203999999999
-14.519820999999999,-19.594337,10.316589
-14.519820999999999,-19.594337,10.316589
-14.519820999999999,-19.594337,10.316589
-14.519820999999999,-19.594337,10.316589
-4.1122737,-19.594337,6.1420803
-4.1122737,-19.594337,6.1420803
-4.1122737,-19.594337,6.1420803
-4.1122737,-19.594337,6.1420803
8.966576,-10.594251,-0.23457673
8.966576,-10.594251,-0.23457673
8.966576,-10.594251,-0.23457673
8.966576,-10.594251,-0.23457673
18.02411,-0.36862057,-1.2590546999999999
18.02411,-0.36862057,-1.2590546999999999
18.02411,-0.36862057,-1.2590546999999999
18.02411,-0.36862057,-1.2590546999999999
15.774088,-5.835694999999999,-3.1643922000000004
15.774088,-5.835694999999999,-3.1643922000000004
15.774088,-5.835694999999999,-3.1643922000000004
15.774088,-5.835694999999999,-3.1643922000000004
0.9718179,-19.594337,-2.101616
0.9718179,-19.594337,-2.101616
0.9718179,-19.594337,-2.101616
0.9718179,-19.594337,-2.101616
-16.214517999999998,-18.435816,4.696322
-16.214517999999998,-18.435816,4.696322
-16.214517999999998,-18.435816,4.696322
-16.214517999999998,-18.435816,4.696322
-9.713391,-1.4313968000000001,-0.359046
-9.713391,-1.4313968000000001,-0.359046
-9.713391,-1.4313968000000001,-0.359046
-9.713391,-1.4313968000000001,-0.359046
-9.713391,-1.4313968000000001,-0.359046
-9.339984,12.882571,-2.101616
-9.339984,12.882571,-2.101616
-9.339984,12.882571,-2.101616
-13.830453,-1.9962958,1.0005416
-13.830453,-1.9962958,1.0005416
-13.830453,-1.9962958,1.0005416
-13.830453,-1.9962958,1.0005416
-17.37304,-19.594337,15.860259
-17.37304,-19.594337,15.860259
-17.37304,-19.594337,15.860259
-17.37304,-19.594337,15.860259
-17.37304,-19.594337,15.860259
-2.2356597999999996,-18.703903,4.045252
-2.2356597999999996,-18.703903,4.045252
-2.2356597999999996,-18.703903,4.045252
13.878325,-7.291027499999999,1.1728836
13.878325,-7.291027499999999,1.1728836
13.878325,-7.291027499999999,1.1728836
13.878325,-7.291027499999999,1.1728836
13.878325,-7.291027499999999,1.1728836
19.517742000000002,-2.1877869999999997,-1.9867213
19.517742000000002,-2.1877869999999997,-1.9867213
19.517742000000002,-2.1877869999999997,-1.9867213
19.517742000000002,-2.1877869999999997,-1.9867213
9.924032,-17.085804,-1.2590546999999999
9.924032,-17.085804,-1.2590546999999999
9.924032,-17.085804,-1.2590546999999999
-12.174053,-19.594337,4.5910015
-12.174053,-19.594337,4.5910015
-12.174053,-19.594337,4.5910015
-12.174053,-19.594337,4.5910015
-12.174053,-19.594337,4.5910015
-16.84644,-16.415585,3.2697124
-16.84644,-16.415585,3.2697124
-16.84644,-16.415585,3.2697124
-16.84644,-16.415585,3.2697124
-13.571939000000002,10.010203,-3.384607
-13.571939000000002,10.010203,-3.384607
-13.571939000000002,10.010203,-3.384607
-13.571939000000002,10.010203,-3.384607
-10.019777000000001,11.695326,-2.2835326
-10.019777000000001,11.695326,-2.2835326
-10.019777000000001,11.695326,-2.2835326
-10.019777000000001,11.695326,-2.2835326
-14.500670999999999,-11.59958,5.0505805
-14.500670999999999,-11.59958,5.0505805
-14.500670999999999,-11.59958,5.0505805
-14.500670999999999,-11.59958,5.0505805
-11.034680999999999,-19.594337,16.961334
-11.034680999999999,-19.594337,16.961334
-11.034680999999999,-19.594337,16.961334
-11.034680999999999,-19.594337,16.961334
3.8920587999999996,-12.279374,4.6675982000000005
3.8920587999999996,-12.279374,4.6675982000000005
3.8920587999999996,-12.279374,4.6675982000000005
3.8920587999999996,-12.279374,4.6675982000000005
15.707067000000002,-3.1260939999999997,2.2165107999999996
15.707067000000002,-3.1260939999999997,2.2165107999999996
15.707067000000002,-3.1260939999999997,2.2165107999999996
15.707067000000002,-3.1260939999999997,2.2165107999999996
16.252817,-2.0058703,-1.8048046999999998
16.252817,-2.0058703,-1.8048046999999998
16.252817,-2.0058703,-1.8048046999999998
16.252817,-2.0058703,-1.8048046999999998
7.8846507,-17.459211,-4.303765
7.8846507,-17.459211,-4.303765
7.8846507,-17.459211,-4.303765
7.8846507,-17.459211,-4.303765
-16.329411999999998,-19.594337,2.4845984
-16.329411999999998,-19.594337,2.4845984
-16.329411999999998,-19.594337,2.4845984
-16.329411999999998,-19.594337,2.4845984
-13.648535999999998,-11.781497,1.0867126
-13.648535999999998,-11.781497,1.0867126
-13.648535999999998,-11.781497,1.0867126
-13.648535999999998,-11.781497,1.0867126
-11.59958,11.676176,-1.2590546999999999
-11.59958,11.676176,-1.2590546999999999
-11.59958,11.676176,-1.2590546999999999
-11.59958,11.676176,-1.2590546999999999
-11.59958,7.9995449999999995,0.5313880999999999
-11.59958,7.9995449999999995,0.5313880999999999
-11.59958,7.9995449999999995,0.5313880999999999
-11.59958,7.9995449999999995,0.5313880999999999
-17.344316,-16.741120000000002,8.612317
-17.344316,-16.741120000000002,8.612317
-17.344316,-16.741120000000002,8.612317
-17.344316,-16.741120000000002,8.612317
-10.651698,-19.594337,11.178299
-10.651698,-19.594337,11.178299
-10.651698,-19.594337,11.178299
-10.651698,-19.594337,11.178299
4.715471,-13.141085,-1.948423
4.715471,-13.141085,-1.948423
4.715471,-13.141085,-1.948423
4.715471,-13.141085,-1.948423
16.903887,-3.8824842000000004,-1.5750152
16.903887,-3.8824842000000004,-1.5750152
16.903887,-3.8824842000000004,-1.5750152
16.903887,-3.8824842000000004,-1.5750152
16.84644,-3.4612036,-3.671844
16.84644,-3.4612036,-3.671844
16.84644,-3.4612036,-3.671844
16.84644,-3.4612036,-3.671844
5.06973,-19.594337,-0.6558574
5.06973,-19.594337,-0.6558574
5.06973,-19.594337,-0.6558574
5.06973,-19.594337,-0.6558574
-16.520905,-19.517742000000002,8.736787
-16.520905,-19.517742000000002,8.736787
-16.520905,-19.517742000000002,8.736787
-16.520905,-19.517742000000002,8.736787
-12.0400095,-9.722966,2.149489
-12.0400095,-9.722966,2.149489
-12.0400095,-9.722966,2.149489
-12.0400095,-9.722966,2.149489
-13.150659,12.442142,-3.518651
-13.150659,12.442142,-3.518651
-13.150659,12.442142,-3.518651
-13.150659,12.442142,-3.518651
-11.38894,3.690993,-0.59841
-11.38894,3.690993,-0.59841
-11.38894,3.690993,-0.59841
-11.38894,3.690993,-0.59841
-10.555953,-19.594337,15.515575
-10.555953,-19.594337,15.515575
-10.555953,-19.594337,15.515575
-10.555953,-19.594337,15.515575
-0.34947145,-19.230504999999997,9.5889225
-0.34947145,-19.230504999999997,9.5889225
-0.34947145,-19.230504999999997,9.5889225
-0.34947145,-19.230504999999997,9.5889225
7.7601814,-6.5729356,0.2154276
7.7601814,-6.5729356,0.2154276
7.7601814,-6.5729356,0.2154276
7.7601814,-6.5729356,0.2154276
7.7601814,-6.5729356,0.2154276
16.080475,1.0867126,-1.5750152
16.080475,1.0867126,-1.5750152
16.080475,1.0867126,-1.5750152
15.73579,-1.1154363,-1.9101248
15.73579,-1.1154363,-1.9101248
15.73579,-1.1154363,-1.9101248
15.73579,-1.1154363,-1.9101248
2.321831,-19.594337,10.843189
2.321831,-19.594337,10.843189
2.321831,-19.594337,10.843189
2.321831,-19.594337,10.843189
2.321831,-19.594337,10.843189
-9.359133,-18.751776,11.178299
-9.359133,-18.751776,11.178299
-9.359133,-18.751776,11.178299
-8.784659,-2.7814097,-2.5899186000000003
-8.784659,-2.7814097,-2.5899186000000003
-8.784659,-2.7814097,-2.5899186000000003
-8.784659,-2.7814097,-2.5899186000000003
-8.784659,-2.7814097,-2.5899186000000003
-10.249566999999999,9.091045,-4.456958
-10.249566999999999,9.091045,-4.456958
-10.249566999999999,9.091045,-4.456958
-10.249566999999999,9.091045,-4.456958
-11.59958,-2.8388572,2.254809
-11.59958,-2.8388572,2.254809
-11.59958,-2.8388572,2.254809
-8.4686985,-19.594337,18.665606
-8.4686985,-19.594337,18.665606
-8.4686985,-19.594337,18.665606
-8.4686985,-19.594337,18.665606
-8.4686985,-19.594337,18.665606
2.800559,-16.961334,7.080387599999999
2.800559,-16.961334,7.080387599999999
2.800559,-16.961334,7.080387599999999
2.800559,-16.961334,7.080387599999999
8.028269,-0.77075213,0.45479164
8.028269,-0.77075213,0.45479164
8.028269,-0.77075213,0.45479164
8.028269,-0.77075213,0.45479164
16.913462,3.6526947,-2.0824668
16.913462,3.6526947,-2.0824668
16.913462,3.6526947,-2.0824668
13.983645000000001,-0.7324539000000001,-0.63670826
13.983645000000001,-0.7324539000000001,-0.63670826
13.983645000000001,-0.7324539000000001,-0.63670826
13.983645000000001,-0.7324539000000001,-0.63670826
13.983645000000001,-0.7324539000000001,-0.63670826
0.56968635,-19.594337,9.502751
0.56968635,-19.594337,9.502751
0.56968635,-19.594337,9.502751
0.56968635,-19.594337,9.502751
-13.198531,-16.492179999999998,14.079391500000002
-13.198531,-16.492179999999998,14.079391500000002
-13.198531,-16.492179999999998,14.079391500000002
-11.819795,0.5888355,-2.1207652
-11.819795,0.5888355,-2.1207652
-11.819795,0.5888355,-2.1207652
-11.819795,0.5888355,-2.1207652
-11.819795,0.5888355,-2.1207652
-9.569773,13.227255,-6.1899533
-9.569773,13.227255,-6.1899533
-9.569773,13.227255,-6.1899533
-9.569773,13.227255,-6.1899533
-12.116607,-4.0356774,0.2154276
-12.116607,-4.0356774,0.2154276
-12.116607,-4.0356774,0.2154276
-12.116607,-4.0356774,0.2154276
-11.245321,-19.594337,19.441145000000002
-11.245321,-19.594337,19.441145000000002
-11.245321,-19.594337,19.441145000000002
-11.245321,-19.594337,19.441145000000002
2.6090677,-18.32092,4.8207912
2.6090677,-18.32092,4.8207912
2.6090677,-18.32092,4.8207912
2.6090677,-18.32092,4.8207912
9.531475,-3.7867386,-0.6558574
9.531475,-3.7867386,-0.6558574
9.531475,-3.7867386,-0.6558574
9.531475,-3.7867386,-0.6558574
17.564531,2.2452345,-2.8484317999999997
17.564531,2.2452345,-2.8484317999999997
17.564531,2.2452345,-2.8484317999999997
17.564531,2.2452345,-2.8484317999999997
10.40276,-4.1601467,1.14416
10.40276,-4.1601467,1.14416
10.40276,-4.1601467,1.14416
10.40276,-4.1601467,1.14416
-6.678256,-19.594337,19.594337
-6.678256,-19.594337,19.594337
-6.678256,-19.594337,19.594337
-6.678256,-19.594337,19.594337
-7.683584700000001,-15.362382,11.886817
-7.683584700000001,-15.362382,11.886817
-7.683584700000001,-15.362382,11.886817
-7.683584700000001,-15.362382,11.886817
-10.06765,3.1452432,-5.28037
-10.06765,3.1452432,-5.28037
-10.06765,3.1452432,-5.28037
-10.06765,3.1452432,-5.28037
-9.20594,12.25065,-7.5112429999999994
-9.20594,12.25065,-7.5112429999999994
-9.20594,12.25065,-7.5112429999999994
-9.20594,12.25065,-7.5112429999999994
-14.443225,-6.9559183,1.5845897
-14.443225,-6.9559183,1.5845897
-14.443225,-6.9559183,1.5845897
-14.443225,-6.9559183,1.5845897
-10.431483,-19.594337,19.594337
-10.431483,-19.594337,19.594337
-10.431483,-19.594337,19.594337
-10.431483,-19.594337,19.594337
3.0686467,-16.654947,4.811217
3.0686467,-16.654947,4.811217
3.0686467,-16.654947,4.811217
3.0686467,-16.654947,4.811217
9.837861,-2.752686,-0.69415563
9.837861,-2.752686,-0.69415563
9.837861,-2.752686,-0.69415563
9.837861,-2.752686,-0.69415563
17.851768,1.7377827000000001,-2.1399142999999996
17.851768,1.7377827000000001,-2.1399142999999996
17.851768,1.7377827000000001,-2.1399142999999996
17.851768,1.7377827000000001,-2.1399142999999996
11.743198,-9.167641999999999,4.581427
11.743198,-9.167641999999999,4.581427
11.743198,-9.167641999999999,4.581427
11.743198,-9.167641999999999,4.581427
-3.5282254,-19.594337,19.594337
-3.5282254,-19.594337,19.594337
-3.5282254,-19.594337,19.594337
-3.5282254,-19.594337,19.594337
-7.5782647,-14.634716000000001,11.475111
-7.5782647,-14.634716000000001,11.475111
-7.5782647,-14.634716000000001,11.475111
-7.5782647,-14.634716000000001,11.475111
-9.799562,4.610151,-4.4856815
-9.799562,4.610151,-4.4856815
-9.799562,4.610151,-4.4856815
-9.799562,4.610151,-4.4856815
-8.842107,9.349558,-6.0559096
-8.842107,9.349558,-6.0559096
-8.842107,9.349558,-6.0559096
-8.842107,9.349558,-6.0559096
-14.893229000000002,-6.1612295999999995,3.4612036
-14.893229000000002,-6.1612295999999995,3.4612036
-14.893229000000002,-6.1612295999999995,3.4612036
-14.893229000000002,-6.1612295999999995,3.4612036
-14.893229000000002,-6.1612295999999995,3.4612036
-13.581514000000002,-19.594337,19.594337
-13.581514000000002,-19.594337,19.594337
-13.581514000000002,-19.594337,19.594337
5.1367517,-17.612404,3.3654580000000003
5.1367517,-17.612404,3.3654580000000003
5.1367517,-17.612404,3.3654580000000003
5.1367517,-17.612404,3.3654580000000003
5.1367517,-17.612404,3.3654580000000003
7.9899707,-1.8909756999999998,-2.6186423
7.9899707,-1.8909756999999998,-2.6186423
7.9899707,-1.8909756999999998,-2.6186423
7.9899707,-1.8909756999999998,-2.6186423
17.363466,2.9346027,-4.284616000000001
17.363466,2.9346027,-4.284616000000001
17.363466,2.9346027,-4.284616000000001
13.571939000000002,-9.531475,0.26330042
13.571939000000002,-9.531475,0.26330042
13.571939000000002,-9.531475,0.26330042
13.571939000000002,-9.531475,0.26330042
-3.7292912000000005,-19.594337,10.06765
-3.7292912000000005,-19.594337,10.06765
-3.7292912000000005,-19.594337,10.06765
-3.7292912000000005,-19.594337,10.06765
-3.7292912000000005,-19.594337,10.06765
-10.565528,-17.574106,-1.8718264999999998
-10.565528,-17.574106,-1.8718264999999998
-10.565528,-17.574106,-1.8718264999999998
-10.565528,-17.574106,-1.8718264999999998
-12.940019,3.671844,-2.149489
-12.940019,3.671844,-2.149489
-12.940019,3.671844,-2.149489
-12.815549,15.477276999999999,-2.6569404999999997
-12.815549,15.477276999999999,-2.6569404999999997
-12.815549,15.477276999999999,-2.6569404999999997
-12.815549,15.477276999999999,-2.6569404999999997
-12.815549,15.477276999999999,-2.6569404999999997
-11.944264,-9.665519,-0.32074776
-11.944264,-9.665519,-0.32074776
-11.944264,-9.665519,-0.32074776
-11.944264,-9.665519,-0.32074776
-12.375119,-18.35922,17.392189000000002
-12.375119,-18.35922,17.392189000000002
-12.375119,-18.35922,17.392189000000002
-3.8920587999999996,-9.761265,6.314422599999999
-3.8920587999999996,-9.761265,6.314422599999999
-3.8920587999999996,-9.761265,6.314422599999999
-3.8920587999999996,-9.761265,6.314422599999999
-3.8920587999999996,-9.761265,6.314422599999999
5.0793040000000005,-7.6452865999999995,-1.6037389
5.0793040000000005,-7.6452865999999995,-1.6037389
5.0793040000000005,-7.6452865999999995,-1.6037389
5.0793040000000005,-7.6452865999999995,-1.6037389
12.509163000000001,-6.9559183,-1.3739493999999999
12.509163000000001,-6.9559183,-1.3739493999999999
12.509163000000001,-6.9559183,-1.3739493999999999
4.849515,-19.498592000000002,2.4463003
4.849515,-19.498592000000002,2.4463003
4.849515,-19.498592000000002,2.4463003
4.849515,-19.498592000000002,2.4463003
4.849515,-19.498592000000002,2.4463003
-14.002794,-19.594337,10.527229
-14.002794,-19.594337,10.527229
-14.002794,-19.594337,10.527229
-14.002794,-19.594337,10.527229
-19.249653,-12.930444,11.695326
-19.249653,-12.930444,11.695326
-19.249653,-12.930444,11.695326
-19.249653,-12.930444,11.695326
-11.274045,-4.428234,2.1877869999999997
-11.274045,-4.428234,2.1877869999999997
-11.274045,-4.428234,2.1877869999999997
-11.274045,-4.428234,2.1877869999999997
-10.527229,7.865501400000001,-2.0920415
-10.527229,7.865501400000001,-2.0920415
-10.527229,7.865501400000001,-2.0920415
-10.527229,7.865501400000001,-2.0920415
-7.281453,8.076141,-3.9207826
-7.281453,8.076141,-3.9207826
-7.281453,8.076141,-3.9207826
-7.281453,8.076141,-3.9207826
-4.5527034,-1.1633091,1.9196993000000002
-4.5527034,-1.1633091,1.9196993000000002
-4.5527034,-1.1633091,1.9196993000000002
-4.5527034,-1.1633091,1.9196993000000002
-16.453882,-12.212352000000001,10.239991999999999
-16.453882,-12.212352000000001,10.239991999999999
-16.453882,-12.212352000000001,10.239991999999999
-16.453882,-12.212352000000001,10.239991999999999
-19.603912,-13.246405,5.366541000000001
-19.603912,-13.246405,5.366541000000001
-19.603912,-13.246405,5.366541000000001
-19.603912,-13.246405,5.366541000000001
-18.225176,-4.916537,1.8909756999999998
-18.225176,-4.916537,1.8909756999999998
-18.225176,-4.916537,1.8909756999999998
-18.225176,-4.916537,1.8909756999999998
-6.391019,-3.6431203,-1.4122477
-6.391019,-3.6431203,-1.4122477
-6.391019,-3.6431203,-1.4122477
-6.391019,-3.6431203,-1.4122477
-9.971905,-8.200611,-5.031431700000001
-9.971905,-8.200611,-5.031431700000001
-9.971905,-8.200611,-5.031431700000001
-9.971905,-8.200611,-5.031431700000001
-17.813469,-7.5303917,-2.2643836
-17.813469,-7.5303917,-2.2643836
-17.813469,-7.5303917,-2.2643836
-17.813469,-7.5303917,-2.2643836
-11.522984,-0.42606795,3.0686467
-11.522984,-0.42606795,3.0686467
-11.522984,-0.42606795,3.0686467
-11.522984,-0.42606795,3.0686467
-10.900637,-6.7548523000000005,-0.98139244
-10.900637,-6.7548523000000005,-0.98139244
-10.900637,-6.7548523000000005,-0.98139244
-10.900637,-6.7548523000000005,-0.98139244
-13.658110999999998,-6.304848000000001,-1.8718264999999998
-13.658110999999998,-6.304848000000001,-1.8718264999999998
-13.658110999999998,-6.304848000000001,-1.8718264999999998
-13.658110999999998,-6.304848000000001,-1.8718264999999998
-17.583681,12.087883,-4.3803616
-17.583681,12.087883,-4.3803616
-17.583681,12.087883,-4.3803616
-17.583681,12.087883,-4.3803616
-9.665519,4.8590894,1.6420371999999999
-9.665519,4.8590894,1.6420371999999999
-9.665519,4.8590894,1.6420371999999999
-9.665519,4.8590894,1.6420371999999999
-11.819795,-5.941015,5.289944599999999
-11.819795,-5.941015,5.289944599999999
-11.819795,-5.941015,5.289944599999999
-11.819795,-5.941015,5.289944599999999
-8.459125,-1.1920328000000002,3.4612036
-8.459125,-1.1920328000000002,3.4612036
-8.459125,-1.1920328000000002,3.4612036
-8.459125,-1.1920328000000002,3.4612036
-8.459125,-1.1920328000000002,3.4612036
-5.8644185,-1.1537346000000002,2.2260852000000004
-5.8644185,-1.1537346000000002,2.2260852000000004
-5.8644185,-1.1537346000000002,2.2260852000000004
-7.741032000000001,-2.168638,1.2016073
-7.741032000000001,-2.168638,1.2016073
-7.741032000000001,-2.168638,1.2016073
-7.741032000000001,-2.168638,1.2016073
-12.968742,-2.8101335,3.6143966
-12.968742,-2.8101335,3.6143966
-12.968742,-2.8101335,3.6143966
-12.968742,-2.8101335,3.6143966
-12.968742,-2.8101335,3.6143966
-14.337904,-4.3324885,1.8048046999999998
-14.337904,-4.3324885,1.8048046999999998
-14.337904,-4.3324885,1.8048046999999998
-9.138917999999999,-3.7101421,-1.2590546999999999
-9.138917999999999,-3.7101421,-1.2590546999999999
-9.138917999999999,-3.7101421,-1.2590546999999999
-9.138917999999999,-3.7101421,-1.2590546999999999
-7.7123084,-4.2654667,-1.0579889
-7.7123084,-4.2654667,-1.0579889
-7.7123084,-4.2654667,-1.0579889
-7.7123084,-4.2654667,-1.0579889
-7.7123084,-4.2654667,-1.0579889
-8.315506,-2.5707695,1.4122477
-8.315506,-2.5707695,1.4122477
-8.315506,-2.5707695,1.4122477
-8.315506,-2.5707695,1.4122477
-8.315506,-2.5707695,1.4122477
-8.315506,-2.5707695,1.4122477
-8.315506,-2.5707695,1.4122477
-9.933606,-3.4707782,1.2877783999999999
-9.933606,-3.4707782,1.2877783999999999
-9.933606,-3.4707782,1.2877783999999999
-9.933606,-3.4707782,1.2877783999999999
-8.679339,-3.2984362000000003,1.1633091
-8.679339,-3.2984362000000003,1.1633091
-8.679339,-3.2984362000000003,1.1633091
-8.679339,-3.2984362000000003,1.1633091
-10.632549000000001,2.800559,3.9590807
-10.632549000000001,2.800559,3.9590807
-10.632549000000001,2.800559,3.9590807
-10.632549000000001,2.800559,3.9590807
-10.2016945,0.6750065,3.9686553
-10.2016945,0.6750065,3.9686553
-10.2016945,0.6750065,3.9686553
-10.2016945,0.6750065,3.9686553
-10.2016945,0.6750065,3.9686553
-9.196365,0.64628285,2.88673
-9.196365,0.64628285,2.88673
-9.196365,0.64628285,2.88673
-7.7793303,-2.8197080000000003,-1.383524
-7.7793303,-2.8197080000000003,-1.383524
-7.7793303,-2.8197080000000003,-1.383524
-7.7793303,-2.8197080000000003,-1.383524
-8.889978999999999,-4.648448999999999,-1.4601203999999999
-8.889978999999999,-4.648448999999999,-1.4601203999999999
-8.889978999999999,-4.648448999999999,-1.4601203999999999
-8.889978999999999,-4.648448999999999,-1.4601203999999999
-8.650616000000001,-3.4229053999999994,-0.37819514
-8.650616000000001,-3.4229053999999994,-0.37819514
-8.650616000000001,-3.4229053999999994,-0.37819514
-8.650616000000001,-3.4229053999999994,-0.37819514
-8.957002000000001,-2.2452345,0.2920241
-8.957002000000001,-2.2452345,0.2920241
-8.957002000000001,-2.2452345,0.2920241
-8.957002000000001,-2.2452345,0.2920241
-9.167641999999999,-2.5324712000000003,0.4164934
-9.167641999999999,-2.5324712000000003,0.4164934
-9.167641999999999,-2.5324712000000003,0.4164934
-9.167641999999999,-2.5324712000000003,0.4164934
-9.129342999999999,-3.1548176,0.30159867
-9.129342999999999,-3.1548176,0.30159867
-9.129342999999999,-3.1548176,0.30159867
-9.129342999999999,-3.1548176,0.30159867
-9.110194,-3.518651,1.1058618
-9.110194,-3.518651,1.1058618
-9.110194,-3.518651,1.1058618
-9.110194,-3.518651,1.1058618
-9.5219,-4.5622783,5.7686725
-9.5219,-4.5622783,5.7686725
-9.5219,-4.5622783,5.7686725
-9.5219,-4.5622783,5.7686725
-9.301685,-5.672927,-0.18670394
-9.301685,-5.672927,-0.18670394
-9.301685,-5.672927,-0.18670394
-9.301685,-5.672927,-0.18670394
-9.301685,-5.672927,-0.18670394
-8.851681,-3.4803526,-0.15798025
-8.851681,-3.4803526,-0.15798025
-8.851681,-3.4803526,-0.15798025
-9.071896,-2.321831,0.5505372
-9.071896,-2.321831,0.5505372
-9.071896,-2.321831,0.5505372
-9.071896,-2.321831,0.5505372
-9.071896,-2.321831,0.5505372
-9.071896,-2.321831,0.5505372
-9.071896,-2.321831,0.5505372
-9.071896,-2.321831,0.5505372
-8.526146,-2.9824755,0.42606795
-8.526146,-2.9824755,0.42606795
-8.526146,-2.9824755,0.42606795
-8.526146,-2.9824755,0.42606795
-8.669764500000001,-3.2792869,0.37819514
-8.669764500000001,-3.2792869,0.37819514
-8.669764500000001,-3.2792869,0.37819514
-8.669764500000001,-3.2792869,0.37819514
-8.420826,-2.7718353,0.39734426
-8.420826,-2.7718353,0.39734426
-8.420826,-2.7718353,0.39734426
-8.420826,-2.7718353,0.39734426
-8.813383,-2.9346027,0.45479164
-8.813383,-2.9346027,0.45479164
-8.813383,-2.9346027,0.45479164
-8.813383,-2.9346027,0.45479164
-9.483603,-3.1643922000000004,1.0196906
-9.483603,-3.1643922000000004,1.0196906
-9.483603,-3.1643922000000004,1.0196906
-9.483603,-3.1643922000000004,1.0196906
-9.301685,-2.7718353,1.9579976000000003
-9.301685,-2.7718353,1.9579976000000003
-9.301685,-2.7718353,1.9579976000000003
-9.301685,-2.7718353,1.9579976000000003
-9.234664,-1.709059,3.0016246
-9.234664,-1.709059,3.0016246
-9.234664,-1.709059,3.0016246
-9.234664,-1.709059,3.0016246
-9.225089,-3.3463089999999998,1.2016073
-9.225089,-3.3463089999999998,1.2016073
-9.225089,-3.3463089999999998,1.2016073
-9.225089,-3.3463089999999998,1.2016073
-9.368708,-2.7909843999999997,0.99096704
-9.368708,-2.7909843999999997,0.99096704
-9.368708,-2.7909843999999997,0.99096704
-9.368708,-2.7909843999999997,0.99096704
-9.368708,-2.7909843999999997,0.99096704
-9.3878565,-2.7622607000000006,0.92394507
-9.3878565,-2.7622607000000006,0.92394507
-9.3878565,-2.7622607000000006,0.92394507
-9.119769,-2.6856642,1.0292653
-9.119769,-2.6856642,1.0292653
-9.119769,-2.6856642,1.0292653
-9.119769,-2.6856642,1.0292653
-8.861256,-2.88673,0.6558574
-8.861256,-2.88673,0.6558574
-8.861256,-2.88673,0.6558574
-8.861256,-2.88673,0.6558574
-8.861256,-2.88673,0.6558574
-9.024023,-4.9069624,0.36862057
-9.024023,-4.9069624,0.36862057
-9.024023,-4.9069624,0.36862057
-8.277207,-4.6388745,1.1633091
-8.277207,-4.6388745,1.1633091
-8.277207,-4.6388745,1.1633091
-8.277207,-4.6388745,1.1633091
-8.497422,-2.2931072999999995,2.408002
-8.497422,-2.2931072999999995,2.408002
-8.497422,-2.2931072999999995,2.408002
-8.497422,-2.2931072999999995,2.408002
-8.497422,-2.2931072999999995,2.408002
-8.794233,-2.561195,2.3122563
-8.794233,-2.561195,2.3122563
-8.794233,-2.561195,2.3122563
-8.583592999999999,-3.1548176,1.9771467
-8.583592999999999,-3.1548176,1.9771467
-8.583592999999999,-3.1548176,1.9771467
-8.583592999999999,-3.1548176,1.9771467
-8.363379,-3.5569491,2.254809
-8.363379,-3.5569491,2.254809
-8.363379,-3.5569491,2.254809
-8.363379,-3.5569491,2.254809
-8.363379,-3.5569491,2.254809
-8.487848,-3.5665237999999997,2.9441773999999996
-8.487848,-3.5665237999999997,2.9441773999999996
-8.487848,-3.5665237999999997,2.9441773999999996
-8.487848,-3.5665237999999997,2.9441773999999996
-8.755936,-3.777164,4.3324885
-8.755936,-3.777164,4.3324885
-8.755936,-3.777164,4.3324885
-8.353804,-3.6526947,5.098453500000001
-8.353804,-3.6526947,5.098453500000001
-8.353804,-3.6526947,5.098453500000001
-8.353804,-3.6526947,5.098453500000001
-8.353804,-3.6526947,5.098453500000001
-8.258059,-3.7675896,4.7920675
-8.258059,-3.7675896,4.7920675
-8.258059,-3.7675896,4.7920675
-8.258059,-3.7675896,4.7920675
-8.401677000000001,-5.912291000000001,4.7058964
-8.401677000000001,-5.912291000000001,4.7058964
-8.401677000000001,-5.912291000000001,4.7058964
-8.334655,-5.5771812999999995,5.194199
-8.334655,-5.5771812999999995,5.194199
-8.334655,-5.5771812999999995,5.194199
-8.334655,-5.5771812999999995,5.194199
-7.741032000000001,-3.059072,5.5771812999999995
-7.741032000000001,-3.059072,5.5771812999999995
-7.741032000000001,-3.059072,5.5771812999999995
-7.741032000000001,-3.059072,5.5771812999999995
-7.741032000000001,-3.059072,5.5771812999999995
-6.5825105,-1.3739493999999999,6.3527207
-6.5825105,-1.3739493999999999,6.3527207
-6.5825105,-1.3739493999999999,6.3527207
-6.5825105,-1.3739493999999999,6.3527207
-5.299519,-0.665432,5.644203
-5.299519,-0.665432,5.644203
-5.299519,-0.665432,5.644203
-4.5527034,0.45479164,6.0750585
-4.5527034,0.45479164,6.0750585
-4.5527034,0.45479164,6.0750585
-4.5527034,0.45479164,6.0750585
-4.5527034,0.45479164,6.0750585
-4.6388745,0.8090504,6.429317500000001
-4.6388745,0.8090504,6.429317500000001
-4.6388745,0.8090504,6.429317500000001
-4.6388745,0.8090504,6.429317500000001
-10.354887,-5.0122824,0.91437054
-10.354887,-5.0122824,0.91437054
-10.354887,-5.0122824,0.91437054
-9.378282,-3.9686553,1.1058618
-9.378282,-3.9686553,1.1058618
-9.378282,-3.9686553,1.1058618
-9.378282,-3.9686553,1.1058618
-8.832532,-3.518651,1.4409714
-8.832532,-3.518651,1.4409714
-8.832532,-3.518651,1.4409714
-8.832532,-3.518651,1.4409714
-8.889978999999999,-3.3941817000000003,1.4409714
-8.889978999999999,-3.3941817000000003,1.4409714
-8.889978999999999,-3.3941817000000003,1.4409714
-8.889978999999999,-3.3941817000000003,1.4409714
-9.426155,-3.2026904,1.5462915000000002
-9.426155,-3.2026904,1.5462915000000002
-9.426155,-3.2026904,1.5462915000000002
-9.426155,-3.2026904,1.5462915000000002
-9.608071,-2.2165107999999996,2.034594
-9.608071,-2.2165107999999996,2.034594
-9.608071,-2.2165107999999996,2.034594
-9.608071,-2.2165107999999996,2.034594
-9.579348,-1.8143792,1.9388485
-9.579348,-1.8143792,1.9388485
-9.579348,-1.8143792,1.9388485
-9.579348,-1.8143792,1.9388485
-9.426155,-1.3452256999999999,1.9867213
-9.426155,-1.3452256999999999,1.9867213
-9.426155,-1.3452256999999999,1.9867213
-9.426155,-1.3452256999999999,1.9867213
-9.167641999999999,-1.3930986,2.2260852000000004
-9.167641999999999,-1.3930986,2.2260852000000004
-9.167641999999999,-1.3930986,2.2260852000000004
-9.167641999999999,-1.3930986,2.2260852000000004
-8.870830999999999,-3.1548176,0.5218136
-8.870830999999999,-3.1548176,0.5218136
-8.870830999999999,-3.1548176,0.5218136
-8.870830999999999,-3.1548176,0.5218136
-8.736787,-3.7388659,-0.023936402000000002
-8.736787,-3.7388659,-0.023936402000000002
-8.736787,-3.7388659,-0.023936402000000002
-8.736787,-3.7388659,-0.023936402000000002
-8.765511,-3.3654580000000003,0.49308985
-8.765511,-3.3654580000000003,0.49308985
-8.765511,-3.3654580000000003,0.49308985
-8.765511,-3.3654580000000003,0.49308985
-8.765511,-3.078221,0.93351966
-8.765511,-3.078221,0.93351966
-8.765511,-3.078221,0.93351966
-8.765511,-3.078221,0.93351966
-8.861256,-2.9633265,1.0771381000000002
-8.861256,-2.9633265,1.0771381000000002
-8.861256,-2.9633265,1.0771381000000002
-8.861256,-2.9633265,1.0771381000000002
-9.014449,-2.6760897999999997,1.6611862000000002
-9.014449,-2.6760897999999997,1.6611862000000002
-9.014449,-2.6760897999999997,1.6611862000000002
-9.014449,-2.6760897999999997,1.6611862000000002
-9.062322,-2.5228968,1.9675721999999998
-9.062322,-2.5228968,1.9675721999999998
-9.062322,-2.5228968,1.9675721999999998
-9.062322,-2.5228968,1.9675721999999998
-9.033598,-2.714388,1.6037389
-9.033598,-2.714388,1.6037389
-9.033598,-2.714388,1.6037389
-9.033598,-2.714388,1.6037389
-8.928278,-2.7622607000000006,1.3452256999999999
-8.928278,-2.7622607000000006,1.3452256999999999
-8.928278,-2.7622607000000006,1.3452256999999999
-8.928278,-2.7622607000000006,1.3452256999999999
-8.851681,-2.8963046,1.2590546999999999
-8.851681,-2.8963046,1.2590546999999999
-8.851681,-2.8963046,1.2590546999999999
-8.851681,-2.8963046,1.2590546999999999
-8.803808,-2.972901,1.2877783999999999
-8.803808,-2.972901,1.2877783999999999
-8.803808,-2.972901,1.2877783999999999
-8.803808,-2.972901,1.2877783999999999
-8.899554,-2.9824755,1.4601203999999999
-8.899554,-2.9824755,1.4601203999999999
-8.899554,-2.9824755,1.4601203999999999
-8.899554,-2.9824755,1.4601203999999999
-8.985725,-2.867581,1.6803354
-8.985725,-2.867581,1.6803354
-8.985725,-2.867581,1.6803354
-8.985725,-2.867581,1.6803354
-9.052747,-2.8292825,1.6707608
-9.052747,-2.8292825,1.6707608
-9.052747,-2.8292825,1.6707608
-9.052747,-2.8292825,1.6707608
-9.024023,-2.8197080000000003,1.5558661
-9.024023,-2.8197080000000003,1.5558661
-9.024023,-2.8197080000000003,1.5558661
-9.024023,-2.8197080000000003,1.5558661
-8.880403999999999,-2.8197080000000003,1.4505458999999998
-8.880403999999999,-2.8197080000000003,1.4505458999999998
-8.880403999999999,-2.8197080000000003,1.4505458999999998
-8.880403999999999,-2.8197080000000003,1.4505458999999998
-8.813383,-2.8771553,1.3548003
-8.813383,-2.8771553,1.3548003
-8.813383,-2.8771553,1.3548003
-8.813383,-2.8771553,1.3548003
-8.909127999999999,-2.9154537,1.2877783999999999
-8.909127999999999,-2.9154537,1.2877783999999999
-8.909127999999999,-2.9154537,1.2877783999999999
-8.909127999999999,-2.9154537,1.2877783999999999
-8.909127999999999,-2.9154537,1.2877783999999999
-8.880403999999999,-2.9154537,1.3165021000000001
-8.880403999999999,-2.9154537,1.3165021000000001
-8.880403999999999,-2.9154537,1.3165021000000001
-8.957002000000001,-2.867581,1.3930986
-8.957002000000001,-2.867581,1.3930986
-8.957002000000001,-2.867581,1.3930986
-8.957002000000001,-2.867581,1.3930986
-8.957002000000001,-2.867581,1.3930986
-9.071896,-2.8484317999999997,1.4218222
-9.071896,-2.8484317999999997,1.4218222
-9.071896,-2.8484317999999997,1.4218222
-9.071896,-2.8484317999999997,1.4218222
-9.071896,-2.8292825,1.4792696
-9.071896,-2.8292825,1.4792696
-9.071896,-2.8292825,1.4792696
-8.947427000000001,-2.800559,1.5175678999999997
-8.947427000000001,-2.800559,1.5175678999999997
-8.947427000000001,-2.800559,1.5175678999999997
-8.947427000000001,-2.800559,1.5175678999999997
-8.947427000000001,-2.800559,1.5175678999999997
-8.880403999999999,-2.8963046,1.4026731000000001
-8.880403999999999,-2.8963046,1.4026731000000001
-8.880403999999999,-2.8963046,1.4026731000000001
-8.880403999999999,-2.8963046,1.4026731000000001
-8.918703,-2.972901,1.3739493999999999
-8.918703,-2.972901,1.3739493999999999
-8.918703,-2.972901,1.3739493999999999
-8.918703,-2.972901,1.3739493999999999
-8.918703,-3.0111992,1.383524
-8.918703,-3.0111992,1.383524
-8.918703,-3.0111992,1.383524
-8.918703,-3.0111992,1.383524
-8.880403999999999,-2.9537517999999996,1.4122477
-8.880403999999999,-2.9537517999999996,1.4122477
-8.880403999999999,-2.9537517999999996,1.4122477
-8.880403999999999,-2.9537517999999996,1.4122477
-8.937852000000001,-2.88673,1.4313968000000001
-8.937852000000001,-2.88673,1.4313968000000001
-8.937852000000001,-2.88673,1.4313968000000001
-8.937852000000001,-2.88673,1.4313968000000001
-8.976150500000001,-2.8388572,1.3739493999999999
-8.976150500000001,-2.8388572,1.3739493999999999
-8.976150500000001,-2.8388572,1.3739493999999999
-8.976150500000001,-2.8388572,1.3739493999999999
-8.909127999999999,-2.8101335,1.3165021000000001
-8.909127999999999,-2.8101335,1.3165021000000001
-8.909127999999999,-2.8101335,1.3165021000000001
-8.909127999999999,-2.8101335,1.3165021000000001
-8.918703,-2.8963046,1.3165021000000001
-8.918703,-2.8963046,1.3165021000000001
-8.918703,-2.8963046,1.3165021000000001
-8.918703,-2.8963046,1.3165021000000001
-8.909127999999999,-3.0111992,1.3739493999999999
-8.909127999999999,-3.0111992,1.3739493999999999
-8.909127999999999,-3.0111992,1.3739493999999999
-8.909127999999999,-3.0111992,1.3739493999999999
-8.928278,-3.0877957,1.3643749
-8.928278,-3.0877957,1.3643749
-8.928278,-3.0877957,1.3643749
-8.928278,-3.0877957,1.3643749
-8.880403999999999,-3.0973704,1.3643749
-8.880403999999999,-3.0973704,1.3643749
-8.880403999999999,-3.0973704,1.3643749
-8.880403999999999,-3.0973704,1.3643749
-8.957002000000001,-3.0494976,1.3930986
-8.957002000000001,-3.0494976,1.3930986
-8.957002000000001,-3.0494976,1.3930986
-8.957002000000001,-3.0494976,1.3930986
-8.985725,-2.9537517999999996,1.4026731000000001
-8.985725,-2.9537517999999996,1.4026731000000001
-8.985725,-2.9537517999999996,1.4026731000000001
-8.985725,-2.9537517999999996,1.4026731000000001
-9.062322,-2.8484317999999997,1.469695
-9.062322,-2.8484317999999997,1.469695
-9.062322,-2.8484317999999997,1.469695
-9.062322,-2.8484317999999997,1.469695
-8.985725,-2.8197080000000003,1.4984187
-8.985725,-2.8197080000000003,1.4984187
-8.985725,-2.8197080000000003,1.4984187
-8.985725,-2.8197080000000003,1.4984187
-8.937852000000001,-2.8292825,1.5367169
-8.937852000000001,-2.8292825,1.5367169
-8.937852000000001,-2.8292825,1.5367169
-8.937852000000001,-2.8292825,1.5367169
-9.024023,-2.8197080000000003,1.4888442
-9.024023,-2.8197080000000003,1.4888442
-9.024023,-2.8197080000000003,1.4888442
-9.024023,-2.8197080000000003,1.4888442
-9.014449,-2.6090677,1.6037389
-9.014449,-2.6090677,1.6037389
-9.014449,-2.6090677,1.6037389
-9.014449,-2.6090677,1.6037389
-8.535721,-2.408002,1.9005502
-8.535721,-2.408002,1.9005502
-8.535721,-2.408002,1.9005502
-8.535721,-2.408002,1.9005502
-8.995299000000001,-2.2356597999999996,2.1973617
-8.995299000000001,-2.2356597999999996,2.1973617
-8.995299000000001,-2.2356597999999996,2.1973617
-8.995299000000001,-2.2356597999999996,2.1973617
-8.784659,-1.6133133999999998,2.4558747000000003
-8.784659,-1.6133133999999998,2.4558747000000003
-8.784659,-1.6133133999999998,2.4558747000000003
-8.784659,-1.6133133999999998,2.4558747000000003
-9.052747,-2.88673,1.8431028999999999
-9.052747,-2.88673,1.8431028999999999
-9.052747,-2.88673,1.8431028999999999
-9.052747,-2.88673,1.8431028999999999
-8.631466,-4.3803616,1.6133133999999998
-8.631466,-4.3803616,1.6133133999999998
-8.631466,-4.3803616,1.6133133999999998
-8.631466,-4.3803616,1.6133133999999998
-6.8793216,-7.156984,0.23457673
-6.8793216,-7.156984,0.23457673
-6.8793216,-7.156984,0.23457673
-6.8793216,-7.156984,0.23457673
-6.764427,-8.372953,0.6558574
-6.764427,-8.372953,0.6558574
-6.764427,-8.372953,0.6558574
-6.764427,-8.372953,0.6558574
-6.9176197,-9.445304,-0.32074776
-6.9176197,-9.445304,-0.32074776
-6.9176197,-9.445304,-0.32074776
-6.9176197,-9.445304,-0.32074776
-9.397431,-11.293194,-1.0484143
-9.397431,-11.293194,-1.0484143
-9.397431,-11.293194,-1.0484143
-9.397431,-11.293194,-1.0484143
-14.567694,-10.699572,-0.44521707
-14.567694,-10.699572,-0.44521707
-14.567694,-10.699572,-0.44521707
-14.567694,-10.699572,-0.44521707
-8.00912,-4.409085299999999,0.11968201
-8.00912,-4.409085299999999,0.11968201
-8.00912,-4.409085299999999,0.11968201
-8.00912,-4.409085299999999,0.11968201
-8.00912,-4.409085299999999,0.11968201
-7.9037995,0.59841,-0.10053288
-7.9037995,0.59841,-0.10053288
-7.9037995,0.59841,-0.10053288
-6.898471000000001,6.9080452999999995,1.1345854
-6.898471000000001,6.9080452999999995,1.1345854
-6.898471000000001,6.9080452999999995,1.1345854
-6.898471000000001,6.9080452999999995,1.1345854
-6.898471000000001,6.9080452999999995,1.1345854
-15.467703,-12.46129,4.696322
-15.467703,-12.46129,4.696322
-15.467703,-12.46129,4.696322
-15.467703,-12.46129,4.696322
-11.944264,-19.594337,10.374036
-11.944264,-19.594337,10.374036
-11.944264,-19.594337,10.374036
5.376116000000001,-12.662355999999999,-0.26330042
5.376116000000001,-12.662355999999999,-0.26330042
5.376116000000001,-12.662355999999999,-0.26330042
5.376116000000001,-12.662355999999999,-0.26330042
5.376116000000001,-12.662355999999999,-0.26330042
9.828286,-3.0016246,1.2973529
9.828286,-3.0016246,1.2973529
9.828286,-3.0016246,1.2973529
9.828286,-3.0016246,1.2973529
8.23891,-1.2590546999999999,1.7665064
8.23891,-1.2590546999999999,1.7665064
8.23891,-1.2590546999999999,1.7665064
8.23891,-1.2590546999999999,1.7665064
4.6388745,-17.689001,1.7377827000000001
4.6388745,-17.689001,1.7377827000000001
4.6388745,-17.689001,1.7377827000000001
4.6388745,-17.689001,1.7377827000000001
-6.9176197,-19.278378,10.239991999999999
-6.9176197,-19.278378,10.239991999999999
-6.9176197,-19.278378,10.239991999999999
-4.782493,-8.459125,2.1590632999999997
-4.782493,-8.459125,2.1590632999999997
-4.782493,-8.459125,2.1590632999999997
-4.782493,-8.459125,2.1590632999999997
-4.782493,-8.459125,2.1590632999999997
-8.363379,5.49101,-1.7665064
-8.363379,5.49101,-1.7665064
-8.363379,5.49101,-1.7665064
-8.363379,5.49101,-1.7665064
-11.005958,3.3654580000000003,-3.4899273
-11.005958,3.3654580000000003,-3.4899273
-11.005958,3.3654580000000003,-3.4899273
-11.005958,3.3654580000000003,-3.4899273
-13.820878,-18.004960999999998,13.811303
-13.820878,-18.004960999999998,13.811303
-13.820878,-18.004960999999998,13.811303
-13.820878,-18.004960999999998,13.811303
1.6707608,-19.594337,10.986808
1.6707608,-19.594337,10.986808
1.6707608,-19.594337,10.986808
1.6707608,-19.594337,10.986808
8.181462,-7.319751299999999,1.0675635
8.181462,-7.319751299999999,1.0675635
8.181462,-7.319751299999999,1.0675635
8.181462,-7.319751299999999,1.0675635
8.593167999999999,0.2441513,-1.4601203999999999
8.593167999999999,0.2441513,-1.4601203999999999
8.593167999999999,0.2441513,-1.4601203999999999
8.593167999999999,0.2441513,-1.4601203999999999
11.762347,3.4707782,0.26330042
11.762347,3.4707782,0.26330042
11.762347,3.4707782,0.26330042
11.762347,3.4707782,0.26330042
10.316589,-12.202777000000001,2.2835326
10.316589,-12.202777000000001,2.2835326
10.316589,-12.202777000000001,2.2835326
10.316589,-12.202777000000001,2.2835326
0.56968635,-19.594337,6.4963393
0.56968635,-19.594337,6.4963393
0.56968635,-19.594337,6.4963393
0.56968635,-19.594337,6.4963393
-7.5782647,-13.188957,2.4558747000000003
-7.5782647,-13.188957,2.4558747000000003
-7.5782647,-13.188957,2.4558747000000003
-7.5782647,-13.188957,2.4558747000000003
-14.146413,7.195282000000001,-4.1601467
-14.146413,7.195282000000001,-4.1601467
-14.146413,7.195282000000001,-4.1601467
-14.146413,7.195282000000001,-4.1601467
-9.464453,7.1474094,-2.2356597999999996
-9.464453,7.1474094,-2.2356597999999996
-9.464453,7.1474094,-2.2356597999999996
-9.464453,7.1474094,-2.2356597999999996
-12.174053,-18.282623,8.171887
-12.174053,-18.282623,8.171887
-12.174053,-18.282623,8.171887
-12.174053,-18.282623,8.171887
-0.3111732,-19.594337,7.741032000000001
-0.3111732,-19.594337,7.741032000000001
-0.3111732,-19.594337,7.741032000000001
-0.3111732,-19.594337,7.741032000000001
8.401677000000001,-8.200611,-0.10053288
8.401677000000001,-8.200611,-0.10053288
8.401677000000001,-8.200611,-0.10053288
8.401677000000001,-8.200611,-0.10053288
10.757019,0.30159867,1.2973529
10.757019,0.30159867,1.2973529
10.757019,0.30159867,1.2973529
10.757019,0.30159867,1.2973529
12.872996,1.9388485,2.2069361
12.872996,1.9388485,2.2069361
12.872996,1.9388485,2.2069361
12.872996,1.9388485,2.2069361
11.647452000000001,-15.410255,-1.5558661
11.647452000000001,-15.410255,-1.5558661
11.647452000000001,-15.410255,-1.5558661
11.647452000000001,-15.410255,-1.5558661
0.014361841,-19.594337,1.14416
0.014361841,-19.594337,1.14416
0.014361841,-19.594337,1.14416
0.014361841,-19.594337,1.14416
-8.439975,-10.354887,-0.6079846
-8.439975,-10.354887,-0.6079846
-8.439975,-10.354887,-0.6079846
-8.439975,-10.354887,-0.6079846
-12.633633,6.8122997000000005,-1.8335283
-12.633633,6.8122997000000005,-1.8335283
-12.633633,6.8122997000000005,-1.8335283
-12.633633,6.8122997000000005,-1.8335283
-10.689997,4.658024,-1.948423
-10.689997,4.658024,-1.948423
-10.689997,4.658024,-1.948423
-10.689997,4.658024,-1.948423
-7.5495410000000005,-18.378368,7.568689999999999
-7.5495410000000005,-18.378368,7.568689999999999
-7.5495410000000005,-18.378368,7.568689999999999
-7.5495410000000005,-18.378368,7.568689999999999
1.9388485,-19.594337,7.291027499999999
1.9388485,-19.594337,7.291027499999999
1.9388485,-19.594337,7.291027499999999
1.9388485,-19.594337,7.291027499999999
1.9388485,-19.594337,7.291027499999999
8.4686985,-9.474028,-0.00478728
8.4686985,-9.474028,-0.00478728
8.4686985,-9.474028,-0.00478728
13.399597,3.2026904,0.78990126
13.399597,3.2026904,0.78990126
13.399597,3.2026904,0.78990126
13.399597,3.2026904,0.78990126
13.399597,3.2026904,0.78990126
16.540052,2.561195,1.8526775000000002
16.540052,2.561195,1.8526775000000002
16.540052,2.561195,1.8526775000000002
5.002708,-18.215601,5.2516465
5.002708,-18.215601,5.2516465
5.002708,-18.215601,5.2516465
5.002708,-18.215601,5.2516465
-5.261221,-19.594337,6.333572
-5.261221,-19.594337,6.333572
-5.261221,-19.594337,6.333572
-5.261221,-19.594337,6.333572
-5.261221,-19.594337,6.333572
-10.900637,-4.8973875,-1.5462915000000002
-10.900637,-4.8973875,-1.5462915000000002
-10.900637,-4.8973875,-1.5462915000000002
-11.561282,11.59958,-2.6952388
-11.561282,11.59958,-2.6952388
-11.561282,11.59958,-2.6952388
-11.561282,11.59958,-2.6952388
-11.561282,11.59958,-2.6952388
-10.19212,2.1399142999999996,-0.69415563
-10.19212,2.1399142999999996,-0.69415563
-10.19212,2.1399142999999996,-0.69415563
-10.19212,2.1399142999999996,-0.69415563
-13.830453,-19.594337,14.424075
-13.830453,-19.594337,14.424075
-13.830453,-19.594337,14.424075
0.9622433000000001,-18.46454,8.650616000000001
0.9622433000000001,-18.46454,8.650616000000001
0.9622433000000001,-18.46454,8.650616000000001
0.9622433000000001,-18.46454,8.650616000000001
0.9622433000000001,-18.46454,8.650616000000001
9.2825365,-2.5899186000000003,1.8143792
9.2825365,-2.5899186000000003,1.8143792
9.2825365,-2.5899186000000003,1.8143792
9.2825365,-2.5899186000000003,1.8143792
15.381532,3.0016246,-1.5750152
15.381532,3.0016246,-1.5750152
15.381532,3.0016246,-1.5750152
15.381532,3.0016246,-1.5750152
14.682589000000002,0.8664976999999999,-2.714388
14.682589000000002,0.8664976999999999,-2.714388
14.682589000000002,0.8664976999999999,-2.714388
14.682589000000002,0.8664976999999999,-2.714388
-1.5175678999999997,-19.594337,-1.7282081999999999
-1.5175678999999997,-19.594337,-1.7282081999999999
-1.5175678999999997,-19.594337,-1.7282081999999999
-1.5175678999999997,-19.594337,-1.7282081999999999
-10.680422,-19.335825,0.45479164
-10.680422,-19.335825,0.45479164
-10.680422,-19.335825,0.45479164
-10.680422,-19.335825,0.45479164
-11.666602000000001,0.8186249,0.19627848
-11.666602000000001,0.8186249,0.19627848
-11.666602000000001,0.8186249,0.19627848
-11.666602000000001,0.8186249,0.19627848
-10.393186,12.624058,-5.4718614
-10.393186,12.624058,-5.4718614
-10.393186,12.624058,-5.4718614
-10.393186,12.624058,-5.4718614
-12.58576,-2.4463003,0.83777404
-12.58576,-2.4463003,0.83777404
-12.58576,-2.4463003,0.83777404
-12.58576,-2.4463003,0.83777404
-10.622974000000001,-19.594337,13.562365
-10.622974000000001,-19.594337,13.562365
-10.622974000000001,-19.594337,13.562365
-10.622974000000001,-19.594337,13.562365
6.544212,-16.204943,2.7622607000000006
6.544212,-16.204943,2.7622607000000006
6.544212,-16.204943,2.7622607000000006
6.544212,-16.204943,2.7622607000000006
8.583592999999999,-3.039923,-0.0718092
8.583592999999999,-3.039923,-0.0718092
8.583592999999999,-3.039923,-0.0718092
8.583592999999999,-3.039923,-0.0718092
17.05708,3.8920587999999996,-0.64628285
17.05708,3.8920587999999996,-0.64628285
17.05708,3.8920587999999996,-0.64628285
17.05708,3.8920587999999996,-0.64628285
12.633633,-4.1984449999999995,0.9622433000000001
12.633633,-4.1984449999999995,0.9622433000000001
12.633633,-4.1984449999999995,0.9622433000000001
12.633633,-4.1984449999999995,0.9622433000000001
1.4505458999999998,-19.594337,1.5462915000000002
1.4505458999999998,-19.594337,1.5462915000000002
1.4505458999999998,-19.594337,1.5462915000000002
1.4505458999999998,-19.594337,1.5462915000000002
-9.272962,-17.526234,2.2069361
-9.272962,-17.526234,2.2069361
-9.272962,-17.526234,2.2069361
-9.272962,-17.526234,2.2069361
-11.7049,3.6526947,-1.6994845
-11.7049,3.6526947,-1.6994845
-11.7049,3.6526947,-1.6994845
-11.7049,3.6526947,-1.6994845
-9.636795,10.852764,-4.275041000000001
-9.636795,10.852764,-4.275041000000001
-9.636795,10.852764,-4.275041000000001
-9.636795,10.852764,-4.275041000000001
-12.001712,-7.635712,1.5462915000000002
-12.001712,-7.635712,1.5462915000000002
-12.001712,-7.635712,1.5462915000000002
-12.001712,-7.635712,1.5462915000000002
-5.941015,-19.594337,14.740035999999998
-5.941015,-19.594337,14.740035999999998
-5.941015,-19.594337,14.740035999999998
-5.941015,-19.594337,14.740035999999998
7.137835000000001,-13.629387,3.2792869
7.137835000000001,-13.629387,3.2792869
7.137835000000001,-13.629387,3.2792869
7.137835000000001,-13.629387,3.2792869
7.9995449999999995,-1.8143792,4.4473834000000005
7.9995449999999995,-1.8143792,4.4473834000000005
7.9995449999999995,-1.8143792,4.4473834000000005
7.9995449999999995,-1.8143792,4.4473834000000005
13.935773000000001,1.7377827000000001,-0.18670394
13.935773000000001,1.7377827000000001,-0.18670394
13.935773000000001,1.7377827000000001,-0.18670394
13.935773000000001,1.7377827000000001,-0.18670394
14.194285,-1.5750152,-2.9824755
14.194285,-1.5750152,-2.9824755
14.194285,-1.5750152,-2.9824755
14.194285,-1.5750152,-2.9824755
2.0920415,-19.594337,4.08355
2.0920415,-19.594337,4.08355
2.0920415,-19.594337,4.08355
2.0920415,-19.594337,4.08355
-3.039923,-17.114527,8.210186
-3.039923,-17.114527,8.210186
-3.039923,-17.114527,8.210186
-3.039923,-17.114527,8.210186
-11.082554,0.43564250000000004,-1.3260766000000002
-11.082554,0.43564250000000004,-1.3260766000000002
-11.082554,0.43564250000000004,-1.3260766000000002
-11.082554,0.43564250000000004,-1.3260766000000002
-11.082554,0.43564250000000004,-1.3260766000000002
-14.893229000000002,12.020861,-4.1409974
-14.893229000000002,12.020861,-4.1409974
-14.893229000000002,12.020861,-4.1409974
-14.09854,-9.253813000000001,1.3930986
-14.09854,-9.253813000000001,1.3930986
-14.09854,-9.253813000000001,1.3930986
-14.09854,-9.253813000000001,1.3930986
-6.668680999999999,-19.594337,11.455961
-6.668680999999999,-19.594337,11.455961
-6.668680999999999,-19.594337,11.455961
-6.668680999999999,-19.594337,11.455961
-6.668680999999999,-19.594337,11.455961
7.5399666,-12.863422,1.8335283
7.5399666,-12.863422,1.8335283
7.5399666,-12.863422,1.8335283
8.047417999999999,-1.0771381000000002,1.0962871
8.047417999999999,-1.0771381000000002,1.0962871
8.047417999999999,-1.0771381000000002,1.0962871
8.047417999999999,-1.0771381000000002,1.0962871
8.047417999999999,-1.0771381000000002,1.0962871
8.047417999999999,-1.0771381000000002,1.0962871
8.047417999999999,-1.0771381000000002,1.0962871
8.047417999999999,-1.0771381000000002,1.0962871
14.921952,-4.926111,0.32074776
14.921952,-4.926111,0.32074776
14.921952,-4.926111,0.32074776
-2.427151,-19.594337,3.5473747
-2.427151,-19.594337,3.5473747
-2.427151,-19.594337,3.5473747
-2.427151,-19.594337,3.5473747
-2.427151,-19.594337,3.5473747
-8.842107,-17.756021,5.759098000000001
-8.842107,-17.756021,5.759098000000001
-8.842107,-17.756021,5.759098000000001
-8.842107,-17.756021,5.759098000000001
-10.19212,3.0207740000000003,-1.709059
-10.19212,3.0207740000000003,-1.709059
-10.19212,3.0207740000000003,-1.709059
-10.19212,3.0207740000000003,-1.709059
-9.20594,9.292110000000001,-2.5324712000000003
-9.20594,9.292110000000001,-2.5324712000000003
-9.20594,9.292110000000001,-2.5324712000000003
-9.20594,9.292110000000001,-2.5324712000000003
-10.488931,-1.3452256999999999,-0.27287498
-10.488931,-1.3452256999999999,-0.27287498
-10.488931,-1.3452256999999999,-0.27287498
-10.488931,-1.3452256999999999,-0.27287498
-9.818711,-19.594337,14.337904
-9.818711,-19.594337,14.337904
-9.818711,-19.594337,14.337904
-9.818711,-19.594337,14.337904
4.6675982000000005,-17.114527,2.7814097
4.6675982000000005,-17.114527,2.7814097
4.6675982000000005,-17.114527,2.7814097
4.6675982000000005,-17.114527,2.7814097
11.044255,-1.6899098999999997,1.6133133999999998
11.044255,-1.6899098999999997,1.6133133999999998
11.044255,-1.6899098999999997,1.6133133999999998
11.044255,-1.6899098999999997,1.6133133999999998
15.199615,3.059072,-0.93351966
15.199615,3.059072,-0.93351966
15.199615,3.059072,-0.93351966
15.199615,3.059072,-0.93351966
15.132593,-1.5558661,-1.7952299999999999
15.132593,-1.5558661,-1.7952299999999999
15.132593,-1.5558661,-1.7952299999999999
15.132593,-1.5558661,-1.7952299999999999
1.383524,-19.594337,-1.2494801000000002
1.383524,-19.594337,-1.2494801000000002
1.383524,-19.594337,-1.2494801000000002
1.383524,-19.594337,-1.2494801000000002
-6.0463347,-19.106035000000002,-1.0005416
-6.0463347,-19.106035000000002,-1.0005416
-6.0463347,-19.106035000000002,-1.0005416
-6.0463347,-19.106035000000002,-1.0005416
-19.000715,4.0069537,-2.015445
-19.000715,4.0069537,-2.015445
-19.000715,4.0069537,-2.015445
-19.000715,4.0069537,-2.015445
-13.141085,8.095291,-4.437809
-13.141085,8.095291,-4.437809
-13.141085,8.095291,-4.437809
-10.986808,-11.283619999999999,6.400593799999999
-10.986808,-11.283619999999999,6.400593799999999
-10.986808,-11.283619999999999,6.400593799999999
-10.986808,-11.283619999999999,6.400593799999999
-10.986808,-11.283619999999999,6.400593799999999
0.48351530000000004,-19.594337,9.31126
0.48351530000000004,-19.594337,9.31126
0.48351530000000004,-19.594337,9.31126
9.004874000000001,-11.628304,-0.7420284
9.004874000000001,-11.628304,-0.7420284
9.004874000000001,-11.628304,-0.7420284
9.004874000000001,-11.628304,-0.7420284
9.330409,3.078221,-2.9537517999999996
9.330409,3.078221,-2.9537517999999996
9.330409,3.078221,-2.9537517999999996
9.330409,3.078221,-2.9537517999999996
9.330409,3.078221,-2.9537517999999996
18.033684,5.462287,-1.0005416
18.033684,5.462287,-1.0005416
18.033684,5.462287,-1.0005416
12.384694,-7.9995449999999995,-1.1250108
12.384694,-7.9995449999999995,-1.1250108
12.384694,-7.9995449999999995,-1.1250108
12.384694,-7.9995449999999995,-1.1250108
-1.1345854,-19.594337,2.9346027
-1.1345854,-19.594337,2.9346027
-1.1345854,-19.594337,2.9346027
-1.1345854,-19.594337,2.9346027
-4.2175937,-13.02619,0.5792609000000001
-4.2175937,-13.02619,0.5792609000000001
-4.2175937,-13.02619,0.5792609000000001
-4.2175937,-13.02619,0.5792609000000001
-12.595334,4.0356774,-3.844186
-12.595334,4.0356774,-3.844186
-12.595334,4.0356774,-3.844186
-12.595334,4.0356774,-3.844186
-16.243242000000002,9.8953085,-5.452712
-16.243242000000002,9.8953085,-5.452712
-16.243242000000002,9.8953085,-5.452712
-16.243242000000002,9.8953085,-5.452712
-14.634716000000001,-14.270883,1.5941644
-14.634716000000001,-14.270883,1.5941644
-14.634716000000001,-14.270883,1.5941644
-14.634716000000001,-14.270883,1.5941644
-4.3516379999999995,-19.594337,10.287866000000001
-4.3516379999999995,-19.594337,10.287866000000001
-4.3516379999999995,-19.594337,10.287866000000001
-4.3516379999999995,-19.594337,10.287866000000001
7.1474094,-11.522984,-1.1058618
7.1474094,-11.522984,-1.1058618
7.1474094,-11.522984,-1.1058618
7.1474094,-11.522984,-1.1058618
7.1474094,-11.522984,-1.1058618
9.8953085,2.0633178,-0.359046
9.8953085,2.0633178,-0.359046
9.8953085,2.0633178,-0.359046
19.268803,0.7324539000000001,-4.4186597
19.268803,0.7324539000000001,-4.4186597
19.268803,0.7324539000000001,-4.4186597
19.268803,0.7324539000000001,-4.4186597
14.021944,-13.840027,-1.7952299999999999
14.021944,-13.840027,-1.7952299999999999
14.021944,-13.840027,-1.7952299999999999
14.021944,-13.840027,-1.7952299999999999
14.021944,-13.840027,-1.7952299999999999
-7.6740103,-19.594337,3.7580150000000003
-7.6740103,-19.594337,3.7580150000000003
-7.6740103,-19.594337,3.7580150000000003
-9.368708,-7.788905000000001,0.09095833
-9.368708,-7.788905000000001,0.09095833
-9.368708,-7.788905000000001,0.09095833
-9.368708,-7.788905000000001,0.09095833
-9.368708,-7.788905000000001,0.09095833
-13.571939000000002,10.680422,-3.0016246
-13.571939000000002,10.680422,-3.0016246
-13.571939000000002,10.680422,-3.0016246
-13.571939000000002,10.680422,-3.0016246
-12.231501,5.194199,-1.4792696
-12.231501,5.194199,-1.4792696
-12.231501,5.194199,-1.4792696
-17.803895999999998,-17.18155,8.698488000000001
-17.803895999999998,-17.18155,8.698488000000001
-17.803895999999998,-17.18155,8.698488000000001
-17.803895999999998,-17.18155,8.698488000000001
-17.803895999999998,-17.18155,8.698488000000001
-3.4899273,-19.594337,9.8953085
-3.4899273,-19.594337,9.8953085
-3.4899273,-19.594337,9.8953085
-3.4899273,-19.594337,9.8953085
9.598496,-10.115523,-2.5516202
9.598496,-10.115523,-2.5516202
9.598496,-10.115523,-2.5516202
9.598496,-10.115523,-2.5516202
17.411339,0.49308985,-4.045252
17.411339,0.49308985,-4.045252
17.411339,0.49308985,-4.045252
17.411339,0.49308985,-4.045252
14.567694,-2.0058703,-3.7005677
14.567694,-2.0058703,-3.7005677
14.567694,-2.0058703,-3.7005677
14.567694,-2.0058703,-3.7005677
-5.8261199999999995,-19.594337,5.778247400000001
-5.8261199999999995,-19.594337,5.778247400000001
-5.8261199999999995,-19.594337,5.778247400000001
-5.8261199999999995,-19.594337,5.778247400000001
-16.482605,-18.368793,10.766592999999999
-16.482605,-18.368793,10.766592999999999
-16.482605,-18.368793,10.766592999999999
-9.780414,0.09095833,0.09095833
-9.780414,0.09095833,0.09095833
-9.780414,0.09095833,0.09095833
-9.780414,0.09095833,0.09095833
-9.780414,0.09095833,0.09095833
-9.971905,12.604909,-3.5378
-9.971905,12.604909,-3.5378
-9.971905,12.604909,-3.5378
-9.971905,12.604909,-3.5378
-11.254896,4.466532,-3.9590807
-11.254896,4.466532,-3.9590807
-11.254896,4.466532,-3.9590807
-11.254896,4.466532,-3.9590807
-14.883655,-19.594337,11.867668
-14.883655,-19.594337,11.867668
-14.883655,-19.594337,11.867668
-14.883655,-19.594337,11.867668
1.0771381000000002,-19.077312,7.089962
1.0771381000000002,-19.077312,7.089962
1.0771381000000002,-19.077312,7.089962
1.0771381000000002,-19.077312,7.089962
10.010203,-3.9112080000000002,-2.2739582
10.010203,-3.9112080000000002,-2.2739582
10.010203,-3.9112080000000002,-2.2739582
10.010203,-3.9112080000000002,-2.2739582
13.552791000000001,5.8548436,-1.6516117
13.552791000000001,5.8548436,-1.6516117
13.552791000000001,5.8548436,-1.6516117
13.552791000000001,5.8548436,-1.6516117
15.640044,0.2154276,-1.5079931999999998
15.640044,0.2154276,-1.5079931999999998
15.640044,0.2154276,-1.5079931999999998
15.640044,0.2154276,-1.5079931999999998
2.5899186000000003,-19.249653,1.2399056
2.5899186000000003,-19.249653,1.2399056
2.5899186000000003,-19.249653,1.2399056
2.5899186000000003,-19.249653,1.2399056
-10.40276,-19.479443,8.32508
-10.40276,-19.479443,8.32508
-10.40276,-19.479443,8.32508
-10.40276,-19.479443,8.32508
-12.087883,-3.6239712,-2.7718353
-12.087883,-3.6239712,-2.7718353
-12.087883,-3.6239712,-2.7718353
-12.087883,-3.6239712,-2.7718353
-12.844273,12.58576,-6.410168
-12.844273,12.58576,-6.410168
-12.844273,12.58576,-6.410168
-12.844273,12.58576,-6.410168
-12.987891000000001,3.5282254,-1.5367169
-12.987891000000001,3.5282254,-1.5367169
-12.987891000000001,3.5282254,-1.5367169
-12.987891000000001,3.5282254,-1.5367169
-18.100706,-19.594337,15.391106
-18.100706,-19.594337,15.391106
-18.100706,-19.594337,15.391106
-18.100706,-19.594337,15.391106
0.9718179,-19.479443,6.3431463
0.9718179,-19.479443,6.3431463
0.9718179,-19.479443,6.3431463
0.9718179,-19.479443,6.3431463
10.919786,-5.462287,-0.751603
10.919786,-5.462287,-0.751603
10.919786,-5.462287,-0.751603
10.919786,-5.462287,-0.751603
17.583681,2.3984275,-2.101616
17.583681,2.3984275,-2.101616
17.583681,2.3984275,-2.101616
17.583681,2.3984275,-2.101616
13.428320999999999,-6.7357035000000005,-2.2356597999999996
13.428320999999999,-6.7357035000000005,-2.2356597999999996
13.428320999999999,-6.7357035000000005,-2.2356597999999996
13.428320999999999,-6.7357035000000005,-2.2356597999999996
-0.76117754,-19.594337,2.8101335
-0.76117754,-19.594337,2.8101335
-0.76117754,-19.594337,2.8101335
-0.76117754,-19.594337,2.8101335
-9.359133,-18.02411,3.0686467
-9.359133,-18.02411,3.0686467
-9.359133,-18.02411,3.0686467
-9.359133,-18.02411,3.0686467
-13.696407999999998,1.7186337,-1.5941644
-13.696407999999998,1.7186337,-1.5941644
-13.696407999999998,1.7186337,-1.5941644
-13.696407999999998,1.7186337,-1.5941644
-12.537887,8.5740185,-4.9069624
-12.537887,8.5740185,-4.9069624
-12.537887,8.5740185,-4.9069624
-12.537887,8.5740185,-4.9069624
-11.992137,-1.1633091,-0.71330476
-11.992137,-1.1633091,-0.71330476
-11.992137,-1.1633091,-0.71330476
-11.992137,-1.1633091,-0.71330476
-13.418745999999999,-19.594337,14.558119
-13.418745999999999,-19.594337,14.558119
-13.418745999999999,-19.594337,14.558119
-13.418745999999999,-19.594337,14.558119
4.294190400000001,-18.7805,3.9016335
4.294190400000001,-18.7805,3.9016335
4.294190400000001,-18.7805,3.9016335
4.294190400000001,-18.7805,3.9016335
8.143164,-4.3803616,-0.7228793
8.143164,-4.3803616,-0.7228793
8.143164,-4.3803616,-0.7228793
8.143164,-4.3803616,-0.7228793
14.960251000000001,2.3314054,-0.20585304
14.960251000000001,2.3314054,-0.20585304
14.960251000000001,2.3314054,-0.20585304
14.960251000000001,2.3314054,-0.20585304
15.113443,-4.08355,-0.7994758000000001
15.113443,-4.08355,-0.7994758000000001
15.113443,-4.08355,-0.7994758000000001
15.113443,-4.08355,-0.7994758000000001
0.043085523,-19.594337,3.0973704
0.043085523,-19.594337,3.0973704
0.043085523,-19.594337,3.0973704
