accx,accy,accz
-0.8186249,3.2218397000000003,4.246317400000001
-1.5271424,1.1633091,4.1601467
-1.5271424,1.1633091,4.1601467
-1.5271424,1.1633091,4.1601467
-1.5271424,1.1633091,4.1601467
-5.481436,-0.91437054,4.5144053
-5.481436,-0.91437054,4.5144053
-5.481436,-0.91437054,4.5144053
-5.481436,-0.91437054,4.5144053
-8.851681,-3.7484405,2.6090677
-8.851681,-3.7484405,2.6090677
-8.851681,-3.7484405,2.6090677
-8.851681,-3.7484405,2.6090677
-13.524067,-6.410168,0.32074776
-13.524067,-6.410168,0.32074776
-13.524067,-6.410168,0.32074776
-13.524067,-6.410168,0.32074776
-13.083637,-6.218677,-1.2399056
-13.083637,-6.218677,-1.2399056
-13.083637,-6.218677,-1.2399056
-13.083637,-6.218677,-1.2399056
-11.618729,-6.1612295999999995,-1.5367169
-11.618729,-6.1612295999999995,-1.5367169
-11.618729,-6.1612295999999995,-1.5367169
-11.618729,-6.1612295999999995,-1.5367169
-10.546378,-4.8782387,-0.85692316
-10.546378,-4.8782387,-0.85692316
-10.546378,-4.8782387,-0.85692316
-10.546378,-4.8782387,-0.85692316
-9.75169,-4.0644007,-0.8760723
-9.75169,-4.0644007,-0.8760723
-9.75169,-4.0644007,-0.8760723
-9.75169,-4.0644007,-0.8760723
-9.2825365,-3.8537605000000004,-1.0101161
-9.2825365,-3.8537605000000004,-1.0101161
-9.2825365,-3.8537605000000004,-1.0101161
-9.2825365,-3.8537605000000004,-1.0101161
-9.665519,-2.88673,-0.91437054
-9.665519,-2.88673,-0.91437054
-9.665519,-2.88673,-0.91437054
-9.665519,-2.88673,-0.91437054
-9.407005,-2.5324712000000003,-0.9526688
-9.407005,-2.5324712000000003,-0.9526688
-9.407005,-2.5324712000000003,-0.9526688
-9.407005,-2.5324712000000003,-0.9526688
-9.397431,-2.1782124,-1.1920328000000002
-9.397431,-2.1782124,-1.1920328000000002
-9.397431,-2.1782124,-1.1920328000000002
-9.397431,-2.1782124,-1.1920328000000002
-9.320834,-1.6228879999999999,-1.2877783999999999
-9.320834,-1.6228879999999999,-1.2877783999999999
-9.320834,-1.6228879999999999,-1.2877783999999999
-9.320834,-1.6228879999999999,-1.2877783999999999
-9.091045,-1.4409714,-1.2877783999999999
-9.091045,-1.4409714,-1.2877783999999999
-9.091045,-1.4409714,-1.2877783999999999
-9.091045,-1.4409714,-1.2877783999999999
-9.158066999999999,-1.6420371999999999,-1.3452256999999999
-9.158066999999999,-1.6420371999999999,-1.3452256999999999
-9.158066999999999,-1.6420371999999999,-1.3452256999999999
-9.158066999999999,-1.6420371999999999,-1.3452256999999999
-9.330409,-1.6899098999999997,-1.4505458999999998
-9.330409,-1.6899098999999997,-1.4505458999999998
-9.330409,-1.6899098999999997,-1.4505458999999998
-9.330409,-1.6899098999999997,-1.4505458999999998
-9.339984,-1.5654407,-1.3452256999999999
-9.339984,-1.5654407,-1.3452256999999999
-9.339984,-1.5654407,-1.3452256999999999
-9.339984,-1.5654407,-1.3452256999999999
-9.359133,-1.6803354,-1.2973529
-9.359133,-1.6803354,-1.2973529
-9.359133,-1.6803354,-1.2973529
-9.359133,-1.6803354,-1.2973529
-9.31126,-1.7186337,-1.2973529
-9.31126,-1.7186337,-1.2973529
-9.31126,-1.7186337,-1.2973529
-9.31126,-1.7186337,-1.2973529
-9.3878565,-1.776081,-1.3356511999999998
-9.3878565,-1.776081,-1.3356511999999998
-9.3878565,-1.776081,-1.3356511999999998
-9.3878565,-1.776081,-1.3356511999999998
-9.234664,-1.8814011999999998,-1.2016073
-9.234664,-1.8814011999999998,-1.2016073
-9.234664,-1.8814011999999998,-1.2016073
-9.234664,-1.8814011999999998,-1.2016073
-9.225089,-1.9388485,-1.1824582000000001
-9.225089,-1.9388485,-1.1824582000000001
-9.225089,-1.9388485,-1.1824582000000001
-9.225089,-1.9388485,-1.1824582000000001
-9.225089,-1.9388485,-1.1824582000000001
-9.225089,-1.9388485,-1.1824582000000001
-9.225089,-1.9388485,-1.1824582000000001
-9.339984,-1.9675721999999998,-1.1058618
-9.339984,-1.9675721999999998,-1.1058618
-9.339984,-1.9675721999999998,-1.1058618
-9.339984,-1.9675721999999998,-1.1058618
-9.339984,-1.9675721999999998,-1.1058618
-9.167641999999999,-2.0728923999999997,-0.98139244
-9.167641999999999,-2.0728923999999997,-0.98139244
-9.167641999999999,-2.0728923999999997,-0.98139244
-9.215514,-2.101616,-1.0196906
-9.215514,-2.101616,-1.0196906
-9.215514,-2.101616,-1.0196906
-9.215514,-2.101616,-1.0196906
-9.215514,-2.101616,-1.0196906
-9.215514,-2.149489,-1.0484143
-9.215514,-2.149489,-1.0484143
-9.215514,-2.149489,-1.0484143
-9.253813000000001,-2.2069361,-1.0484143
-9.253813000000001,-2.2069361,-1.0484143
-9.253813000000001,-2.2069361,-1.0484143
-9.253813000000001,-2.2069361,-1.0484143
-9.196365,-2.2356597999999996,-0.98139244
-9.196365,-2.2356597999999996,-0.98139244
-9.196365,-2.2356597999999996,-0.98139244
-9.196365,-2.2356597999999996,-0.98139244
-9.215514,-2.2931072999999995,-0.9526688
-9.215514,-2.2931072999999995,-0.9526688
-9.215514,-2.2931072999999995,-0.9526688
-9.215514,-2.2931072999999995,-0.9526688
-9.339984,-2.2931072999999995,-1.0101161
-9.339984,-2.2931072999999995,-1.0101161
-9.339984,-2.2931072999999995,-1.0101161
-9.339984,-2.2931072999999995,-1.0101161
-9.215514,-2.3122563,-0.9526688
-9.215514,-2.3122563,-0.9526688
-9.215514,-2.3122563,-0.9526688
-9.215514,-2.3122563,-0.9526688
-9.234664,-2.2835326,-1.0005416
-9.234664,-2.2835326,-1.0005416
-9.234664,-2.2835326,-1.0005416
-9.234664,-2.2835326,-1.0005416
-9.225089,-2.3505547000000004,-1.0484143
-9.225089,-2.3505547000000004,-1.0484143
-9.225089,-2.3505547000000004,-1.0484143
-9.225089,-2.3505547000000004,-1.0484143
-9.158066999999999,-2.3505547000000004,-1.0579889
-9.158066999999999,-2.3505547000000004,-1.0579889
-9.158066999999999,-2.3505547000000004,-1.0579889
-9.158066999999999,-2.3505547000000004,-1.0579889
-9.129342999999999,-2.321831,-1.0292653
-9.129342999999999,-2.321831,-1.0292653
-9.129342999999999,-2.321831,-1.0292653
-9.129342999999999,-2.321831,-1.0292653
-9.244238000000001,-2.3888528,-1.0675635
-9.244238000000001,-2.3888528,-1.0675635
-9.244238000000001,-2.3888528,-1.0675635
-9.244238000000001,-2.3888528,-1.0675635
-9.3878565,-2.3984275,-0.9526688
-9.3878565,-2.3984275,-0.9526688
-9.3878565,-2.3984275,-0.9526688
-9.3878565,-2.3984275,-0.9526688
-9.196365,-2.4367256,-0.83777404
-9.196365,-2.4367256,-0.83777404
-9.196365,-2.4367256,-0.83777404
-9.196365,-2.4367256,-0.83777404
-9.043172,-2.4463003,-0.8664976999999999
-9.043172,-2.4463003,-0.8664976999999999
-9.043172,-2.4463003,-0.8664976999999999
-9.043172,-2.4463003,-0.8664976999999999
-9.244238000000001,-2.5707695,-1.1154363
-9.244238000000001,-2.5707695,-1.1154363
-9.244238000000001,-2.5707695,-1.1154363
-9.244238000000001,-2.5707695,-1.1154363
-9.110194,-2.5324712000000003,-1.0771381000000002
-9.110194,-2.5324712000000003,-1.0771381000000002
-9.110194,-2.5324712000000003,-1.0771381000000002
-9.110194,-2.5324712000000003,-1.0771381000000002
-9.004874000000001,-2.4654493,-0.93351966
-9.004874000000001,-2.4654493,-0.93351966
-9.004874000000001,-2.4654493,-0.93351966
-9.004874000000001,-2.4654493,-0.93351966
-9.100619,-2.3697037999999995,-0.9622433000000001
-9.100619,-2.3697037999999995,-0.9622433000000001
-9.100619,-2.3697037999999995,-0.9622433000000001
-9.100619,-2.3697037999999995,-0.9622433000000001
-9.234664,-2.3314054,-0.99096704
-9.234664,-2.3314054,-0.99096704
-9.234664,-2.3314054,-0.99096704
-9.272962,-2.2931072999999995,-0.93351966
-9.272962,-2.2931072999999995,-0.93351966
-9.272962,-2.2931072999999995,-0.93351966
-9.272962,-2.2931072999999995,-0.93351966
-9.272962,-2.2931072999999995,-0.93351966
-9.177217,-2.360129,-0.85692316
-9.177217,-2.360129,-0.85692316
-9.177217,-2.360129,-0.85692316
-9.177217,-2.360129,-0.85692316
-9.129342999999999,-2.3792782000000003,-0.8186249
-9.129342999999999,-2.3792782000000003,-0.8186249
-9.129342999999999,-2.3792782000000003,-0.8186249
-9.129342999999999,-2.3792782000000003,-0.8186249
-9.158066999999999,-2.5228968,-0.8281995000000001
-9.158066999999999,-2.5228968,-0.8281995000000001
-9.158066999999999,-2.5228968,-0.8281995000000001
-9.138917999999999,-2.5037475,-0.8090504
-9.138917999999999,-2.5037475,-0.8090504
-9.138917999999999,-2.5037475,-0.8090504
-9.138917999999999,-2.5037475,-0.8090504
-9.138917999999999,-2.5420458,-0.8090504
-9.138917999999999,-2.5420458,-0.8090504
-9.138917999999999,-2.5420458,-0.8090504
-9.138917999999999,-2.5420458,-0.8090504
-9.110194,-2.5516202,-0.8664976999999999
-9.110194,-2.5516202,-0.8664976999999999
-9.110194,-2.5516202,-0.8664976999999999
-9.110194,-2.5516202,-0.8664976999999999
-9.148492999999998,-2.4654493,-0.90479594
-9.148492999999998,-2.4654493,-0.90479594
-9.148492999999998,-2.4654493,-0.90479594
-9.148492999999998,-2.4654493,-0.90479594
-9.100619,-2.4558747000000003,-0.8473485999999999
-9.100619,-2.4558747000000003,-0.8473485999999999
-9.100619,-2.4558747000000003,-0.8473485999999999
-9.100619,-2.4558747000000003,-0.8473485999999999
-9.148492999999998,-2.3792782000000003,-0.8281995000000001
-9.148492999999998,-2.3792782000000003,-0.8281995000000001
-9.148492999999998,-2.3792782000000003,-0.8281995000000001
-9.148492999999998,-2.4175766,-0.93351966
-9.148492999999998,-2.4175766,-0.93351966
-9.148492999999998,-2.4175766,-0.93351966
-9.148492999999998,-2.4175766,-0.93351966
-9.20594,-2.427151,-0.9718179
-9.20594,-2.427151,-0.9718179
-9.20594,-2.427151,-0.9718179
-9.20594,-2.427151,-0.9718179
-9.225089,-2.494173,-0.85692316
-9.225089,-2.494173,-0.85692316
-9.225089,-2.494173,-0.85692316
-9.225089,-2.494173,-0.85692316
-9.244238000000001,-2.5420458,-0.8090504
-9.244238000000001,-2.5420458,-0.8090504
-9.244238000000001,-2.5420458,-0.8090504
-9.244238000000001,-2.5420458,-0.8090504
-9.167641999999999,-2.5037475,-0.8090504
-9.167641999999999,-2.5037475,-0.8090504
-9.167641999999999,-2.5037475,-0.8090504
-9.167641999999999,-2.5037475,-0.8090504
-9.158066999999999,-2.494173,-0.8760723
-9.158066999999999,-2.494173,-0.8760723
-9.158066999999999,-2.494173,-0.8760723
-9.158066999999999,-2.494173,-0.8760723
-9.177217,-2.4750240000000003,-0.90479594
-9.177217,-2.4750240000000003,-0.90479594
-9.177217,-2.4750240000000003,-0.90479594
-9.158066999999999,-2.5420458,-1.0005416
-9.158066999999999,-2.5420458,-1.0005416
-9.158066999999999,-2.5420458,-1.0005416
-9.158066999999999,-2.5420458,-1.0005416
-9.158066999999999,-2.5420458,-1.0005416
-9.177217,-2.5228968,-1.0484143
-9.177217,-2.5228968,-1.0484143
-9.177217,-2.5228968,-1.0484143
-9.177217,-2.5228968,-1.0484143
-9.158066999999999,-2.5037475,-0.98139244
-9.158066999999999,-2.5037475,-0.98139244
-9.158066999999999,-2.5037475,-0.98139244
-9.158066999999999,-2.5037475,-0.98139244
-9.110194,-2.5324712000000003,-0.90479594
-9.110194,-2.5324712000000003,-0.90479594
-9.110194,-2.5324712000000003,-0.90479594
-9.110194,-2.5324712000000003,-0.90479594
-9.148492999999998,-2.5037475,-0.8760723
-9.148492999999998,-2.5037475,-0.8760723
-9.148492999999998,-2.5037475,-0.8760723
-9.20594,-2.5228968,-0.8952214
-9.20594,-2.5228968,-0.8952214
-9.20594,-2.5228968,-0.8952214
-9.20594,-2.5228968,-0.8952214
-9.18679,-2.5324712000000003,-0.85692316
-9.18679,-2.5324712000000003,-0.85692316
-9.18679,-2.5324712000000003,-0.85692316
-9.18679,-2.5324712000000003,-0.85692316
-9.110194,-2.5420458,-0.90479594
-9.110194,-2.5420458,-0.90479594
-9.110194,-2.5420458,-0.90479594
-9.110194,-2.5420458,-0.90479594
-9.138917999999999,-2.6186423,-0.9718179
-9.138917999999999,-2.6186423,-0.9718179
-9.138917999999999,-2.6186423,-0.9718179
-9.138917999999999,-2.6186423,-0.9718179
-9.177217,-2.5899186000000003,-0.9526688
-9.177217,-2.5899186000000003,-0.9526688
-9.177217,-2.5899186000000003,-0.9526688
-9.177217,-2.5899186000000003,-0.9526688
-9.129342999999999,-2.5803439999999997,-0.93351966
-9.129342999999999,-2.5803439999999997,-0.93351966
-9.129342999999999,-2.5803439999999997,-0.93351966
-9.129342999999999,-2.5803439999999997,-0.93351966
-9.167641999999999,-2.561195,-0.8760723
-9.167641999999999,-2.561195,-0.8760723
-9.167641999999999,-2.561195,-0.8760723
-9.138917999999999,-2.561195,-0.8856468000000001
-9.138917999999999,-2.561195,-0.8856468000000001
-9.138917999999999,-2.561195,-0.8856468000000001
-9.138917999999999,-2.561195,-0.8856468000000001
-9.138917999999999,-2.561195,-0.8856468000000001
-9.0814705,-2.6090677,-0.8664976999999999
-9.0814705,-2.6090677,-0.8664976999999999
-9.0814705,-2.6090677,-0.8664976999999999
-9.378282,-2.6377914000000002,-0.85692316
-9.378282,-2.6377914000000002,-0.85692316
-9.378282,-2.6377914000000002,-0.85692316
-9.378282,-2.6377914000000002,-0.85692316
-9.004874000000001,-2.8388572,-0.7228793
-9.004874000000001,-2.8388572,-0.7228793
-9.004874000000001,-2.8388572,-0.7228793
-9.004874000000001,-2.8388572,-0.7228793
-8.966576,-2.6569404999999997,-0.7228793
-8.966576,-2.6569404999999997,-0.7228793
-8.966576,-2.6569404999999997,-0.7228793
-8.966576,-2.6569404999999997,-0.7228793
-9.033598,-2.647366,-0.9430941999999999
-9.033598,-2.647366,-0.9430941999999999
-9.033598,-2.647366,-0.9430941999999999
-9.033598,-2.647366,-0.9430941999999999
-8.937852000000001,-2.408002,-0.92394507
-8.937852000000001,-2.408002,-0.92394507
-8.937852000000001,-2.408002,-0.92394507
-8.937852000000001,-2.408002,-0.92394507
-8.727212,-2.4463003,-0.8760723
-8.727212,-2.4463003,-0.8760723
-8.727212,-2.4463003,-0.8760723
-8.727212,-2.4463003,-0.8760723
-8.593167999999999,-2.5994933,-0.751603
-8.593167999999999,-2.5994933,-0.751603
-8.593167999999999,-2.5994933,-0.751603
-8.593167999999999,-2.5994933,-0.751603
-8.889978999999999,-3.059072,-0.5313880999999999
-8.889978999999999,-3.059072,-0.5313880999999999
-8.889978999999999,-3.059072,-0.5313880999999999
-8.889978999999999,-3.059072,-0.5313880999999999
-8.545295,-3.3654580000000003,-0.34947145
-8.545295,-3.3654580000000003,-0.34947145
-8.545295,-3.3654580000000003,-0.34947145
-8.545295,-3.3654580000000003,-0.34947145
-8.66019,-3.5665237999999997,-0.37819514
-8.66019,-3.5665237999999997,-0.37819514
-8.66019,-3.5665237999999997,-0.37819514
-8.66019,-3.5665237999999997,-0.37819514
-9.655944,-3.8824842000000004,-0.6558574
-9.655944,-3.8824842000000004,-0.6558574
-9.655944,-3.8824842000000004,-0.6558574
-9.655944,-3.8824842000000004,-0.6558574
-11.379365,-4.322914,-1.2877783999999999
-11.379365,-4.322914,-1.2877783999999999
-11.379365,-4.322914,-1.2877783999999999
-11.379365,-4.322914,-1.2877783999999999
-11.274045,-4.275041000000001,-1.2016073
-11.274045,-4.275041000000001,-1.2016073
-11.274045,-4.275041000000001,-1.2016073
-11.274045,-4.275041000000001,-1.2016073
-9.531475,-4.08355,-1.5462915000000002
-9.531475,-4.08355,-1.5462915000000002
-9.531475,-4.08355,-1.5462915000000002
-9.531475,-4.08355,-1.5462915000000002
-10.29744,-2.8963046,-1.5654407
-10.29744,-2.8963046,-1.5654407
-10.29744,-2.8963046,-1.5654407
-10.29744,-2.8963046,-1.5654407
-7.214431299999999,-2.4845984,-1.2016073
-7.214431299999999,-2.4845984,-1.2016073
-7.214431299999999,-2.4845984,-1.2016073
-7.214431299999999,-2.4845984,-1.2016073
-6.180379,-1.948423,-1.0484143
-6.180379,-1.948423,-1.0484143
-6.180379,-1.948423,-1.0484143
-6.180379,-1.948423,-1.0484143
-4.7920675,-1.4505458999999998,-0.59841
-4.7920675,-1.4505458999999998,-0.59841
-4.7920675,-1.4505458999999998,-0.59841
-4.7920675,-1.4505458999999998,-0.59841
-5.098453500000001,-1.0292653,-0.78032666
-5.098453500000001,-1.0292653,-0.78032666
-5.098453500000001,-1.0292653,-0.78032666
-5.098453500000001,-1.0292653,-0.78032666
-6.400593799999999,-1.1250108,-1.2877783999999999
-6.400593799999999,-1.1250108,-1.2877783999999999
-6.400593799999999,-1.1250108,-1.2877783999999999
-6.400593799999999,-1.1250108,-1.2877783999999999
-8.430401,-3.4133307999999998,-0.9526688
-8.430401,-3.4133307999999998,-0.9526688
-8.430401,-3.4133307999999998,-0.9526688
-8.430401,-3.4133307999999998,-0.9526688
-15.716641000000001,-4.6005764000000005,-1.5271424
-15.716641000000001,-4.6005764000000005,-1.5271424
-15.716641000000001,-4.6005764000000005,-1.5271424
-15.716641000000001,-4.6005764000000005,-1.5271424
-12.9591675,-3.8633351,0.2920241
-12.9591675,-3.8633351,0.2920241
-12.9591675,-3.8633351,0.2920241
-12.9591675,-3.8633351,0.2920241
-7.8272033,-2.6186423,1.3452256999999999
-7.8272033,-2.6186423,1.3452256999999999
-7.8272033,-2.6186423,1.3452256999999999
-7.8272033,-2.6186423,1.3452256999999999
-3.0303482999999996,-2.7048132000000003,1.0579889
-3.0303482999999996,-2.7048132000000003,1.0579889
-3.0303482999999996,-2.7048132000000003,1.0579889
-3.0303482999999996,-2.7048132000000003,1.0579889
-6.1899533,-3.9399316,-0.20585304
-6.1899533,-3.9399316,-0.20585304
-6.1899533,-3.9399316,-0.20585304
-6.1899533,-3.9399316,-0.20585304
-18.646456,-3.6335455999999997,-2.6186423
-18.646456,-3.6335455999999997,-2.6186423
-18.646456,-3.6335455999999997,-2.6186423
-18.646456,-3.6335455999999997,-2.6186423
-13.926198000000001,-3.4803526,-2.0728923999999997
-13.926198000000001,-3.4803526,-2.0728923999999997
-13.926198000000001,-3.4803526,-2.0728923999999997
-13.926198000000001,-3.4803526,-2.0728923999999997
-9.330409,-2.666515,-1.2399056
-9.330409,-2.666515,-1.2399056
-9.330409,-2.666515,-1.2399056
-9.330409,-2.666515,-1.2399056
-0.98139244,-2.9537517999999996,0.6079846
-0.98139244,-2.9537517999999996,0.6079846
-0.98139244,-2.9537517999999996,0.6079846
-0.98139244,-2.9537517999999996,0.6079846
-2.0824668,-1.5558661,0.9718179
-2.0824668,-1.5558661,0.9718179
-2.0824668,-1.5558661,0.9718179
-2.0824668,-1.5558661,0.9718179
-11.092129,-1.3356511999999998,-1.5462915000000002
-11.092129,-1.3356511999999998,-1.5462915000000002
-11.092129,-1.3356511999999998,-1.5462915000000002
-11.092129,-1.3356511999999998,-1.5462915000000002
-15.869833999999999,-1.8143792,-3.5282254
-15.869833999999999,-1.8143792,-3.5282254
-15.869833999999999,-1.8143792,-3.5282254
-15.869833999999999,-1.8143792,-3.5282254
-15.123018,-3.997379,-1.9292740000000002
-15.123018,-3.997379,-1.9292740000000002
-15.123018,-3.997379,-1.9292740000000002
-15.123018,-3.997379,-1.9292740000000002
-7.1857076,-3.0303482999999996,-0.05266008
-7.1857076,-3.0303482999999996,-0.05266008
-7.1857076,-3.0303482999999996,-0.05266008
-7.1857076,-3.0303482999999996,-0.05266008
-2.2452345,-0.9622433000000001,0.3877697
-2.2452345,-0.9622433000000001,0.3877697
-2.2452345,-0.9622433000000001,0.3877697
-2.2452345,-0.9622433000000001,0.3877697
-1.6899098999999997,-1.8909756999999998,0.45479164
-1.6899098999999997,-1.8909756999999998,0.45479164
-1.6899098999999997,-1.8909756999999998,0.45479164
-1.6899098999999997,-1.8909756999999998,0.45479164
-7.6740103,-3.5952474999999997,0.023936402000000002
-7.6740103,-3.5952474999999997,0.023936402000000002
-7.6740103,-3.5952474999999997,0.023936402000000002
-7.6740103,-3.5952474999999997,0.023936402000000002
-18.02411,-3.3654580000000003,-3.0686467
-18.02411,-3.3654580000000003,-3.0686467
-18.02411,-3.3654580000000003,-3.0686467
-18.02411,-3.3654580000000003,-3.0686467
-16.549626999999997,-2.427151,-2.7048132000000003
-16.549626999999997,-2.427151,-2.7048132000000003
-16.549626999999997,-2.427151,-2.7048132000000003
-16.549626999999997,-2.427151,-2.7048132000000003
-10.642124,-2.0633178,-1.383524
-10.642124,-2.0633178,-1.383524
-10.642124,-2.0633178,-1.383524
-10.642124,-2.0633178,-1.383524
-0.014361841,-1.4218222,0.751603
-0.014361841,-1.4218222,0.751603
-0.014361841,-1.4218222,0.751603
-0.014361841,-1.4218222,0.751603
1.8814011999999998,-0.09095833,0.2920241
1.8814011999999998,-0.09095833,0.2920241
1.8814011999999998,-0.09095833,0.2920241
1.8814011999999998,-0.09095833,0.2920241
-14.816632,-1.7665064,-3.0973704
-14.816632,-1.7665064,-3.0973704
-14.816632,-1.7665064,-3.0973704
-16.17622,-3.212265,-1.0579889
-16.17622,-3.212265,-1.0579889
-16.17622,-3.212265,-1.0579889
-16.17622,-3.212265,-1.0579889
-16.17622,-3.212265,-1.0579889
-10.249566999999999,-3.078221,0.5792609000000001
-10.249566999999999,-3.078221,0.5792609000000001
-10.249566999999999,-3.078221,0.5792609000000001
-5.4431376,-1.4505458999999998,-0.10053288
-5.4431376,-1.4505458999999998,-0.10053288
-5.4431376,-1.4505458999999998,-0.10053288
-5.4431376,-1.4505458999999998,-0.10053288
-2.5324712000000003,-1.1728836,1.2303311000000001
-2.5324712000000003,-1.1728836,1.2303311000000001
-2.5324712000000003,-1.1728836,1.2303311000000001
-2.5324712000000003,-1.1728836,1.2303311000000001
-14.20386,-2.8771553,-1.9005502
-14.20386,-2.8771553,-1.9005502
-14.20386,-2.8771553,-1.9005502
-14.20386,-2.8771553,-1.9005502
-17.018782,-3.8824842000000004,-2.3505547000000004
-17.018782,-3.8824842000000004,-2.3505547000000004
-17.018782,-3.8824842000000004,-2.3505547000000004
-17.018782,-3.8824842000000004,-2.3505547000000004
-14.969825,-2.9250283,-1.8431028999999999
-14.969825,-2.9250283,-1.8431028999999999
-14.969825,-2.9250283,-1.8431028999999999
-14.969825,-2.9250283,-1.8431028999999999
-4.428234,-3.0877957,0.062234644000000006
-4.428234,-3.0877957,0.062234644000000006
-4.428234,-3.0877957,0.062234644000000006
-4.428234,-3.0877957,0.062234644000000006
1.8718264999999998,-1.9675721999999998,1.2207563999999997
1.8718264999999998,-1.9675721999999998,1.2207563999999997
1.8718264999999998,-1.9675721999999998,1.2207563999999997
-4.0548263,-1.3165021000000001,-0.3111732
-4.0548263,-1.3165021000000001,-0.3111732
-4.0548263,-1.3165021000000001,-0.3111732
-4.0548263,-1.3165021000000001,-0.3111732
-16.578352,-2.6952388,-3.451629
-16.578352,-2.6952388,-3.451629
-16.578352,-2.6952388,-3.451629
-16.578352,-2.6952388,-3.451629
-16.377285,-3.4420545,-1.14416
-16.377285,-3.4420545,-1.14416
-16.377285,-3.4420545,-1.14416
-16.377285,-3.4420545,-1.14416
-11.819795,-2.752686,-0.10053288
-11.819795,-2.752686,-0.10053288
-11.819795,-2.752686,-0.10053288
-4.1888704,-1.14416,-1.3930986
-4.1888704,-1.14416,-1.3930986
-4.1888704,-1.14416,-1.3930986
-4.1888704,-1.14416,-1.3930986
-4.1888704,-1.14416,-1.3930986
-3.6526947,-0.9718179,0.5505372
-3.6526947,-0.9718179,0.5505372
-3.6526947,-0.9718179,0.5505372
-3.8058877,-1.6611862000000002,0.56011176
-3.8058877,-1.6611862000000002,0.56011176
-3.8058877,-1.6611862000000002,0.56011176
-3.8058877,-1.6611862000000002,0.56011176
-9.62722,-3.4995019999999997,-0.665432
-9.62722,-3.4995019999999997,-0.665432
-9.62722,-3.4995019999999997,-0.665432
-9.62722,-3.4995019999999997,-0.665432
-17.07623,-2.4463003,-2.101616
-17.07623,-2.4463003,-2.101616
-17.07623,-2.4463003,-2.101616
-17.07623,-2.4463003,-2.101616
-18.34007,-2.0920415,-2.7718353
-18.34007,-2.0920415,-2.7718353
-18.34007,-2.0920415,-2.7718353
-18.34007,-2.0920415,-2.7718353
-8.755936,-2.034594,-1.1250108
-8.755936,-2.034594,-1.1250108
-8.755936,-2.034594,-1.1250108
-8.755936,-2.034594,-1.1250108
-2.8197080000000003,-1.4601203999999999,0.46436617
-2.8197080000000003,-1.4601203999999999,0.46436617
-2.8197080000000003,-1.4601203999999999,0.46436617
-2.8197080000000003,-1.4601203999999999,0.46436617
0.83777404,-0.6079846,-0.03351096
0.83777404,-0.6079846,-0.03351096
0.83777404,-0.6079846,-0.03351096
0.83777404,-0.6079846,-0.03351096
-7.7601814,-2.5420458,-0.023936402000000002
-7.7601814,-2.5420458,-0.023936402000000002
-7.7601814,-2.5420458,-0.023936402000000002
-7.7601814,-2.5420458,-0.023936402000000002
-7.7601814,-2.5420458,-0.023936402000000002
-18.407093,-3.1835412999999995,-2.5516202
-18.407093,-3.1835412999999995,-2.5516202
-18.407093,-3.1835412999999995,-2.5516202
-15.582597,-5.1846247000000005,0.45479164
-15.582597,-5.1846247000000005,0.45479164
-15.582597,-5.1846247000000005,0.45479164
-15.582597,-5.1846247000000005,0.45479164
-5.5771812999999995,-1.5845897,-0.25372586
-5.5771812999999995,-1.5845897,-0.25372586
-5.5771812999999995,-1.5845897,-0.25372586
-5.5771812999999995,-1.5845897,-0.25372586
2.3888528,-0.27287498,1.0675635
2.3888528,-0.27287498,1.0675635
2.3888528,-0.27287498,1.0675635
2.3888528,-0.27287498,1.0675635
-2.905879,-2.8771553,0.45479164
-2.905879,-2.8771553,0.45479164
-2.905879,-2.8771553,0.45479164
-2.905879,-2.8771553,0.45479164
-18.675179999999997,-4.3516379999999995,-2.905879
-18.675179999999997,-4.3516379999999995,-2.905879
-18.675179999999997,-4.3516379999999995,-2.905879
-18.675179999999997,-4.3516379999999995,-2.905879
-14.66344,-4.0931244,-1.7282081999999999
-14.66344,-4.0931244,-1.7282081999999999
-14.66344,-4.0931244,-1.7282081999999999
-6.821874,-2.733537,-1.5271424
-6.821874,-2.733537,-1.5271424
-6.821874,-2.733537,-1.5271424
-6.821874,-2.733537,-1.5271424
-5.155901,-3.7292912000000005,-1.4218222
-5.155901,-3.7292912000000005,-1.4218222
-5.155901,-3.7292912000000005,-1.4218222
-5.155901,-3.7292912000000005,-1.4218222
-15.592172,-3.5665237999999997,-3.2505634
-15.592172,-3.5665237999999997,-3.2505634
-15.592172,-3.5665237999999997,-3.2505634
-15.592172,-3.5665237999999997,-3.2505634
-18.052834,-3.0207740000000003,-0.99096704
-18.052834,-3.0207740000000003,-0.99096704
-18.052834,-3.0207740000000003,-0.99096704
-18.052834,-3.0207740000000003,-0.99096704
-12.001712,-1.0005416,-2.5994933
-12.001712,-1.0005416,-2.5994933
-12.001712,-1.0005416,-2.5994933
-12.001712,-1.0005416,-2.5994933
-12.001712,-1.0005416,-2.5994933
-4.8878129999999995,-1.4984187,0.043085523
-4.8878129999999995,-1.4984187,0.043085523
-4.8878129999999995,-1.4984187,0.043085523
-3.231414,-2.3314054,-0.49308985
-3.231414,-2.3314054,-0.49308985
-3.231414,-2.3314054,-0.49308985
-3.231414,-2.3314054,-0.49308985
-7.616563,-3.1835412999999995,-1.5654407
-7.616563,-3.1835412999999995,-1.5654407
-7.616563,-3.1835412999999995,-1.5654407
-7.616563,-3.1835412999999995,-1.5654407
-10.622974000000001,-3.4420545,-2.6090677
-10.622974000000001,-3.4420545,-2.6090677
-10.622974000000001,-3.4420545,-2.6090677
-10.622974000000001,-3.4420545,-2.6090677
-12.193203,-3.5569491,-3.4707782
-12.193203,-3.5569491,-3.4707782
-12.193203,-3.5569491,-3.4707782
-12.193203,-3.5569491,-3.4707782
-11.743198,-2.6760897999999997,-3.8346114
-11.743198,-2.6760897999999997,-3.8346114
-11.743198,-2.6760897999999997,-3.8346114
-11.743198,-2.6760897999999997,-3.8346114
-10.29744,-2.4558747000000003,-2.6569404999999997
-10.29744,-2.4558747000000003,-2.6569404999999997
-10.29744,-2.4558747000000003,-2.6569404999999997
-10.29744,-2.4558747000000003,-2.6569404999999997
-7.214431299999999,-1.862252,-2.647366
-7.214431299999999,-1.862252,-2.647366
-7.214431299999999,-1.862252,-2.647366
-7.214431299999999,-1.862252,-2.647366
-7.319751299999999,-1.9292740000000002,-1.9962958
-7.319751299999999,-1.9292740000000002,-1.9962958
-7.319751299999999,-1.9292740000000002,-1.9962958
-7.319751299999999,-1.9292740000000002,-1.9962958
-9.608071,-1.9867213,-2.2452345
-9.608071,-1.9867213,-2.2452345
-9.608071,-1.9867213,-2.2452345
-9.608071,-1.9867213,-2.2452345
-10.6134,-2.2069361,-2.254809
-10.6134,-2.2069361,-2.254809
-10.6134,-2.2069361,-2.254809
-10.6134,-2.2069361,-2.254809
-11.283619999999999,-2.0441686999999997,-1.5079931999999998
-11.283619999999999,-2.0441686999999997,-1.5079931999999998
-11.283619999999999,-2.0441686999999997,-1.5079931999999998
-11.283619999999999,-2.0441686999999997,-1.5079931999999998
-9.560199,-1.3452256999999999,-0.23457673
-9.560199,-1.3452256999999999,-0.23457673
-9.560199,-1.3452256999999999,-0.23457673
-9.560199,-1.3452256999999999,-0.23457673
-9.043172,-1.5845897,-0.00478728
-9.043172,-1.5845897,-0.00478728
-9.043172,-1.5845897,-0.00478728
-9.043172,-1.5845897,-0.00478728
-10.249566999999999,-2.1303396,0.00478728
-10.249566999999999,-2.1303396,0.00478728
-10.249566999999999,-2.1303396,0.00478728
-10.249566999999999,-2.1303396,0.00478728
-7.970821400000001,-1.9579976000000003,1.14416
-7.970821400000001,-1.9579976000000003,1.14416
-7.970821400000001,-1.9579976000000003,1.14416
-7.970821400000001,-1.9579976000000003,1.14416
-6.8410234,-2.0633178,1.2494801000000002
-6.8410234,-2.0633178,1.2494801000000002
-6.8410234,-2.0633178,1.2494801000000002
-6.8410234,-2.0633178,1.2494801000000002
-6.984642,-2.408002,1.0771381000000002
-6.984642,-2.408002,1.0771381000000002
-6.984642,-2.408002,1.0771381000000002
-6.984642,-2.408002,1.0771381000000002
-7.2048570000000005,-2.513322,1.0101161
-7.2048570000000005,-2.513322,1.0101161
-7.2048570000000005,-2.513322,1.0101161
-7.2048570000000005,-2.513322,1.0101161
-9.3878565,-2.2452345,-0.00478728
-9.3878565,-2.2452345,-0.00478728
-9.3878565,-2.2452345,-0.00478728
-9.3878565,-2.2452345,-0.00478728
-13.294277,-2.2165107999999996,-1.3739493999999999
-13.294277,-2.2165107999999996,-1.3739493999999999
-13.294277,-2.2165107999999996,-1.3739493999999999
-12.719804,-1.3548003,-2.3314054
-12.719804,-1.3548003,-2.3314054
-12.719804,-1.3548003,-2.3314054
-12.719804,-1.3548003,-2.3314054
-12.719804,-1.3548003,-2.3314054
-6.7740016,-0.56968635,-0.8281995000000001
-6.7740016,-0.56968635,-0.8281995000000001
-6.7740016,-0.56968635,-0.8281995000000001
-6.7740016,-0.56968635,-0.8281995000000001
-1.9771467,-0.7228793,0.2441513
-1.9771467,-0.7228793,0.2441513
-1.9771467,-0.7228793,0.2441513
-4.131423000000001,-0.85692316,-0.50266445
-4.131423000000001,-0.85692316,-0.50266445
-4.131423000000001,-0.85692316,-0.50266445
-4.131423000000001,-0.85692316,-0.50266445
-4.131423000000001,-0.85692316,-0.50266445
-9.98148,-1.4218222,-1.5941644
-9.98148,-1.4218222,-1.5941644
-9.98148,-1.4218222,-1.5941644
-11.4272375,-2.149489,-1.0101161
-11.4272375,-2.149489,-1.0101161
-11.4272375,-2.149489,-1.0101161
-11.4272375,-2.149489,-1.0101161
-15.573023000000001,-2.34098,-2.714388
-15.573023000000001,-2.34098,-2.714388
-15.573023000000001,-2.34098,-2.714388
-15.573023000000001,-2.34098,-2.714388
-15.573023000000001,-2.34098,-2.714388
-9.292110000000001,-3.4612036,1.4601203999999999
-9.292110000000001,-3.4612036,1.4601203999999999
-9.292110000000001,-3.4612036,1.4601203999999999
-7.664436,-1.1728836,-0.2920241
-7.664436,-1.1728836,-0.2920241
-7.664436,-1.1728836,-0.2920241
-7.664436,-1.1728836,-0.2920241
-5.06973,-2.0441686999999997,0.05266008
-5.06973,-2.0441686999999997,0.05266008
-5.06973,-2.0441686999999997,0.05266008
-5.06973,-2.0441686999999997,0.05266008
-5.06973,-2.0441686999999997,0.05266008
-7.4920936000000005,-3.7484405,0.37819514
-7.4920936000000005,-3.7484405,0.37819514
-7.4920936000000005,-3.7484405,0.37819514
-7.4920936000000005,-3.7484405,0.37819514
-6.0463347,-3.0686467,0.9622433000000001
-6.0463347,-3.0686467,0.9622433000000001
-6.0463347,-3.0686467,0.9622433000000001
-12.078308,-3.4707782,-2.2069361
-12.078308,-3.4707782,-2.2069361
-12.078308,-3.4707782,-2.2069361
-12.078308,-3.4707782,-2.2069361
-12.078308,-3.4707782,-2.2069361
-17.296444,-1.3643749,-3.0686467
-17.296444,-1.3643749,-3.0686467
-17.296444,-1.3643749,-3.0686467
-17.296444,-1.3643749,-3.0686467
-10.594251,-0.5313880999999999,-1.5750152
-10.594251,-0.5313880999999999,-1.5750152
-10.594251,-0.5313880999999999,-1.5750152
2.1782124,-1.8718264999999998,0.8760723
2.1782124,-1.8718264999999998,0.8760723
2.1782124,-1.8718264999999998,0.8760723
2.1782124,-1.8718264999999998,0.8760723
2.1782124,-1.8718264999999998,0.8760723
-0.25372586,0.48351530000000004,-0.78032666
-0.25372586,0.48351530000000004,-0.78032666
-0.25372586,0.48351530000000004,-0.78032666
-0.25372586,0.48351530000000004,-0.78032666
-15.888982999999998,-3.1260939999999997,-1.9005502
-15.888982999999998,-3.1260939999999997,-1.9005502
-15.888982999999998,-3.1260939999999997,-1.9005502
-15.888982999999998,-3.1260939999999997,-1.9005502
-16.693247,-3.5378,-0.4164934
-16.693247,-3.5378,-0.4164934
-16.693247,-3.5378,-0.4164934
-16.693247,-3.5378,-0.4164934
-11.963413000000001,-3.193116,0.30159867
-11.963413000000001,-3.193116,0.30159867
-11.963413000000001,-3.193116,0.30159867
-11.963413000000001,-3.193116,0.30159867
-4.96441,-2.867581,0.05266008
-4.96441,-2.867581,0.05266008
-4.96441,-2.867581,0.05266008
-4.96441,-2.867581,0.05266008
1.0579889,-0.59841,2.254809
1.0579889,-0.59841,2.254809
1.0579889,-0.59841,2.254809
1.0579889,-0.59841,2.254809
-13.705982999999998,-3.451629,-2.5420458
-13.705982999999998,-3.451629,-2.5420458
-13.705982999999998,-3.451629,-2.5420458
-13.705982999999998,-3.451629,-2.5420458
-13.744282,-2.905879,-1.3930986
-13.744282,-2.905879,-1.3930986
-13.744282,-2.905879,-1.3930986
-13.744282,-2.905879,-1.3930986
-10.6134,-0.9526688,-0.6079846
-10.6134,-0.9526688,-0.6079846
-10.6134,-0.9526688,-0.6079846
-2.9537517999999996,-1.6324625,0.7324539000000001
-2.9537517999999996,-1.6324625,0.7324539000000001
-2.9537517999999996,-1.6324625,0.7324539000000001
-2.9537517999999996,-1.6324625,0.7324539000000001
-2.9537517999999996,-1.6324625,0.7324539000000001
-0.8281995000000001,-1.0962871,0.32074776
-0.8281995000000001,-1.0962871,0.32074776
-0.8281995000000001,-1.0962871,0.32074776
-0.8281995000000001,-1.0962871,0.32074776
-15.333657999999998,-2.3026817000000004,-3.2409887000000004
-15.333657999999998,-2.3026817000000004,-3.2409887000000004
-15.333657999999998,-2.3026817000000004,-3.2409887000000004
-15.333657999999998,-2.3026817000000004,-3.2409887000000004
-11.408089,-4.5239797,0.9622433000000001
-11.408089,-4.5239797,0.9622433000000001
-11.408089,-4.5239797,0.9622433000000001
-11.408089,-4.5239797,0.9622433000000001
-8.928278,-0.8281995000000001,0.023936402000000002
-8.928278,-0.8281995000000001,0.023936402000000002
-8.928278,-0.8281995000000001,0.023936402000000002
-8.928278,-0.8281995000000001,0.023936402000000002
-4.4186597,-2.2931072999999995,-0.91437054
-4.4186597,-2.2931072999999995,-0.91437054
-4.4186597,-2.2931072999999995,-0.91437054
-4.4186597,-2.2931072999999995,-0.91437054
-8.00912,-2.9537517999999996,-0.2154276
-8.00912,-2.9537517999999996,-0.2154276
-8.00912,-2.9537517999999996,-0.2154276
-8.00912,-2.9537517999999996,-0.2154276
-18.694329999999997,-2.6569404999999997,-3.2792869
-18.694329999999997,-2.6569404999999997,-3.2792869
-18.694329999999997,-2.6569404999999997,-3.2792869
-18.694329999999997,-2.6569404999999997,-3.2792869
-11.59958,-0.9526688,-0.7994758000000001
-11.59958,-0.9526688,-0.7994758000000001
-11.59958,-0.9526688,-0.7994758000000001
-11.59958,-0.9526688,-0.7994758000000001
-7.482519,-2.905879,-0.69415563
-7.482519,-2.905879,-0.69415563
-7.482519,-2.905879,-0.69415563
-7.482519,-2.905879,-0.69415563
-7.482519,-2.905879,-0.69415563
0.03351096,-2.4367256,0.45479164
0.03351096,-2.4367256,0.45479164
0.03351096,-2.4367256,0.45479164
-1.9962958,-0.99096704,0.05266008
-1.9962958,-0.99096704,0.05266008
-1.9962958,-0.99096704,0.05266008
-1.9962958,-0.99096704,0.05266008
-14.864505,-2.254809,-1.4409714
-14.864505,-2.254809,-1.4409714
-14.864505,-2.254809,-1.4409714
-14.864505,-2.254809,-1.4409714
-14.864505,-2.254809,-1.4409714
-15.094295,-2.561195,-0.25372586
-15.094295,-2.561195,-0.25372586
-15.094295,-2.561195,-0.25372586
-14.424075,-1.7186337,-1.0771381000000002
-14.424075,-1.7186337,-1.0771381000000002
-14.424075,-1.7186337,-1.0771381000000002
-14.424075,-1.7186337,-1.0771381000000002
-4.322914,-1.8431028999999999,0.42606795
-4.322914,-1.8431028999999999,0.42606795
-4.322914,-1.8431028999999999,0.42606795
-4.322914,-1.8431028999999999,0.42606795
-4.322914,-1.8431028999999999,0.42606795
2.321831,-0.7228793,0.83777404
2.321831,-0.7228793,0.83777404
2.321831,-0.7228793,0.83777404
-13.390023000000001,-2.321831,-3.1260939999999997
-13.390023000000001,-2.321831,-3.1260939999999997
-13.390023000000001,-2.321831,-3.1260939999999997
-13.390023000000001,-2.321831,-3.1260939999999997
-15.774088,-3.5952474999999997,-0.9526688
-15.774088,-3.5952474999999997,-0.9526688
-15.774088,-3.5952474999999997,-0.9526688
-15.774088,-3.5952474999999997,-0.9526688
-15.774088,-3.5952474999999997,-0.9526688
-11.254896,-0.78032666,-1.0867126
-11.254896,-0.78032666,-1.0867126
-11.254896,-0.78032666,-1.0867126
-11.254896,-0.78032666,-1.0867126
-2.1590632999999997,-2.7431116,0.359046
-2.1590632999999997,-2.7431116,0.359046
-2.1590632999999997,-2.7431116,0.359046
-3.7101421,-2.714388,0.0
-3.7101421,-2.714388,0.0
-3.7101421,-2.714388,0.0
-3.7101421,-2.714388,0.0
-3.7101421,-2.714388,0.0
-19.603912,-2.88673,-3.8824842000000004
-19.603912,-2.88673,-3.8824842000000004
-19.603912,-2.88673,-3.8824842000000004
-19.603912,-2.88673,-3.8824842000000004
-7.721883,-3.8346114,2.5037475
-7.721883,-3.8346114,2.5037475
-7.721883,-3.8346114,2.5037475
-5.6250544,-1.2303311000000001,-0.85692316
-5.6250544,-1.2303311000000001,-0.85692316
-5.6250544,-1.2303311000000001,-0.85692316
-5.6250544,-1.2303311000000001,-0.85692316
-5.6250544,-1.2303311000000001,-0.85692316
-4.169721,-2.7431116,-0.5505372
-4.169721,-2.7431116,-0.5505372
-4.169721,-2.7431116,-0.5505372
-4.169721,-2.7431116,-0.5505372
-4.169721,-2.7431116,-0.5505372
-4.169721,-2.7431116,-0.5505372
-4.169721,-2.7431116,-0.5505372
-4.169721,-2.7431116,-0.5505372
-4.169721,-2.7431116,-0.5505372
-4.169721,-2.7431116,-0.5505372
-4.169721,-2.7431116,-0.5505372
-4.169721,-2.7431116,-0.5505372
-4.169721,-2.7431116,-0.5505372
-4.169721,-2.7431116,-0.5505372
-4.169721,-2.7431116,-0.5505372
-4.169721,-2.7431116,-0.5505372
-4.169721,-2.7431116,-0.5505372
-4.169721,-2.7431116,-0.5505372
-9.665519,-1.6611862000000002,-0.8856468000000001
-9.665519,-1.6611862000000002,-0.8856468000000001
-9.665519,-1.6611862000000002,-0.8856468000000001
-19.364548000000003,-1.7473572,-3.5856729
-19.364548000000003,-1.7473572,-3.5856729
-19.364548000000003,-1.7473572,-3.5856729
-19.364548000000003,-1.7473572,-3.5856729
-11.111278,-2.360129,-1.0484143
-11.111278,-2.360129,-1.0484143
-11.111278,-2.360129,-1.0484143
-11.111278,-2.360129,-1.0484143
-11.111278,-2.360129,-1.0484143
-3.1643922000000004,-2.714388,0.49308985
-3.1643922000000004,-2.714388,0.49308985
-3.1643922000000004,-2.714388,0.49308985
-3.7963133,-1.4409714,-1.2590546999999999
-3.7963133,-1.4409714,-1.2590546999999999
-3.7963133,-1.4409714,-1.2590546999999999
-3.7963133,-1.4409714,-1.2590546999999999
-18.35922,-2.8484317999999997,-3.690993
-18.35922,-2.8484317999999997,-3.690993
-18.35922,-2.8484317999999997,-3.690993
-18.35922,-2.8484317999999997,-3.690993
-18.35922,-2.8484317999999997,-3.690993
-12.3463955,-3.4133307999999998,1.2590546999999999
-12.3463955,-3.4133307999999998,1.2590546999999999
-12.3463955,-3.4133307999999998,1.2590546999999999
-8.277207,-2.5420458,0.9718179
-8.277207,-2.5420458,0.9718179
-8.277207,-2.5420458,0.9718179
-8.277207,-2.5420458,0.9718179
0.8760723,-1.6037389,1.4984187
0.8760723,-1.6037389,1.4984187
0.8760723,-1.6037389,1.4984187
0.8760723,-1.6037389,1.4984187
-4.83994,-2.1877869999999997,-0.64628285
-4.83994,-2.1877869999999997,-0.64628285
-4.83994,-2.1877869999999997,-0.64628285
-4.83994,-2.1877869999999997,-0.64628285
-4.83994,-2.1877869999999997,-0.64628285
-19.603912,-2.4845984,-2.254809
-19.603912,-2.4845984,-2.254809
-19.603912,-2.4845984,-2.254809
-12.805975,-1.7665064,-0.5888355
-12.805975,-1.7665064,-0.5888355
-12.805975,-1.7665064,-0.5888355
-12.805975,-1.7665064,-0.5888355
-12.805975,-1.7665064,-0.5888355
-4.3324885,-2.8484317999999997,0.61755913
-4.3324885,-2.8484317999999997,0.61755913
-4.3324885,-2.8484317999999997,0.61755913
-4.3324885,-2.8484317999999997,0.61755913
2.800559,-1.7665064,0.12925656
2.800559,-1.7665064,0.12925656
2.800559,-1.7665064,0.12925656
-12.834699,-2.0537431,-3.2697124
-12.834699,-2.0537431,-3.2697124
-12.834699,-2.0537431,-3.2697124
-12.834699,-2.0537431,-3.2697124
-12.834699,-2.0537431,-3.2697124
-17.306019,-4.0069537,-0.27287498
-17.306019,-4.0069537,-0.27287498
-17.306019,-4.0069537,-0.27287498
-10.460207,-1.8909756999999998,0.32074776
-10.460207,-1.8909756999999998,0.32074776
-10.460207,-1.8909756999999998,0.32074776
-10.460207,-1.8909756999999998,0.32074776
-3.0303482999999996,-2.168638,0.36862057
-3.0303482999999996,-2.168638,0.36862057
-3.0303482999999996,-2.168638,0.36862057
-3.0303482999999996,-2.168638,0.36862057
-4.456958,-2.0728923999999997,0.12925656
-4.456958,-2.0728923999999997,0.12925656
-4.456958,-2.0728923999999997,0.12925656
-4.456958,-2.0728923999999997,0.12925656
-18.828373000000003,-2.6760897999999997,-3.2792869
-18.828373000000003,-2.6760897999999997,-3.2792869
-18.828373000000003,-2.6760897999999997,-3.2792869
-18.828373000000003,-2.6760897999999997,-3.2792869
-9.8953085,-1.7665064,0.27287498
-9.8953085,-1.7665064,0.27287498
-9.8953085,-1.7665064,0.27287498
-9.8953085,-1.7665064,0.27287498
-6.6016593,-2.4367256,-0.32074776
-6.6016593,-2.4367256,-0.32074776
-6.6016593,-2.4367256,-0.32074776
-6.6016593,-2.4367256,-0.32074776
2.360129,-2.3314054,1.469695
2.360129,-2.3314054,1.469695
2.360129,-2.3314054,1.469695
2.360129,-2.3314054,1.469695
-11.235746,-1.5462915000000002,-3.4133307999999998
-11.235746,-1.5462915000000002,-3.4133307999999998
-11.235746,-1.5462915000000002,-3.4133307999999998
-11.235746,-1.5462915000000002,-3.4133307999999998
-19.603912,-3.9495062999999995,-1.3452256999999999
-19.603912,-3.9495062999999995,-1.3452256999999999
-19.603912,-3.9495062999999995,-1.3452256999999999
-19.603912,-3.9495062999999995,-1.3452256999999999
-7.9037995,-2.5707695,2.3697037999999995
-7.9037995,-2.5707695,2.3697037999999995
-7.9037995,-2.5707695,2.3697037999999995
-7.9037995,-2.5707695,2.3697037999999995
0.09095833,-1.3930986,0.4164934
0.09095833,-1.3930986,0.4164934
0.09095833,-1.3930986,0.4164934
0.09095833,-1.3930986,0.4164934
-5.1654754,-2.5420458,-0.5505372
-5.1654754,-2.5420458,-0.5505372
-5.1654754,-2.5420458,-0.5505372
-5.1654754,-2.5420458,-0.5505372
-19.603912,-2.3026817000000004,-2.3792782000000003
-19.603912,-2.3026817000000004,-2.3792782000000003
-19.603912,-2.3026817000000004,-2.3792782000000003
-19.603912,-2.3026817000000004,-2.3792782000000003
-10.450633,-2.2069361,0.11968201
-10.450633,-2.2069361,0.11968201
-10.450633,-2.2069361,0.11968201
-10.450633,-2.2069361,0.11968201
0.91437054,-2.2356597999999996,0.6558574
0.91437054,-2.2356597999999996,0.6558574
0.91437054,-2.2356597999999996,0.6558574
0.91437054,-2.2356597999999996,0.6558574
-4.8973875,-0.71330476,-0.9526688
-4.8973875,-0.71330476,-0.9526688
-4.8973875,-0.71330476,-0.9526688
-4.8973875,-0.71330476,-0.9526688
-18.387943,-3.2218397000000003,-2.360129
-18.387943,-3.2218397000000003,-2.360129
-18.387943,-3.2218397000000003,-2.360129
-18.387943,-3.2218397000000003,-2.360129
-11.542132,-3.384607,2.714388
-11.542132,-3.384607,2.714388
-11.542132,-3.384607,2.714388
-11.542132,-3.384607,2.714388
-11.542132,-3.384607,2.714388
-6.8793216,-2.1207652,0.19627848
-6.8793216,-2.1207652,0.19627848
-6.8793216,-2.1207652,0.19627848
-0.00478728,-2.9537517999999996,1.1250108
-0.00478728,-2.9537517999999996,1.1250108
-0.00478728,-2.9537517999999996,1.1250108
-0.00478728,-2.9537517999999996,1.1250108
-16.26239,-1.3069274,-3.6526947
-16.26239,-1.3069274,-3.6526947
-16.26239,-1.3069274,-3.6526947
-16.26239,-1.3069274,-3.6526947
-11.838944,-1.7282081999999999,-1.0388398
-11.838944,-1.7282081999999999,-1.0388398
-11.838944,-1.7282081999999999,-1.0388398
-11.838944,-1.7282081999999999,-1.0388398
-7.032514599999999,-2.9441773999999996,-0.23457673
-7.032514599999999,-2.9441773999999996,-0.23457673
-7.032514599999999,-2.9441773999999996,-0.23457673
-7.032514599999999,-2.9441773999999996,-0.23457673
-1.5654407,-2.5228968,0.61755913
-1.5654407,-2.5228968,0.61755913
-1.5654407,-2.5228968,0.61755913
-1.5654407,-2.5228968,0.61755913
-11.484685,-1.9292740000000002,-4.342063
-11.484685,-1.9292740000000002,-4.342063
-11.484685,-1.9292740000000002,-4.342063
-18.493263,-3.8537605000000004,-1.8143792
-18.493263,-3.8537605000000004,-1.8143792
-18.493263,-3.8537605000000004,-1.8143792
-18.493263,-3.8537605000000004,-1.8143792
-9.636795,-1.6420371999999999,2.3888528
-9.636795,-1.6420371999999999,2.3888528
-9.636795,-1.6420371999999999,2.3888528
-9.636795,-1.6420371999999999,2.3888528
-5.6154795,-1.0962871,-1.383524
-5.6154795,-1.0962871,-1.383524
-5.6154795,-1.0962871,-1.383524
-5.6154795,-1.0962871,-1.383524
-1.3739493999999999,-1.0388398,0.8186249
-1.3739493999999999,-1.0388398,0.8186249
-1.3739493999999999,-1.0388398,0.8186249
-1.3739493999999999,-1.0388398,0.8186249
-2.4558747000000003,-3.0016246,0.59841
-2.4558747000000003,-3.0016246,0.59841
-2.4558747000000003,-3.0016246,0.59841
-2.4558747000000003,-3.0016246,0.59841
-7.741032000000001,-2.905879,0.5792609000000001
-7.741032000000001,-2.905879,0.5792609000000001
-7.741032000000001,-2.905879,0.5792609000000001
-7.741032000000001,-2.905879,0.5792609000000001
-18.282623,-1.9388485,-5.17505
-18.282623,-1.9388485,-5.17505
-18.282623,-1.9388485,-5.17505
-18.282623,-1.9388485,-5.17505
-17.966663,-1.9196993000000002,-5.0601554
-17.966663,-1.9196993000000002,-5.0601554
-17.966663,-1.9196993000000002,-5.0601554
-17.966663,-1.9196993000000002,-5.0601554
-12.633633,-1.9771467,-1.7952299999999999
-12.633633,-1.9771467,-1.7952299999999999
-12.633633,-1.9771467,-1.7952299999999999
-12.633633,-1.9771467,-1.7952299999999999
-5.979312999999999,-3.518651,-1.3165021000000001
-5.979312999999999,-3.518651,-1.3165021000000001
-5.979312999999999,-3.518651,-1.3165021000000001
-5.979312999999999,-3.518651,-1.3165021000000001
-3.5952474999999997,-1.8909756999999998,-1.14416
-3.5952474999999997,-1.8909756999999998,-1.14416
-3.5952474999999997,-1.8909756999999998,-1.14416
-3.5952474999999997,-1.8909756999999998,-1.14416
-5.155901,-1.6324625,-0.63670826
-5.155901,-1.6324625,-0.63670826
-5.155901,-1.6324625,-0.63670826
-5.155901,-1.6324625,-0.63670826
-9.54105,-1.9675721999999998,-1.4122477
-9.54105,-1.9675721999999998,-1.4122477
-9.54105,-1.9675721999999998,-1.4122477
-9.54105,-1.9675721999999998,-1.4122477
-13.13151,-2.015445,-2.8101335
-13.13151,-2.015445,-2.8101335
-13.13151,-2.015445,-2.8101335
-13.13151,-2.015445,-2.8101335
-11.245321,-2.5037475,-2.6952388
-11.245321,-2.5037475,-2.6952388
-11.245321,-2.5037475,-2.6952388
-11.245321,-2.5037475,-2.6952388
-6.649532300000001,-2.8580062,-0.50266445
-6.649532300000001,-2.8580062,-0.50266445
-6.649532300000001,-2.8580062,-0.50266445
-6.649532300000001,-2.8580062,-0.50266445
-14.462373999999999,-1.0867126,-4.0548263
-14.462373999999999,-1.0867126,-4.0548263
-14.462373999999999,-1.0867126,-4.0548263
-14.462373999999999,-1.0867126,-4.0548263
-7.865501400000001,-1.4601203999999999,-0.49308985
-7.865501400000001,-1.4601203999999999,-0.49308985
-7.865501400000001,-1.4601203999999999,-0.49308985
-7.865501400000001,-1.4601203999999999,-0.49308985
-7.7984796,-2.101616,-0.64628285
-7.7984796,-2.101616,-0.64628285
-7.7984796,-2.101616,-0.64628285
-7.7984796,-2.101616,-0.64628285
-7.5399666,-1.5367169,-0.63670826
-7.5399666,-1.5367169,-0.63670826
-7.5399666,-1.5367169,-0.63670826
-7.5399666,-1.5367169,-0.63670826
-7.808053999999999,-1.469695,-0.5792609000000001
-7.808053999999999,-1.469695,-0.5792609000000001
-7.808053999999999,-1.469695,-0.5792609000000001
-7.808053999999999,-1.469695,-0.5792609000000001
-9.54105,-1.6037389,-1.0292653
-9.54105,-1.6037389,-1.0292653
-9.54105,-1.6037389,-1.0292653
-9.54105,-1.6037389,-1.0292653
-13.02619,-2.360129,-1.8814011999999998
-13.02619,-2.360129,-1.8814011999999998
-13.02619,-2.360129,-1.8814011999999998
-13.02619,-2.360129,-1.8814011999999998
-11.618729,-2.8292825,-1.8909756999999998
-11.618729,-2.8292825,-1.8909756999999998
-11.618729,-2.8292825,-1.8909756999999998
-11.618729,-2.8292825,-1.8909756999999998
-7.329325999999999,-2.6569404999999997,-1.3069274
-7.329325999999999,-2.6569404999999997,-1.3069274
-7.329325999999999,-2.6569404999999997,-1.3069274
-7.329325999999999,-2.6569404999999997,-1.3069274
-11.877241999999999,-1.5845897,-3.4612036
-11.877241999999999,-1.5845897,-3.4612036
-11.877241999999999,-1.5845897,-3.4612036
-11.877241999999999,-1.5845897,-3.4612036
-8.717637,-0.90479594,-2.0441686999999997
-8.717637,-0.90479594,-2.0441686999999997
-8.717637,-0.90479594,-2.0441686999999997
-8.717637,-0.90479594,-2.0441686999999997
-6.170804,-1.1633091,-1.4888442
-6.170804,-1.1633091,-1.4888442
-6.170804,-1.1633091,-1.4888442
-6.170804,-1.1633091,-1.4888442
-5.5963306,-1.2399056,-1.3356511999999998
-5.5963306,-1.2399056,-1.3356511999999998
-5.5963306,-1.2399056,-1.3356511999999998
-5.5963306,-1.2399056,-1.3356511999999998
-6.218677,-0.9526688,-0.512239
-6.218677,-0.9526688,-0.512239
-6.218677,-0.9526688,-0.512239
-6.218677,-0.9526688,-0.512239
-7.6452865999999995,-1.3165021000000001,-0.6558574
-7.6452865999999995,-1.3165021000000001,-0.6558574
-7.6452865999999995,-1.3165021000000001,-0.6558574
-7.6452865999999995,-1.3165021000000001,-0.6558574
-4.954835,-2.8388572,0.5218136
-4.954835,-2.8388572,0.5218136
-4.954835,-2.8388572,0.5218136
-4.954835,-2.8388572,0.5218136
-10.326163000000001,-4.0739756,-0.42606795
-10.326163000000001,-4.0739756,-0.42606795
-10.326163000000001,-4.0739756,-0.42606795
-10.326163000000001,-4.0739756,-0.42606795
-14.43365,-6.1899533,-0.110107444
-14.43365,-6.1899533,-0.110107444
-14.43365,-6.1899533,-0.110107444
-14.43365,-6.1899533,-0.110107444
-14.299605999999999,-3.5473747,-0.03351096
-14.299605999999999,-3.5473747,-0.03351096
-14.299605999999999,-3.5473747,-0.03351096
-14.299605999999999,-3.5473747,-0.03351096
-5.146326,-2.752686,1.0196906
-5.146326,-2.752686,1.0196906
-5.146326,-2.752686,1.0196906
-5.146326,-2.752686,1.0196906
1.9579976000000003,-0.54096264,1.2782038
1.9579976000000003,-0.54096264,1.2782038
1.9579976000000003,-0.54096264,1.2782038
1.9579976000000003,-0.54096264,1.2782038
1.9579976000000003,-0.54096264,1.2782038
-2.905879,-1.8143792,-0.4164934
-2.905879,-1.8143792,-0.4164934
-2.905879,-1.8143792,-0.4164934
-19.508167,-2.8101335,-2.0250196
-19.508167,-2.8101335,-2.0250196
-19.508167,-2.8101335,-2.0250196
-19.508167,-2.8101335,-2.0250196
-16.023027,-2.5516202,-1.1154363
-16.023027,-2.5516202,-1.1154363
-16.023027,-2.5516202,-1.1154363
-16.023027,-2.5516202,-1.1154363
-16.023027,-2.5516202,-1.1154363
-7.731457700000001,-2.4750240000000003,-0.0718092
-7.731457700000001,-2.4750240000000003,-0.0718092
-7.731457700000001,-2.4750240000000003,-0.0718092
0.16755481,-1.9771467,1.1824582000000001
0.16755481,-1.9771467,1.1824582000000001
0.16755481,-1.9771467,1.1824582000000001
0.16755481,-1.9771467,1.1824582000000001
0.16755481,-1.9771467,1.1824582000000001
-9.732541000000001,-3.4037561000000003,-1.7473572
-9.732541000000001,-3.4037561000000003,-1.7473572
-9.732541000000001,-3.4037561000000003,-1.7473572
-9.732541000000001,-3.4037561000000003,-1.7473572
-15.927280999999999,-3.844186,-1.6803354
-15.927280999999999,-3.844186,-1.6803354
-15.927280999999999,-3.844186,-1.6803354
-15.927280999999999,-3.844186,-1.6803354
-11.676176,-1.9867213,0.10053288
-11.676176,-1.9867213,0.10053288
-11.676176,-1.9867213,0.10053288
-11.676176,-1.9867213,0.10053288
-3.231414,-1.0867126,0.71330476
-3.231414,-1.0867126,0.71330476
-3.231414,-1.0867126,0.71330476
-3.231414,-1.0867126,0.71330476
-6.1229315,-2.7622607000000006,-0.5313880999999999
-6.1229315,-2.7622607000000006,-0.5313880999999999
-6.1229315,-2.7622607000000006,-0.5313880999999999
-6.1229315,-2.7622607000000006,-0.5313880999999999
-17.593254,-1.4888442,-2.6856642
-17.593254,-1.4888442,-2.6856642
-17.593254,-1.4888442,-2.6856642
-17.593254,-1.4888442,-2.6856642
-10.938935,-1.383524,-0.8473485999999999
-10.938935,-1.383524,-0.8473485999999999
-10.938935,-1.383524,-0.8473485999999999
-10.938935,-1.383524,-0.8473485999999999
-5.778247400000001,-2.1399142999999996,-0.2441513
-5.778247400000001,-2.1399142999999996,-0.2441513
-5.778247400000001,-2.1399142999999996,-0.2441513
-5.778247400000001,-2.1399142999999996,-0.2441513
-0.34947145,-0.9718179,0.6271336999999999
-0.34947145,-0.9718179,0.6271336999999999
-0.34947145,-0.9718179,0.6271336999999999
-0.34947145,-0.9718179,0.6271336999999999
-12.537887,-2.647366,-2.4175766
-12.537887,-2.647366,-2.4175766
-12.537887,-2.647366,-2.4175766
-12.537887,-2.647366,-2.4175766
-15.190041,-3.3463089999999998,-1.3930986
-15.190041,-3.3463089999999998,-1.3930986
-15.190041,-3.3463089999999998,-1.3930986
-15.190041,-3.3463089999999998,-1.3930986
-11.274045,-2.6377914000000002,-0.043085523
-11.274045,-2.6377914000000002,-0.043085523
-11.274045,-2.6377914000000002,-0.043085523
-11.274045,-2.6377914000000002,-0.043085523
-3.6622693999999996,-1.4122477,0.32074776
-3.6622693999999996,-1.4122477,0.32074776
-3.6622693999999996,-1.4122477,0.32074776
-3.6622693999999996,-1.4122477,0.32074776
-3.059072,-2.1303396,0.23457673
-3.059072,-2.1303396,0.23457673
-3.059072,-2.1303396,0.23457673
-3.059072,-2.1303396,0.23457673
-19.048588,-2.4367256,-3.0973704
-19.048588,-2.4367256,-3.0973704
-19.048588,-2.4367256,-3.0973704
-19.048588,-2.4367256,-3.0973704
-12.700654,-2.321831,-0.54096264
-12.700654,-2.321831,-0.54096264
-12.700654,-2.321831,-0.54096264
-12.700654,-2.321831,-0.54096264
-3.1643922000000004,-2.1973617,1.7473572
-3.1643922000000004,-2.1973617,1.7473572
-3.1643922000000004,-2.1973617,1.7473572
-3.1643922000000004,-2.1973617,1.7473572
1.5271424,-1.6994845,1.1345854
1.5271424,-1.6994845,1.1345854
1.5271424,-1.6994845,1.1345854
1.5271424,-1.6994845,1.1345854
-18.311346,-1.8526775000000002,-5.2133484
-18.311346,-1.8526775000000002,-5.2133484
-18.311346,-1.8526775000000002,-5.2133484
-18.311346,-1.8526775000000002,-5.2133484
-13.658110999999998,-3.8154623999999995,1.3165021000000001
-13.658110999999998,-3.8154623999999995,1.3165021000000001
-13.658110999999998,-3.8154623999999995,1.3165021000000001
-13.658110999999998,-3.8154623999999995,1.3165021000000001
-4.3324885,-1.9771467,1.6707608
-4.3324885,-1.9771467,1.6707608
-4.3324885,-1.9771467,1.6707608
-4.3324885,-1.9771467,1.6707608
-0.5792609000000001,-1.1154363,-0.6558574
-0.5792609000000001,-1.1154363,-0.6558574
-0.5792609000000001,-1.1154363,-0.6558574
-0.5792609000000001,-1.1154363,-0.6558574
-17.37304,-1.2111819,-3.2888615
-17.37304,-1.2111819,-3.2888615
-17.37304,-1.2111819,-3.2888615
-17.37304,-1.2111819,-3.2888615
-14.376203,-2.1973617,0.22500217
-14.376203,-2.1973617,0.22500217
-14.376203,-2.1973617,0.22500217
-14.376203,-2.1973617,0.22500217
-5.835694999999999,-1.6516117,0.34947145
-5.835694999999999,-1.6516117,0.34947145
-5.835694999999999,-1.6516117,0.34947145
-5.835694999999999,-1.6516117,0.34947145
-0.50266445,-1.862252,0.3877697
-0.50266445,-1.862252,0.3877697
-0.50266445,-1.862252,0.3877697
-0.50266445,-1.862252,0.3877697
-13.485767999999998,-2.4367256,-3.2409887000000004
-13.485767999999998,-2.4367256,-3.2409887000000004
-13.485767999999998,-2.4367256,-3.2409887000000004
-13.485767999999998,-2.4367256,-3.2409887000000004
-16.243242000000002,-4.4952559999999995,0.014361841
-16.243242000000002,-4.4952559999999995,0.014361841
-16.243242000000002,-4.4952559999999995,0.014361841
-16.243242000000002,-4.4952559999999995,0.014361841
-10.680422,-2.1590632999999997,1.2590546999999999
-10.680422,-2.1590632999999997,1.2590546999999999
-10.680422,-2.1590632999999997,1.2590546999999999
-10.680422,-2.1590632999999997,1.2590546999999999
-10.680422,-2.1590632999999997,1.2590546999999999
-1.7282081999999999,-2.0250196,0.83777404
-1.7282081999999999,-2.0250196,0.83777404
-1.7282081999999999,-2.0250196,0.83777404
-4.3707867,-2.9920502,-0.27287498
-4.3707867,-2.9920502,-0.27287498
-4.3707867,-2.9920502,-0.27287498
-4.3707867,-2.9920502,-0.27287498
-18.349646,-2.9920502,-2.3314054
-18.349646,-2.9920502,-2.3314054
-18.349646,-2.9920502,-2.3314054
-18.349646,-2.9920502,-2.3314054
-18.349646,-2.9920502,-2.3314054
-9.713391,-1.9962958,-0.91437054
-9.713391,-1.9962958,-0.91437054
-9.713391,-1.9962958,-0.91437054
-8.401677000000001,-2.6090677,-1.9675721999999998
-8.401677000000001,-2.6090677,-1.9675721999999998
-8.401677000000001,-2.6090677,-1.9675721999999998
-8.401677000000001,-2.6090677,-1.9675721999999998
-8.401677000000001,-2.6090677,-1.9675721999999998
-7.0133657000000005,-2.6856642,-1.9005502
-7.0133657000000005,-2.6856642,-1.9005502
-7.0133657000000005,-2.6856642,-1.9005502
-13.217680999999999,-3.2984362000000003,-3.1835412999999995
-13.217680999999999,-3.2984362000000003,-3.1835412999999995
-13.217680999999999,-3.2984362000000003,-3.1835412999999995
-13.217680999999999,-3.2984362000000003,-3.1835412999999995
-13.217680999999999,-3.2984362000000003,-3.1835412999999995
-15.534723999999999,-3.4612036,-2.3888528
-15.534723999999999,-3.4612036,-2.3888528
-15.534723999999999,-3.4612036,-2.3888528
-15.534723999999999,-3.4612036,-2.3888528
-9.96233,-1.1728836,-2.6856642
-9.96233,-1.1728836,-2.6856642
-9.96233,-1.1728836,-2.6856642
-7.741032000000001,-0.50266445,-1.5462915000000002
-7.741032000000001,-0.50266445,-1.5462915000000002
-7.741032000000001,-0.50266445,-1.5462915000000002
-7.741032000000001,-0.50266445,-1.5462915000000002
-7.741032000000001,-0.50266445,-1.5462915000000002
-6.151655,-2.2931072999999995,-1.4601203999999999
-6.151655,-2.2931072999999995,-1.4601203999999999
-6.151655,-2.2931072999999995,-1.4601203999999999
-6.151655,-2.2931072999999995,-1.4601203999999999
-8.621891999999999,-1.8239537000000001,-1.6228879999999999
-8.621891999999999,-1.8239537000000001,-1.6228879999999999
-8.621891999999999,-1.8239537000000001,-1.6228879999999999
-8.621891999999999,-1.8239537000000001,-1.6228879999999999
-9.770839,-1.862252,-1.7186337
-9.770839,-1.862252,-1.7186337
-9.770839,-1.862252,-1.7186337
-9.770839,-1.862252,-1.7186337
-10.575102000000001,-1.9867213,-2.1877869999999997
-10.575102000000001,-1.9867213,-2.1877869999999997
-10.575102000000001,-1.9867213,-2.1877869999999997
-10.575102000000001,-1.9867213,-2.1877869999999997
-10.766592999999999,-2.9154537,-2.905879
-10.766592999999999,-2.9154537,-2.905879
-10.766592999999999,-2.9154537,-2.905879
-10.766592999999999,-2.9154537,-2.905879
-12.643207,-2.1399142999999996,-4.2271686
-12.643207,-2.1399142999999996,-4.2271686
-12.643207,-2.1399142999999996,-4.2271686
-12.643207,-2.1399142999999996,-4.2271686
-8.392102000000001,-2.3026817000000004,-2.3122563
-8.392102000000001,-2.3026817000000004,-2.3122563
-8.392102000000001,-2.3026817000000004,-2.3122563
-8.392102000000001,-2.3026817000000004,-2.3122563
-6.323997,-1.8526775000000002,-2.2931072999999995
-6.323997,-1.8526775000000002,-2.2931072999999995
-6.323997,-1.8526775000000002,-2.2931072999999995
-6.323997,-1.8526775000000002,-2.2931072999999995
-7.7601814,-1.5462915000000002,-2.1973617
-7.7601814,-1.5462915000000002,-2.1973617
-7.7601814,-1.5462915000000002,-2.1973617
-7.7601814,-1.5462915000000002,-2.1973617
-10.709146,-1.3452256999999999,-2.647366
-10.709146,-1.3452256999999999,-2.647366
-10.709146,-1.3452256999999999,-2.647366
-10.709146,-1.3452256999999999,-2.647366
-10.900637,-1.1058618,-2.254809
-10.900637,-1.1058618,-2.254809
-10.900637,-1.1058618,-2.254809
-10.900637,-1.1058618,-2.254809
-11.417664,-0.69415563,-1.776081
-11.417664,-0.69415563,-1.776081
-11.417664,-0.69415563,-1.776081
-11.417664,-0.69415563,-1.776081
-9.043172,-0.76117754,-0.76117754
-9.043172,-0.76117754,-0.76117754
-9.043172,-0.76117754,-0.76117754
-9.043172,-0.76117754,-0.76117754
-7.5399666,-1.9005502,-0.2441513
-7.5399666,-1.9005502,-0.2441513
-7.5399666,-1.9005502,-0.2441513
-7.5399666,-1.9005502,-0.2441513
-11.350641,-1.8143792,-0.9622433000000001
-11.350641,-1.8143792,-0.9622433000000001
-11.350641,-1.8143792,-0.9622433000000001
-11.350641,-1.8143792,-0.9622433000000001
-7.032514599999999,-1.9579976000000003,0.09095833
-7.032514599999999,-1.9579976000000003,0.09095833
-7.032514599999999,-1.9579976000000003,0.09095833
-7.032514599999999,-1.9579976000000003,0.09095833
-6.47719,-1.2303311000000001,-0.30159867
-6.47719,-1.2303311000000001,-0.30159867
-6.47719,-1.2303311000000001,-0.30159867
-6.47719,-1.2303311000000001,-0.30159867
-5.806971,-1.2686293,0.11968201
-5.806971,-1.2686293,0.11968201
-5.806971,-1.2686293,0.11968201
-5.806971,-1.2686293,0.11968201
-8.305931,-1.4601203999999999,-1.0196906
-8.305931,-1.4601203999999999,-1.0196906
-8.305931,-1.4601203999999999,-1.0196906
-8.305931,-1.4601203999999999,-1.0196906
-7.2048570000000005,-1.8526775000000002,-0.8090504
-7.2048570000000005,-1.8526775000000002,-0.8090504
-7.2048570000000005,-1.8526775000000002,-0.8090504
-7.2048570000000005,-1.8526775000000002,-0.8090504
-1.709059,-2.0250196,0.09095833
-1.709059,-2.0250196,0.09095833
-1.709059,-2.0250196,0.09095833
-1.709059,-2.0250196,0.09095833
-16.702820000000003,-1.4888442,-3.7197167999999996
-16.702820000000003,-1.4888442,-3.7197167999999996
-16.702820000000003,-1.4888442,-3.7197167999999996
-16.702820000000003,-1.4888442,-3.7197167999999996
-15.869833999999999,-2.9920502,-2.1207652
-15.869833999999999,-2.9920502,-2.1207652
-15.869833999999999,-2.9920502,-2.1207652
-15.869833999999999,-2.9920502,-2.1207652
-11.140001,-2.3122563,-1.0579889
-11.140001,-2.3122563,-1.0579889
-11.140001,-2.3122563,-1.0579889
-11.140001,-2.3122563,-1.0579889
-3.1739669999999998,-2.6760897999999997,0.91437054
-3.1739669999999998,-2.6760897999999997,0.91437054
-3.1739669999999998,-2.6760897999999997,0.91437054
-3.1739669999999998,-2.6760897999999997,0.91437054
-0.76117754,-1.6611862000000002,0.50266445
-0.76117754,-1.6611862000000002,0.50266445
-0.76117754,-1.6611862000000002,0.50266445
-0.76117754,-1.6611862000000002,0.50266445
-17.018782,-3.5473747,-3.2601378
-17.018782,-3.5473747,-3.2601378
-17.018782,-3.5473747,-3.2601378
-17.018782,-3.5473747,-3.2601378
-13.533641000000001,-4.150572,0.7324539000000001
-13.533641000000001,-4.150572,0.7324539000000001
-13.533641000000001,-4.150572,0.7324539000000001
-13.533641000000001,-4.150572,0.7324539000000001
-8.00912,-2.561195,0.56011176
-8.00912,-2.561195,0.56011176
-8.00912,-2.561195,0.56011176
-8.00912,-2.561195,0.56011176
-0.46436617,-2.1207652,0.30159867
-0.46436617,-2.1207652,0.30159867
-0.46436617,-2.1207652,0.30159867
-0.46436617,-2.1207652,0.30159867
-6.5537868,-1.7282081999999999,-0.61755913
-6.5537868,-1.7282081999999999,-0.61755913
-6.5537868,-1.7282081999999999,-0.61755913
-6.5537868,-1.7282081999999999,-0.61755913
-17.507084,-1.9867213,-2.015445
-17.507084,-1.9867213,-2.015445
-17.507084,-1.9867213,-2.015445
-17.507084,-1.9867213,-2.015445
-11.972988,-1.1537346000000002,-1.0579889
-11.972988,-1.1537346000000002,-1.0579889
-11.972988,-1.1537346000000002,-1.0579889
-11.972988,-1.1537346000000002,-1.0579889
-7.0612383,-3.2409887000000004,-0.26330042
-7.0612383,-3.2409887000000004,-0.26330042
-7.0612383,-3.2409887000000004,-0.26330042
-7.0612383,-3.2409887000000004,-0.26330042
5.299519,-1.8048046999999998,2.4367256
5.299519,-1.8048046999999998,2.4367256
5.299519,-1.8048046999999998,2.4367256
5.299519,-1.8048046999999998,2.4367256
-10.450633,-0.5792609000000001,-5.031431700000001
-10.450633,-0.5792609000000001,-5.031431700000001
-10.450633,-0.5792609000000001,-5.031431700000001
-10.450633,-0.5792609000000001,-5.031431700000001
-18.215601,-4.96441,-1.1920328000000002
-18.215601,-4.96441,-1.1920328000000002
-18.215601,-4.96441,-1.1920328000000002
-18.215601,-4.96441,-1.1920328000000002
-13.0549135,-2.6377914000000002,0.56011176
-13.0549135,-2.6377914000000002,0.56011176
-13.0549135,-2.6377914000000002,0.56011176
-13.0549135,-2.6377914000000002,0.56011176
-5.8548436,-2.733537,-1.2303311000000001
-5.8548436,-2.733537,-1.2303311000000001
-5.8548436,-2.733537,-1.2303311000000001
-5.8548436,-2.733537,-1.2303311000000001
0.28244954,-1.4792696,1.2973529
0.28244954,-1.4792696,1.2973529
0.28244954,-1.4792696,1.2973529
0.28244954,-1.4792696,1.2973529
-12.997466000000001,-2.494173,-1.4601203999999999
-12.997466000000001,-2.494173,-1.4601203999999999
-12.997466000000001,-2.494173,-1.4601203999999999
-12.997466000000001,-2.494173,-1.4601203999999999
-12.997466000000001,-2.494173,-1.4601203999999999
-14.012369,-1.2590546999999999,-1.9771467
-14.012369,-1.2590546999999999,-1.9771467
-14.012369,-1.2590546999999999,-1.9771467
-10.469782,-1.5845897,-1.709059
-10.469782,-1.5845897,-1.709059
-10.469782,-1.5845897,-1.709059
-10.469782,-1.5845897,-1.709059
-8.095291,-2.408002,-1.2207563999999997
-8.095291,-2.408002,-1.2207563999999997
-8.095291,-2.408002,-1.2207563999999997
-8.095291,-2.408002,-1.2207563999999997
-2.015445,-2.034594,-0.25372586
-2.015445,-2.034594,-0.25372586
-2.015445,-2.034594,-0.25372586
-2.015445,-2.034594,-0.25372586
-6.4197426,-1.6707608,-1.8431028999999999
-6.4197426,-1.6707608,-1.8431028999999999
-6.4197426,-1.6707608,-1.8431028999999999
-6.4197426,-1.6707608,-1.8431028999999999
-18.617732999999998,-2.408002,-2.647366
-18.617732999999998,-2.408002,-2.647366
-18.617732999999998,-2.408002,-2.647366
-18.617732999999998,-2.408002,-2.647366
-11.771922,-2.4558747000000003,0.665432
-11.771922,-2.4558747000000003,0.665432
-11.771922,-2.4558747000000003,0.665432
-11.771922,-2.4558747000000003,0.665432
-8.401677000000001,-2.2069361,-0.2920241
-8.401677000000001,-2.2069361,-0.2920241
-8.401677000000001,-2.2069361,-0.2920241
-8.401677000000001,-2.2069361,-0.2920241
0.2920241,-2.8580062,2.0920415
0.2920241,-2.8580062,2.0920415
0.2920241,-2.8580062,2.0920415
0.2920241,-2.8580062,2.0920415
-8.583592999999999,-3.6814184,-1.5750152
-8.583592999999999,-3.6814184,-1.5750152
-8.583592999999999,-3.6814184,-1.5750152
-8.583592999999999,-3.6814184,-1.5750152
-8.583592999999999,-3.6814184,-1.5750152
-18.560285999999998,-1.2877783999999999,-2.8197080000000003
-18.560285999999998,-1.2877783999999999,-2.8197080000000003
-18.560285999999998,-1.2877783999999999,-2.8197080000000003
-11.302769,-1.6037389,-1.2399056
-11.302769,-1.6037389,-1.2399056
-11.302769,-1.6037389,-1.2399056
-11.302769,-1.6037389,-1.2399056
-11.302769,-1.6037389,-1.2399056
-3.6526947,-2.7239625,0.37819514
-3.6526947,-2.7239625,0.37819514
-3.6526947,-2.7239625,0.37819514
-3.6526947,-2.7239625,0.37819514
1.2303311000000001,-1.3452256999999999,0.43564250000000004
1.2303311000000001,-1.3452256999999999,0.43564250000000004
1.2303311000000001,-1.3452256999999999,0.43564250000000004
-15.726215,-1.8143792,-3.7675896
-15.726215,-1.8143792,-3.7675896
-15.726215,-1.8143792,-3.7675896
-15.726215,-1.8143792,-3.7675896
-14.385777,-4.7537694,0.77075213
-14.385777,-4.7537694,0.77075213
-14.385777,-4.7537694,0.77075213
-14.385777,-4.7537694,0.77075213
-12.710229,-2.800559,0.8090504
-12.710229,-2.800559,0.8090504
-12.710229,-2.800559,0.8090504
-12.710229,-2.800559,0.8090504
-3.4612036,-2.427151,0.062234644000000006
-3.4612036,-2.427151,0.062234644000000006
-3.4612036,-2.427151,0.062234644000000006
-3.4612036,-2.427151,0.062234644000000006
0.359046,-2.034594,1.7665064
0.359046,-2.034594,1.7665064
0.359046,-2.034594,1.7665064
0.359046,-2.034594,1.7665064
-16.750694,-2.3026817000000004,-2.0537431
-16.750694,-2.3026817000000004,-2.0537431
-16.750694,-2.3026817000000004,-2.0537431
-16.750694,-2.3026817000000004,-2.0537431
-12.56661,-2.1207652,-0.59841
-12.56661,-2.1207652,-0.59841
-12.56661,-2.1207652,-0.59841
-10.536804,-2.2931072999999995,-1.3260766000000002
-10.536804,-2.2931072999999995,-1.3260766000000002
-10.536804,-2.2931072999999995,-1.3260766000000002
-10.536804,-2.2931072999999995,-1.3260766000000002
-10.536804,-2.2931072999999995,-1.3260766000000002
-3.4324798999999997,-2.7718353,0.45479164
-3.4324798999999997,-2.7718353,0.45479164
-3.4324798999999997,-2.7718353,0.45479164
-7.3389006,-2.3792782000000003,-1.6228879999999999
-7.3389006,-2.3792782000000003,-1.6228879999999999
-7.3389006,-2.3792782000000003,-1.6228879999999999
-7.3389006,-2.3792782000000003,-1.6228879999999999
-18.158154,-3.0494976,-3.9399316
-18.158154,-3.0494976,-3.9399316
-18.158154,-3.0494976,-3.9399316
-18.158154,-3.0494976,-3.9399316
-12.183628,-3.5090763999999997,0.8664976999999999
-12.183628,-3.5090763999999997,0.8664976999999999
-12.183628,-3.5090763999999997,0.8664976999999999
-12.183628,-3.5090763999999997,0.8664976999999999
-8.966576,-1.5079931999999998,-0.99096704
-8.966576,-1.5079931999999998,-0.99096704
-8.966576,-1.5079931999999998,-0.99096704
-8.966576,-1.5079931999999998,-0.99096704
-4.658024,-1.709059,0.2154276
-4.658024,-1.709059,0.2154276
-4.658024,-1.709059,0.2154276
-4.658024,-1.709059,0.2154276
-2.1590632999999997,-2.6377914000000002,0.22500217
-2.1590632999999997,-2.6377914000000002,0.22500217
-2.1590632999999997,-2.6377914000000002,0.22500217
-5.5963306,-3.2601378,0.665432
-5.5963306,-3.2601378,0.665432
-5.5963306,-3.2601378,0.665432
-5.5963306,-3.2601378,0.665432
-13.811303,-2.4750240000000003,-2.9920502
-13.811303,-2.4750240000000003,-2.9920502
-13.811303,-2.4750240000000003,-2.9920502
-13.811303,-2.4750240000000003,-2.9920502
-19.230504999999997,-2.0728923999999997,-5.242071599999999
-19.230504999999997,-2.0728923999999997,-5.242071599999999
-19.230504999999997,-2.0728923999999997,-5.242071599999999
-19.230504999999997,-2.0728923999999997,-5.242071599999999
-15.352808,-2.2739582,-2.867581
-15.352808,-2.2739582,-2.867581
-15.352808,-2.2739582,-2.867581
-15.352808,-2.2739582,-2.867581
-8.55487,-3.5378,-1.7569318999999999
-8.55487,-3.5378,-1.7569318999999999
-8.55487,-3.5378,-1.7569318999999999
-8.55487,-3.5378,-1.7569318999999999
-8.55487,-3.5378,-1.7569318999999999
-4.7058964,-2.800559,-1.0579889
-4.7058964,-2.800559,-1.0579889
-4.7058964,-2.800559,-1.0579889
-5.634629,-1.5845897,-1.3739493999999999
-5.634629,-1.5845897,-1.3739493999999999
-5.634629,-1.5845897,-1.3739493999999999
-5.634629,-1.5845897,-1.3739493999999999
-8.861256,-1.0962871,-2.2069361
-8.861256,-1.0962871,-2.2069361
-8.861256,-1.0962871,-2.2069361
-8.861256,-1.0962871,-2.2069361
-13.390023000000001,-1.0771381000000002,-3.3558834
-13.390023000000001,-1.0771381000000002,-3.3558834
-13.390023000000001,-1.0771381000000002,-3.3558834
-13.390023000000001,-1.0771381000000002,-3.3558834
-7.4729443,-2.2069361,-1.1824582000000001
-7.4729443,-2.2069361,-1.1824582000000001
-7.4729443,-2.2069361,-1.1824582000000001
-7.4729443,-2.2069361,-1.1824582000000001
-11.542132,-1.1058618,-2.3888528
-11.542132,-1.1058618,-2.3888528
-11.542132,-1.1058618,-2.3888528
-11.542132,-1.1058618,-2.3888528
-10.096374,-0.83777404,-2.4558747000000003
-10.096374,-0.83777404,-2.4558747000000003
-10.096374,-0.83777404,-2.4558747000000003
-10.096374,-0.83777404,-2.4558747000000003
-7.7793303,-1.1728836,-0.8186249
-7.7793303,-1.1728836,-0.8186249
-7.7793303,-1.1728836,-0.8186249
-7.7793303,-1.1728836,-0.8186249
-8.23891,-1.5845897,-0.59841
-8.23891,-1.5845897,-0.59841
-8.23891,-1.5845897,-0.59841
-8.23891,-1.5845897,-0.59841
-8.2676325,-1.5845897,0.16755481
-8.2676325,-1.5845897,0.16755481
-8.2676325,-1.5845897,0.16755481
-8.2676325,-1.5845897,0.16755481
-10.125097,-1.0196906,-0.9526688
-10.125097,-1.0196906,-0.9526688
-10.125097,-1.0196906,-0.9526688
-10.125097,-1.0196906,-0.9526688
-10.584677000000001,-1.9005502,-1.3356511999999998
-10.584677000000001,-1.9005502,-1.3356511999999998
-10.584677000000001,-1.9005502,-1.3356511999999998
-10.584677000000001,-1.9005502,-1.3356511999999998
-11.819795,-2.034594,-1.9867213
-11.819795,-2.034594,-1.9867213
-11.819795,-2.034594,-1.9867213
-11.819795,-2.034594,-1.9867213
-8.803808,-1.0962871,-2.7622607000000006
-8.803808,-1.0962871,-2.7622607000000006
-8.803808,-1.0962871,-2.7622607000000006
-8.803808,-1.0962871,-2.7622607000000006
-11.254896,-0.5888355,-4.322914
-11.254896,-0.5888355,-4.322914
-11.254896,-0.5888355,-4.322914
-11.254896,-0.5888355,-4.322914
-6.975067,-0.13883112,-1.9005502
-6.975067,-0.13883112,-1.9005502
-6.975067,-0.13883112,-1.9005502
-6.975067,-0.13883112,-1.9005502
-5.653778,-0.50266445,-1.7377827000000001
-5.653778,-0.50266445,-1.7377827000000001
-5.653778,-0.50266445,-1.7377827000000001
-5.653778,-0.50266445,-1.7377827000000001
-5.9027166,-0.70373017,-1.2590546999999999
-5.9027166,-0.70373017,-1.2590546999999999
-5.9027166,-0.70373017,-1.2590546999999999
-5.9027166,-0.70373017,-1.2590546999999999
-7.0133657000000005,-1.0579889,-1.0771381000000002
-7.0133657000000005,-1.0579889,-1.0771381000000002
-7.0133657000000005,-1.0579889,-1.0771381000000002
-7.0133657000000005,-1.0579889,-1.0771381000000002
-7.6069884000000005,-1.5845897,-1.5654407
-7.6069884000000005,-1.5845897,-1.5654407
-7.6069884000000005,-1.5845897,-1.5654407
-7.6069884000000005,-1.5845897,-1.5654407
-7.051664,-2.7048132000000003,-0.6558574
-7.051664,-2.7048132000000003,-0.6558574
-7.051664,-2.7048132000000003,-0.6558574
-7.051664,-2.7048132000000003,-0.6558574
-15.707067000000002,-3.6239712,-1.8718264999999998
-15.707067000000002,-3.6239712,-1.8718264999999998
-15.707067000000002,-3.6239712,-1.8718264999999998
-15.707067000000002,-3.6239712,-1.8718264999999998
-14.395351000000002,-2.7239625,-0.3398969
-14.395351000000002,-2.7239625,-0.3398969
-14.395351000000002,-2.7239625,-0.3398969
-14.395351000000002,-2.7239625,-0.3398969
-9.665519,-1.3069274,0.20585304
-9.665519,-1.3069274,0.20585304
-9.665519,-1.3069274,0.20585304
-9.665519,-1.3069274,0.20585304
-3.2697124,-1.0579889,1.3069274
-3.2697124,-1.0579889,1.3069274
-3.2697124,-1.0579889,1.3069274
-3.2697124,-1.0579889,1.3069274
-1.0196906,-1.5079931999999998,1.0771381000000002
-1.0196906,-1.5079931999999998,1.0771381000000002
-1.0196906,-1.5079931999999998,1.0771381000000002
-1.0196906,-1.5079931999999998,1.0771381000000002
-15.142167,-1.862252,-2.101616
-15.142167,-1.862252,-2.101616
-15.142167,-1.862252,-2.101616
-15.142167,-1.862252,-2.101616
-14.567694,-1.469695,-1.709059
-14.567694,-1.469695,-1.709059
-14.567694,-1.469695,-1.709059
-14.567694,-1.469695,-1.709059
-8.918703,-2.0441686999999997,-1.0771381000000002
-8.918703,-2.0441686999999997,-1.0771381000000002
-8.918703,-2.0441686999999997,-1.0771381000000002
-8.918703,-2.0441686999999997,-1.0771381000000002
-0.5792609000000001,-1.9675721999999998,0.43564250000000004
-0.5792609000000001,-1.9675721999999998,0.43564250000000004
-0.5792609000000001,-1.9675721999999998,0.43564250000000004
-0.5792609000000001,-1.9675721999999998,0.43564250000000004
-7.664436,-2.4558747000000003,-1.0005416
-7.664436,-2.4558747000000003,-1.0005416
-7.664436,-2.4558747000000003,-1.0005416
-7.664436,-2.4558747000000003,-1.0005416
-18.981565,-3.3750327000000007,-2.9154537
-18.981565,-3.3750327000000007,-2.9154537
-18.981565,-3.3750327000000007,-2.9154537
-18.981565,-3.3750327000000007,-2.9154537
-13.217680999999999,-3.4612036,0.85692316
-13.217680999999999,-3.4612036,0.85692316
-13.217680999999999,-3.4612036,0.85692316
-13.217680999999999,-3.4612036,0.85692316
-5.289944599999999,-1.5750152,0.6271336999999999
-5.289944599999999,-1.5750152,0.6271336999999999
-5.289944599999999,-1.5750152,0.6271336999999999
-5.289944599999999,-1.5750152,0.6271336999999999
-5.289944599999999,-1.5750152,0.6271336999999999
0.69415563,-2.0537431,0.8186249
0.69415563,-2.0537431,0.8186249
0.69415563,-2.0537431,0.8186249
-16.444307000000002,-2.0920415,-3.777164
-16.444307000000002,-2.0920415,-3.777164
-16.444307000000002,-2.0920415,-3.777164
-16.444307000000002,-2.0920415,-3.777164
-14.031518,-1.2207563999999997,-1.0867126
-14.031518,-1.2207563999999997,-1.0867126
-14.031518,-1.2207563999999997,-1.0867126
-14.031518,-1.2207563999999997,-1.0867126
-8.028269,-1.6133133999999998,-1.1633091
-8.028269,-1.6133133999999998,-1.1633091
-8.028269,-1.6133133999999998,-1.1633091
-8.028269,-1.6133133999999998,-1.1633091
-0.4164934,-1.5462915000000002,0.33032233
-0.4164934,-1.5462915000000002,0.33032233
-0.4164934,-1.5462915000000002,0.33032233
-0.4164934,-1.5462915000000002,0.33032233
-4.9069624,-1.6611862000000002,-0.9526688
-4.9069624,-1.6611862000000002,-0.9526688
-4.9069624,-1.6611862000000002,-0.9526688
-4.9069624,-1.6611862000000002,-0.9526688
-16.712395,-3.212265,-2.7048132000000003
-16.712395,-3.212265,-2.7048132000000003
-16.712395,-3.212265,-2.7048132000000003
-16.712395,-3.212265,-2.7048132000000003
-15.017698000000001,-3.7963133,-0.23457673
-15.017698000000001,-3.7963133,-0.23457673
-15.017698000000001,-3.7963133,-0.23457673
-15.017698000000001,-3.7963133,-0.23457673
-9.818711,-1.3643749,-0.45479164
-9.818711,-1.3643749,-0.45479164
-9.818711,-1.3643749,-0.45479164
-9.818711,-1.3643749,-0.45479164
0.42606795,-0.8952214,0.9430941999999999
0.42606795,-0.8952214,0.9430941999999999
0.42606795,-0.8952214,0.9430941999999999
0.42606795,-0.8952214,0.9430941999999999
0.42606795,-0.8952214,0.9430941999999999
-7.7123084,-2.4845984,-1.1345854
-7.7123084,-2.4845984,-1.1345854
-7.7123084,-2.4845984,-1.1345854
-18.071983,-1.2590546999999999,-2.1590632999999997
-18.071983,-1.2590546999999999,-2.1590632999999997
-18.071983,-1.2590546999999999,-2.1590632999999997
-18.071983,-1.2590546999999999,-2.1590632999999997
-10.699572,-1.5941644,-1.2399056
-10.699572,-1.5941644,-1.2399056
-10.699572,-1.5941644,-1.2399056
-10.699572,-1.5941644,-1.2399056
-10.699572,-1.5941644,-1.2399056
-2.1111906000000005,-2.1399142999999996,0.48351530000000004
-2.1111906000000005,-2.1399142999999996,0.48351530000000004
-2.1111906000000005,-2.1399142999999996,0.48351530000000004
-3.3271596,-1.1537346000000002,-0.3398969
-3.3271596,-1.1537346000000002,-0.3398969
-3.3271596,-1.1537346000000002,-0.3398969
-3.3271596,-1.1537346000000002,-0.3398969
-3.3271596,-1.1537346000000002,-0.3398969
-16.291114999999998,-2.9537517999999996,-3.1165195
-16.291114999999998,-2.9537517999999996,-3.1165195
-16.291114999999998,-2.9537517999999996,-3.1165195
-16.291114999999998,-2.9537517999999996,-3.1165195
-13.840027,-3.604822,0.20585304
-13.840027,-3.604822,0.20585304
-13.840027,-3.604822,0.20585304
-11.609155,-1.4409714,-0.36862057
-11.609155,-1.4409714,-0.36862057
-11.609155,-1.4409714,-0.36862057
-11.609155,-1.4409714,-0.36862057
-3.604822,-1.1728836,0.03351096
-3.604822,-1.1728836,0.03351096
-3.604822,-1.1728836,0.03351096
-3.604822,-1.1728836,0.03351096
-3.604822,-1.1728836,0.03351096
-3.777164,-2.8771553,0.09095833
-3.777164,-2.8771553,0.09095833
-3.777164,-2.8771553,0.09095833
-3.777164,-2.8771553,0.09095833
-17.238997,-0.6079846,-3.0877957
-17.238997,-0.6079846,-3.0877957
-17.238997,-0.6079846,-3.0877957
-10.2016945,-1.2877783999999999,-0.56011176
-10.2016945,-1.2877783999999999,-0.56011176
-10.2016945,-1.2877783999999999,-0.56011176
-10.2016945,-1.2877783999999999,-0.56011176
-10.2016945,-1.2877783999999999,-0.56011176
-7.032514599999999,-2.3026817000000004,-0.43564250000000004
-7.032514599999999,-2.3026817000000004,-0.43564250000000004
-7.032514599999999,-2.3026817000000004,-0.43564250000000004
-7.032514599999999,-2.3026817000000004,-0.43564250000000004
-2.015445,-2.2069361,-0.18670394
-2.015445,-2.2069361,-0.18670394
-2.015445,-2.2069361,-0.18670394
-10.412334,-2.5707695,-1.7473572
-10.412334,-2.5707695,-1.7473572
-10.412334,-2.5707695,-1.7473572
-10.412334,-2.5707695,-1.7473572
-10.412334,-2.5707695,-1.7473572
-15.9177065,-3.1356685,-1.2590546999999999
-15.9177065,-3.1356685,-1.2590546999999999
-15.9177065,-3.1356685,-1.2590546999999999
-15.9177065,-3.1356685,-1.2590546999999999
-11.149575,-1.6611862000000002,0.40691882
-11.149575,-1.6611862000000002,0.40691882
-11.149575,-1.6611862000000002,0.40691882
-11.149575,-1.6611862000000002,0.40691882
-9.5889225,-1.0962871,-1.2973529
-9.5889225,-1.0962871,-1.2973529
-9.5889225,-1.0962871,-1.2973529
-9.5889225,-1.0962871,-1.2973529
-4.303765,-2.3026817000000004,1.1058618
-4.303765,-2.3026817000000004,1.1058618
-4.303765,-2.3026817000000004,1.1058618
-4.303765,-2.3026817000000004,1.1058618
-6.9942164,-1.9388485,-0.39734426
-6.9942164,-1.9388485,-0.39734426
-6.9942164,-1.9388485,-0.39734426
-6.9942164,-1.9388485,-0.39734426
-18.866670000000003,-1.6803354,-3.6526947
-18.866670000000003,-1.6803354,-3.6526947
-18.866670000000003,-1.6803354,-3.6526947
-18.866670000000003,-1.6803354,-3.6526947
-11.025106,-2.360129,-0.8952214
-11.025106,-2.360129,-0.8952214
-11.025106,-2.360129,-0.8952214
-11.025106,-2.360129,-0.8952214
-7.731457700000001,-2.6569404999999997,-1.14416
-7.731457700000001,-2.6569404999999997,-1.14416
-7.731457700000001,-2.6569404999999997,-1.14416
-7.731457700000001,-2.6569404999999997,-1.14416
-2.1111906000000005,-2.427151,-0.3398969
-2.1111906000000005,-2.427151,-0.3398969
-2.1111906000000005,-2.427151,-0.3398969
-2.1111906000000005,-2.427151,-0.3398969
-4.6675982000000005,-2.149489,-0.5792609000000001
-4.6675982000000005,-2.149489,-0.5792609000000001
-4.6675982000000005,-2.149489,-0.5792609000000001
-4.6675982000000005,-2.149489,-0.5792609000000001
-8.976150500000001,-2.8101335,-0.20585304
-8.976150500000001,-2.8101335,-0.20585304
-8.976150500000001,-2.8101335,-0.20585304
-8.976150500000001,-2.8101335,-0.20585304
-15.898558,-2.5994933,-2.4463003
-15.898558,-2.5994933,-2.4463003
-15.898558,-2.5994933,-2.4463003
-15.898558,-2.5994933,-2.4463003
-16.09005,-3.9878044000000004,-0.0718092
-16.09005,-3.9878044000000004,-0.0718092
-16.09005,-3.9878044000000004,-0.0718092
-16.09005,-3.9878044000000004,-0.0718092
-12.595334,-0.7420284,-0.37819514
-12.595334,-0.7420284,-0.37819514
-12.595334,-0.7420284,-0.37819514
-12.595334,-0.7420284,-0.37819514
-5.9697385,-1.1250108,0.3877697
-5.9697385,-1.1250108,0.3877697
-5.9697385,-1.1250108,0.3877697
-5.9697385,-1.1250108,0.3877697
-5.960164,-0.9526688,0.17712937
-5.960164,-0.9526688,0.17712937
-5.960164,-0.9526688,0.17712937
-5.960164,-0.9526688,0.17712937
-9.5889225,-1.3356511999999998,0.023936402000000002
-9.5889225,-1.3356511999999998,0.023936402000000002
-9.5889225,-1.3356511999999998,0.023936402000000002
-9.5889225,-1.3356511999999998,0.023936402000000002
-10.642124,-1.6994845,-0.23457673
-10.642124,-1.6994845,-0.23457673
-10.642124,-1.6994845,-0.23457673
-10.642124,-1.6994845,-0.23457673
-9.138917999999999,-1.1728836,-0.48351530000000004
-9.138917999999999,-1.1728836,-0.48351530000000004
-9.138917999999999,-1.1728836,-0.48351530000000004
-9.138917999999999,-1.1728836,-0.48351530000000004
-9.138917999999999,-1.1728836,-0.48351530000000004
-8.708063000000001,-1.9771467,-0.9430941999999999
-8.708063000000001,-1.9771467,-0.9430941999999999
-8.708063000000001,-1.9771467,-0.9430941999999999
-9.837861,-2.2260852000000004,-1.0484143
-9.837861,-2.2260852000000004,-1.0484143
-9.837861,-2.2260852000000004,-1.0484143
-9.837861,-2.2260852000000004,-1.0484143
-9.253813000000001,-2.3984275,-0.9526688
-9.253813000000001,-2.3984275,-0.9526688
-9.253813000000001,-2.3984275,-0.9526688
-9.253813000000001,-2.3984275,-0.9526688
-9.253813000000001,-2.3984275,-0.9526688
-9.215514,-2.3888528,-0.8952214
-9.215514,-2.3888528,-0.8952214
-9.215514,-2.3888528,-0.8952214
-9.225089,-2.5324712000000003,-0.90479594
-9.225089,-2.5324712000000003,-0.90479594
-9.225089,-2.5324712000000003,-0.90479594
-9.225089,-2.5324712000000003,-0.90479594
-9.110194,-2.4750240000000003,-0.9622433000000001
-9.110194,-2.4750240000000003,-0.9622433000000001
-9.110194,-2.4750240000000003,-0.9622433000000001
-9.110194,-2.4750240000000003,-0.9622433000000001
-9.110194,-2.4750240000000003,-0.9622433000000001
-9.244238000000001,-2.427151,-1.0005416
-9.244238000000001,-2.427151,-1.0005416
-9.244238000000001,-2.427151,-1.0005416
-9.100619,-2.3888528,-0.9526688
-9.100619,-2.3888528,-0.9526688
-9.100619,-2.3888528,-0.9526688
-9.100619,-2.3888528,-0.9526688
-9.158066999999999,-2.3505547000000004,-0.8664976999999999
-9.158066999999999,-2.3505547000000004,-0.8664976999999999
-9.158066999999999,-2.3505547000000004,-0.8664976999999999
-9.158066999999999,-2.3505547000000004,-0.8664976999999999
-9.158066999999999,-2.3505547000000004,-0.8664976999999999
-9.2825365,-2.3792782000000003,-0.8186249
-9.2825365,-2.3792782000000003,-0.8186249
-9.2825365,-2.3792782000000003,-0.8186249
-9.2825365,-2.3792782000000003,-0.8186249
-9.196365,-2.3314054,-0.7994758000000001
-9.196365,-2.3314054,-0.7994758000000001
-9.196365,-2.3314054,-0.7994758000000001
-9.0814705,-2.321831,-0.7994758000000001
-9.0814705,-2.321831,-0.7994758000000001
-9.0814705,-2.321831,-0.7994758000000001
-9.0814705,-2.321831,-0.7994758000000001
-9.0814705,-2.321831,-0.7994758000000001
-9.129342999999999,-2.3122563,-0.83777404
-9.129342999999999,-2.3122563,-0.83777404
-9.129342999999999,-2.3122563,-0.83777404
-9.129342999999999,-2.3122563,-0.83777404
-9.339984,-2.3697037999999995,-0.9622433000000001
-9.339984,-2.3697037999999995,-0.9622433000000001
-9.339984,-2.3697037999999995,-0.9622433000000001
-9.272962,-2.4845984,-1.0292653
-9.272962,-2.4845984,-1.0292653
-9.272962,-2.4845984,-1.0292653
-9.272962,-2.4845984,-1.0292653
-9.272962,-2.4845984,-1.0292653
-9.138917999999999,-2.3505547000000004,-0.90479594
-9.138917999999999,-2.3505547000000004,-0.90479594
-9.138917999999999,-2.3505547000000004,-0.90479594
-9.138917999999999,-2.3505547000000004,-0.90479594
-9.196365,-2.4175766,-1.0101161
-9.196365,-2.4175766,-1.0101161
-9.196365,-2.4175766,-1.0101161
-9.196365,-2.4175766,-1.0101161
-9.119769,-2.408002,-0.9718179
-9.119769,-2.408002,-0.9718179
-9.119769,-2.408002,-0.9718179
-9.119769,-2.408002,-0.9718179
-9.272962,-2.4558747000000003,-1.0962871
-9.272962,-2.4558747000000003,-1.0962871
-9.272962,-2.4558747000000003,-1.0962871
-9.177217,-2.3792782000000003,-0.91437054
-9.177217,-2.3792782000000003,-0.91437054
-9.177217,-2.3792782000000003,-0.91437054
-9.177217,-2.3792782000000003,-0.91437054
-9.215514,-2.4654493,-0.98139244
-9.215514,-2.4654493,-0.98139244
-9.215514,-2.4654493,-0.98139244
-9.215514,-2.4654493,-0.98139244
-9.215514,-2.4654493,-0.98139244
-9.177217,-2.5037475,-1.0005416
-9.177217,-2.5037475,-1.0005416
-9.177217,-2.5037475,-1.0005416
-9.177217,-2.5037475,-1.0005416
-9.167641999999999,-2.4367256,-0.9430941999999999
-9.167641999999999,-2.4367256,-0.9430941999999999
-9.167641999999999,-2.4367256,-0.9430941999999999
-9.177217,-2.4654493,-1.0101161
-9.177217,-2.4654493,-1.0101161
-9.177217,-2.4654493,-1.0101161
-9.177217,-2.4654493,-1.0101161
-9.177217,-2.4654493,-1.0101161
-9.062322,-2.4367256,-1.0101161
-9.062322,-2.4367256,-1.0101161
-9.062322,-2.4367256,-1.0101161
-9.062322,-2.4367256,-1.0101161
-9.18679,-2.4367256,-1.0388398
-9.18679,-2.4367256,-1.0388398
-9.18679,-2.4367256,-1.0388398
-9.119769,-2.5420458,-1.0005416
-9.119769,-2.5420458,-1.0005416
-9.119769,-2.5420458,-1.0005416
-9.119769,-2.5420458,-1.0005416
-9.119769,-2.5420458,-1.0005416
-9.177217,-2.427151,-1.0292653
-9.177217,-2.427151,-1.0292653
-9.177217,-2.427151,-1.0292653
-9.177217,-2.427151,-1.0292653
-9.177217,-2.494173,-0.98139244
-9.177217,-2.494173,-0.98139244
-9.177217,-2.494173,-0.98139244
-9.119769,-2.4750240000000003,-1.0005416
-9.119769,-2.4750240000000003,-1.0005416
-9.119769,-2.4750240000000003,-1.0005416
-9.119769,-2.4750240000000003,-1.0005416
-9.138917999999999,-2.4463003,-0.99096704
-9.138917999999999,-2.4463003,-0.99096704
-9.138917999999999,-2.4463003,-0.99096704
-9.138917999999999,-2.4463003,-0.99096704
-9.138917999999999,-2.4463003,-0.99096704
-9.148492999999998,-2.4558747000000003,-1.0005416
-9.148492999999998,-2.4558747000000003,-1.0005416
-9.148492999999998,-2.4558747000000003,-1.0005416
-9.148492999999998,-2.4558747000000003,-1.0005416
-9.119769,-2.4654493,-1.0484143
-9.119769,-2.4654493,-1.0484143
-9.119769,-2.4654493,-1.0484143
-9.148492999999998,-2.4654493,-1.0867126
-9.148492999999998,-2.4654493,-1.0867126
-9.148492999999998,-2.4654493,-1.0867126
-9.148492999999998,-2.4654493,-1.0867126
-9.148492999999998,-2.4654493,-1.0867126
-9.158066999999999,-2.494173,-1.0101161
-9.158066999999999,-2.494173,-1.0101161
-9.158066999999999,-2.494173,-1.0101161
-9.158066999999999,-2.494173,-1.0101161
-9.167641999999999,-2.5420458,-1.0867126
-9.167641999999999,-2.5420458,-1.0867126
-9.167641999999999,-2.5420458,-1.0867126
-9.196365,-2.5037475,-1.0962871
-9.196365,-2.5037475,-1.0962871
-9.196365,-2.5037475,-1.0962871
-9.196365,-2.5037475,-1.0962871
-9.196365,-2.5037475,-1.0962871
-9.158066999999999,-2.5037475,-1.0675635
-9.158066999999999,-2.5037475,-1.0675635
-9.158066999999999,-2.5037475,-1.0675635
-9.158066999999999,-2.5037475,-1.0675635
-9.158066999999999,-2.4654493,-1.0196906
-9.158066999999999,-2.4654493,-1.0196906
-9.158066999999999,-2.4654493,-1.0196906
-9.158066999999999,-2.4654493,-1.0196906
-9.129342999999999,-2.4845984,-1.0005416
-9.129342999999999,-2.4845984,-1.0005416
-9.129342999999999,-2.4845984,-1.0005416
-9.129342999999999,-2.4845984,-1.0005416
-9.196365,-2.5037475,-1.0484143
-9.196365,-2.5037475,-1.0484143
-9.196365,-2.5037475,-1.0484143
-9.196365,-2.5037475,-1.0484143
-9.196365,-2.513322,-0.98139244
-9.196365,-2.513322,-0.98139244
-9.196365,-2.513322,-0.98139244
-9.196365,-2.513322,-0.98139244
-9.196365,-2.4463003,-1.0005416
-9.196365,-2.4463003,-1.0005416
-9.196365,-2.4463003,-1.0005416
-9.196365,-2.4463003,-1.0005416
-9.148492999999998,-2.4463003,-1.0771381000000002
-9.148492999999998,-2.4463003,-1.0771381000000002
-9.148492999999998,-2.4463003,-1.0771381000000002
-9.148492999999998,-2.4463003,-1.0771381000000002
-9.129342999999999,-2.3984275,-1.0867126
-9.129342999999999,-2.3984275,-1.0867126
-9.129342999999999,-2.3984275,-1.0867126
-9.129342999999999,-2.3984275,-1.0867126
-9.167641999999999,-2.3984275,-1.0962871
-9.167641999999999,-2.3984275,-1.0962871
-9.167641999999999,-2.3984275,-1.0962871
-9.167641999999999,-2.3984275,-1.0962871
-9.148492999999998,-2.3984275,-1.0675635
-9.148492999999998,-2.3984275,-1.0675635
-9.148492999999998,-2.3984275,-1.0675635
-9.148492999999998,-2.3984275,-1.0675635
-9.148492999999998,-2.408002,-1.0388398
-9.148492999999998,-2.408002,-1.0388398
-9.148492999999998,-2.408002,-1.0388398
-9.18679,-2.4463003,-1.0292653
-9.18679,-2.4463003,-1.0292653
-9.18679,-2.4463003,-1.0292653
-9.18679,-2.4463003,-1.0292653
-9.18679,-2.4463003,-1.0292653
-9.167641999999999,-2.3888528,-0.99096704
-9.167641999999999,-2.3888528,-0.99096704
-9.167641999999999,-2.3888528,-0.99096704
-9.225089,-2.427151,-1.0101161
-9.225089,-2.427151,-1.0101161
-9.225089,-2.427151,-1.0101161
-9.225089,-2.427151,-1.0101161
-9.158066999999999,-2.4175766,-1.0292653
-9.158066999999999,-2.4175766,-1.0292653
-9.158066999999999,-2.4175766,-1.0292653
-9.158066999999999,-2.4175766,-1.0292653
-9.215514,-2.4463003,-1.0388398
-9.215514,-2.4463003,-1.0388398
-9.215514,-2.4463003,-1.0388398
-9.215514,-2.4463003,-1.0388398
-9.138917999999999,-2.427151,-1.0101161
-9.138917999999999,-2.427151,-1.0101161
-9.138917999999999,-2.427151,-1.0101161
-9.138917999999999,-2.427151,-1.0101161
-9.177217,-2.4175766,-1.0005416
-9.177217,-2.4175766,-1.0005416
-9.177217,-2.4175766,-1.0005416
-9.177217,-2.4175766,-1.0005416
-9.196365,-2.4558747000000003,-1.0484143
-9.196365,-2.4558747000000003,-1.0484143
-9.196365,-2.4558747000000003,-1.0484143
-9.196365,-2.4558747000000003,-1.0484143
-9.167641999999999,-2.4367256,-0.93351966
-9.167641999999999,-2.4367256,-0.93351966
-9.167641999999999,-2.4367256,-0.93351966
-9.167641999999999,-2.4367256,-0.93351966
-9.20594,-2.4367256,-0.9718179
-9.20594,-2.4367256,-0.9718179
-9.20594,-2.4367256,-0.9718179
-9.20594,-2.4367256,-0.9718179
-9.18679,-2.427151,-1.0388398
-9.18679,-2.427151,-1.0388398
-9.18679,-2.427151,-1.0388398
-9.18679,-2.427151,-1.0388398
-9.177217,-2.4463003,-0.98139244
-9.177217,-2.4463003,-0.98139244
-9.177217,-2.4463003,-0.98139244
-9.177217,-2.4463003,-0.98139244
-9.167641999999999,-2.4558747000000003,-1.0005416
-9.167641999999999,-2.4558747000000003,-1.0005416
-9.167641999999999,-2.4558747000000003,-1.0005416
-9.167641999999999,-2.4558747000000003,-1.0005416
-9.177217,-2.3984275,-0.91437054
-9.177217,-2.3984275,-0.91437054
-9.177217,-2.3984275,-0.91437054
-9.177217,-2.3984275,-0.91437054
-9.20594,-2.427151,-0.93351966
-9.20594,-2.427151,-0.93351966
-9.20594,-2.427151,-0.93351966
-9.20594,-2.427151,-0.93351966
-9.196365,-2.408002,-0.91437054
-9.196365,-2.408002,-0.91437054
-9.196365,-2.408002,-0.91437054
-9.196365,-2.408002,-0.91437054
-9.18679,-2.3888528,-0.83777404
-9.18679,-2.3888528,-0.83777404
-9.18679,-2.3888528,-0.83777404
-9.18679,-2.3888528,-0.83777404
-9.215514,-2.4367256,-0.91437054
-9.215514,-2.4367256,-0.91437054
-9.215514,-2.4367256,-0.91437054
-9.215514,-2.4367256,-0.91437054
-9.138917999999999,-2.4175766,-0.9430941999999999
-9.138917999999999,-2.4175766,-0.9430941999999999
-9.138917999999999,-2.4175766,-0.9430941999999999
-9.138917999999999,-2.4175766,-0.9430941999999999
-9.158066999999999,-2.4463003,-0.9430941999999999
-9.158066999999999,-2.4463003,-0.9430941999999999
-9.158066999999999,-2.4463003,-0.9430941999999999
-9.158066999999999,-2.4463003,-0.9430941999999999
-9.119769,-2.4367256,-0.93351966
-9.119769,-2.4367256,-0.93351966
-9.119769,-2.4367256,-0.93351966
-9.119769,-2.4367256,-0.93351966
-9.158066999999999,-2.4367256,-0.91437054
-9.158066999999999,-2.4367256,-0.91437054
-9.158066999999999,-2.4367256,-0.91437054
-9.158066999999999,-2.4367256,-0.91437054
-9.158066999999999,-2.3888528,-0.92394507
-9.158066999999999,-2.3888528,-0.92394507
-9.158066999999999,-2.3888528,-0.92394507
-9.158066999999999,-2.3888528,-0.92394507
-9.167641999999999,-2.3505547000000004,-0.8090504
-9.167641999999999,-2.3505547000000004,-0.8090504
-9.167641999999999,-2.3505547000000004,-0.8090504
-9.167641999999999,-2.3505547000000004,-0.8090504
-9.244238000000001,-2.4367256,-0.92394507
-9.244238000000001,-2.4367256,-0.92394507
-9.244238000000001,-2.4367256,-0.92394507
-9.244238000000001,-2.4367256,-0.92394507
-9.148492999999998,-2.3505547000000004,-0.8664976999999999
-9.148492999999998,-2.3505547000000004,-0.8664976999999999
-9.148492999999998,-2.3505547000000004,-0.8664976999999999
-9.148492999999998,-2.3505547000000004,-0.8664976999999999
-9.225089,-2.3888528,-0.8952214
-9.225089,-2.3888528,-0.8952214
-9.225089,-2.3888528,-0.8952214
-9.225089,-2.3888528,-0.8952214
-9.167641999999999,-2.360129,-0.91437054
-9.167641999999999,-2.360129,-0.91437054
-9.167641999999999,-2.360129,-0.91437054
-9.167641999999999,-2.360129,-0.91437054
-9.158066999999999,-2.3505547000000004,-0.8856468000000001
-9.158066999999999,-2.3505547000000004,-0.8856468000000001
-9.158066999999999,-2.3505547000000004,-0.8856468000000001
-9.158066999999999,-2.3505547000000004,-0.8856468000000001
-9.253813000000001,-2.3792782000000003,-0.9430941999999999
-9.253813000000001,-2.3792782000000003,-0.9430941999999999
-9.253813000000001,-2.3792782000000003,-0.9430941999999999
-9.253813000000001,-2.3792782000000003,-0.9430941999999999
-9.196365,-2.3792782000000003,-0.8281995000000001
-9.196365,-2.3792782000000003,-0.8281995000000001
-9.196365,-2.3792782000000003,-0.8281995000000001
-9.225089,-2.408002,-0.8473485999999999
-9.225089,-2.408002,-0.8473485999999999
-9.225089,-2.408002,-0.8473485999999999
-9.225089,-2.408002,-0.8473485999999999
-9.196365,-2.494173,-0.8952214
-9.196365,-2.494173,-0.8952214
-9.196365,-2.494173,-0.8952214
-9.196365,-2.494173,-0.8952214
-9.167641999999999,-2.6569404999999997,-0.77075213
-9.167641999999999,-2.6569404999999997,-0.77075213
-9.167641999999999,-2.6569404999999997,-0.77075213
-9.167641999999999,-2.6569404999999997,-0.77075213
-9.359133,-3.5665237999999997,-0.6750065
-9.359133,-3.5665237999999997,-0.6750065
-9.359133,-3.5665237999999997,-0.6750065
-9.359133,-3.5665237999999997,-0.6750065
-9.359133,-3.5665237999999997,-0.6750065
-9.742115,-6.285699,-0.062234644000000006
-9.742115,-6.285699,-0.062234644000000006
-9.742115,-6.285699,-0.062234644000000006
-9.6942425,-8.353804,-0.023936402000000002
-9.6942425,-8.353804,-0.023936402000000002
-9.6942425,-8.353804,-0.023936402000000002
-9.6942425,-8.353804,-0.023936402000000002
-9.033598,-8.430401,0.91437054
-9.033598,-8.430401,0.91437054
-9.033598,-8.430401,0.91437054
-9.033598,-8.430401,0.91437054
-8.564445,-8.861256,0.9430941999999999
-8.564445,-8.861256,0.9430941999999999
-8.564445,-8.861256,0.9430941999999999
-8.564445,-8.861256,0.9430941999999999
-7.808053999999999,-7.741032000000001,2.0537431
-7.808053999999999,-7.741032000000001,2.0537431
-7.808053999999999,-7.741032000000001,2.0537431
-7.808053999999999,-7.741032000000001,2.0537431
-6.525062999999999,-7.022939999999999,2.7814097
-6.525062999999999,-7.022939999999999,2.7814097
-6.525062999999999,-7.022939999999999,2.7814097
-6.525062999999999,-7.022939999999999,2.7814097
-5.347392,-4.811217,5.222923000000001
-5.347392,-4.811217,5.222923000000001
-5.347392,-4.811217,5.222923000000001
-5.347392,-4.811217,5.222923000000001
-3.844186,-2.666515,5.998462
-3.844186,-2.666515,5.998462
-3.844186,-2.666515,5.998462
-3.844186,-2.666515,5.998462
-2.7622607000000006,-0.23457673,7.128260000000001
-2.7622607000000006,-0.23457673,7.128260000000001
-2.7622607000000006,-0.23457673,7.128260000000001
-2.7622607000000006,-0.23457673,7.128260000000001
-2.2452345,1.0388398,7.35805
-2.2452345,1.0388398,7.35805
-2.2452345,1.0388398,7.35805
-2.2452345,1.0388398,7.35805
-2.2452345,1.0388398,7.35805
-2.3984275,3.6143966,8.066567
-2.3984275,3.6143966,8.066567
-2.3984275,3.6143966,8.066567
-2.7239625,3.6239712,7.7027339999999995
-2.7239625,3.6239712,7.7027339999999995
-2.7239625,3.6239712,7.7027339999999995
-2.7239625,3.6239712,7.7027339999999995
0.78990126,0.47394073,9.292110000000001
0.78990126,0.47394073,9.292110000000001
0.64628285,-1.0675635,8.305931
0.64628285,-1.0675635,8.305931
0.64628285,-1.0675635,8.305931
0.64628285,-1.0675635,8.305931
0.64628285,-1.0675635,8.305931
0.3877697,0.3398969,9.349558
0.3877697,0.3398969,9.349558
0.3877697,0.3398969,9.349558
0.3877697,0.3398969,9.349558
-0.8952214,-2.4750240000000003,8.23891
-0.8952214,-2.4750240000000003,8.23891
-0.8952214,-2.4750240000000003,8.23891
-0.5888355,-0.39734426,7.616563
-0.5888355,-0.39734426,7.616563
-0.5888355,-0.39734426,7.616563
-0.5888355,-0.39734426,7.616563
-0.5888355,-0.39734426,7.616563
0.30159867,1.5750152,4.102699299999999
0.30159867,1.5750152,4.102699299999999
0.30159867,1.5750152,4.102699299999999
0.30159867,1.5750152,4.102699299999999
-1.5079931999999998,-4.610151,2.9154537
-1.5079931999999998,-4.610151,2.9154537
-1.5079931999999998,-4.610151,2.9154537
-5.979312999999999,-6.3622955999999995,3.3941817000000003
-5.979312999999999,-6.3622955999999995,3.3941817000000003
-5.979312999999999,-6.3622955999999995,3.3941817000000003
-5.979312999999999,-6.3622955999999995,3.3941817000000003
-5.979312999999999,-6.3622955999999995,3.3941817000000003
-11.321918,-8.889978999999999,-1.6133133999999998
-11.321918,-8.889978999999999,-1.6133133999999998
-11.321918,-8.889978999999999,-1.6133133999999998
-11.321918,-8.889978999999999,-1.6133133999999998
-12.097457,-8.583592999999999,-0.90479594
-12.097457,-8.583592999999999,-0.90479594
-12.097457,-8.583592999999999,-0.90479594
-12.097457,-8.583592999999999,-0.90479594
-11.4272375,-6.036760299999999,-0.47394073
-11.4272375,-6.036760299999999,-0.47394073
-11.4272375,-6.036760299999999,-0.47394073
-11.4272375,-6.036760299999999,-0.47394073
-10.642124,-5.1367517,-1.0675635
-10.642124,-5.1367517,-1.0675635
-10.642124,-5.1367517,-1.0675635
-10.642124,-5.1367517,-1.0675635
-9.598496,-4.275041000000001,-1.2111819
-9.598496,-4.275041000000001,-1.2111819
-9.598496,-4.275041000000001,-1.2111819
-9.598496,-4.275041000000001,-1.2111819
-9.368708,-2.714388,-1.0292653
-9.368708,-2.714388,-1.0292653
-9.368708,-2.714388,-1.0292653
-9.368708,-2.714388,-1.0292653
-9.244238000000001,-2.9633265,-1.2782038
-9.244238000000001,-2.9633265,-1.2782038
-9.244238000000001,-2.9633265,-1.2782038
-9.244238000000001,-2.9633265,-1.2782038
-9.493176,-2.5037475,-1.3739493999999999
-9.493176,-2.5037475,-1.3739493999999999
-9.493176,-2.5037475,-1.3739493999999999
-9.493176,-2.5037475,-1.3739493999999999
-9.339984,-2.101616,-1.2877783999999999
-9.339984,-2.101616,-1.2877783999999999
-9.339984,-2.101616,-1.2877783999999999
-9.339984,-2.101616,-1.2877783999999999
-9.320834,-1.9962958,-1.3930986
-9.320834,-1.9962958,-1.3930986
-9.320834,-1.9962958,-1.3930986
-9.320834,-1.9962958,-1.3930986
-9.253813000000001,-1.5941644,-1.383524
-9.253813000000001,-1.5941644,-1.383524
-9.253813000000001,-1.5941644,-1.383524
-9.253813000000001,-1.5941644,-1.383524
-9.234664,-1.7856555,-1.4218222
-9.234664,-1.7856555,-1.4218222
-9.234664,-1.7856555,-1.4218222
-9.234664,-1.7856555,-1.4218222
-9.225089,-1.6516117,-1.3739493999999999
-9.225089,-1.6516117,-1.3739493999999999
-9.225089,-1.6516117,-1.3739493999999999
-9.225089,-1.6516117,-1.3739493999999999
-9.301685,-1.6133133999999998,-1.3930986
-9.301685,-1.6133133999999998,-1.3930986
-9.301685,-1.6133133999999998,-1.3930986
-9.301685,-1.6133133999999998,-1.3930986
-9.301685,-1.6516117,-1.3548003
-9.301685,-1.6516117,-1.3548003
-9.301685,-1.6516117,-1.3548003
-9.339984,-1.6516117,-1.2494801000000002
-9.339984,-1.6516117,-1.2494801000000002
-9.339984,-1.6516117,-1.2494801000000002
-9.339984,-1.6516117,-1.2494801000000002
-9.292110000000001,-1.7377827000000001,-1.1824582000000001
-9.292110000000001,-1.7377827000000001,-1.1824582000000001
-9.292110000000001,-1.7377827000000001,-1.1824582000000001
-9.292110000000001,-1.7377827000000001,-1.1824582000000001
-9.263388,-1.9005502,-1.2207563999999997
-9.263388,-1.9005502,-1.2207563999999997
-9.263388,-1.9005502,-1.2207563999999997
-9.263388,-1.9005502,-1.2207563999999997
-9.234664,-2.0441686999999997,-1.2207563999999997
-9.234664,-2.0441686999999997,-1.2207563999999997
-9.234664,-2.0441686999999997,-1.2207563999999997
-9.234664,-2.0441686999999997,-1.2207563999999997
-9.292110000000001,-2.101616,-1.2207563999999997
-9.292110000000001,-2.101616,-1.2207563999999997
-9.292110000000001,-2.101616,-1.2207563999999997
-9.292110000000001,-2.101616,-1.2207563999999997
-9.18679,-2.1590632999999997,-1.1920328000000002
-9.18679,-2.1590632999999997,-1.1920328000000002
-9.18679,-2.1590632999999997,-1.1920328000000002
-9.167641999999999,-2.1973617,-1.2016073
-9.167641999999999,-2.1973617,-1.2016073
-9.167641999999999,-2.1973617,-1.2016073
-9.167641999999999,-2.1973617,-1.2016073
-9.167641999999999,-2.1973617,-1.2016073
-9.110194,-2.2260852000000004,-1.1633091
-9.110194,-2.2260852000000004,-1.1633091
-9.110194,-2.2260852000000004,-1.1633091
-9.110194,-2.2260852000000004,-1.1633091
-9.129342999999999,-2.408002,-1.1824582000000001
-9.129342999999999,-2.408002,-1.1824582000000001
-9.129342999999999,-2.408002,-1.1824582000000001
-9.129342999999999,-2.408002,-1.1824582000000001
-9.110194,-2.4367256,-1.0867126
-9.110194,-2.4367256,-1.0867126
-9.110194,-2.4367256,-1.0867126
-9.110194,-2.4367256,-1.0867126
-9.0814705,-2.5516202,-1.1154363
-9.0814705,-2.5516202,-1.1154363
-9.0814705,-2.5516202,-1.1154363
-9.0814705,-2.5516202,-1.1154363
-9.129342999999999,-2.5707695,-1.0675635
-9.129342999999999,-2.5707695,-1.0675635
-9.129342999999999,-2.5707695,-1.0675635
-9.033598,-2.6186423,-1.0962871
-9.033598,-2.6186423,-1.0962871
-9.033598,-2.6186423,-1.0962871
-9.033598,-2.6186423,-1.0962871
-9.091045,-2.5899186000000003,-1.1728836
-9.091045,-2.5899186000000003,-1.1728836
-9.091045,-2.5899186000000003,-1.1728836
-9.091045,-2.5899186000000003,-1.1728836
-9.167641999999999,-2.6090677,-1.2494801000000002
-9.167641999999999,-2.6090677,-1.2494801000000002
-9.167641999999999,-2.6090677,-1.2494801000000002
-9.167641999999999,-2.6090677,-1.2494801000000002
-9.091045,-2.5516202,-1.2016073
-9.091045,-2.5516202,-1.2016073
-9.091045,-2.5516202,-1.2016073
-9.091045,-2.5516202,-1.2016073
-9.043172,-2.5803439999999997,-1.1728836
-9.043172,-2.5803439999999997,-1.1728836
-9.043172,-2.5803439999999997,-1.1728836
-9.043172,-2.5803439999999997,-1.1728836
-9.100619,-2.5803439999999997,-1.1824582000000001
-9.100619,-2.5803439999999997,-1.1824582000000001
-9.100619,-2.5803439999999997,-1.1824582000000001
-9.148492999999998,-2.5803439999999997,-1.2207563999999997
-9.148492999999998,-2.5803439999999997,-1.2207563999999997
-9.148492999999998,-2.5803439999999997,-1.2207563999999997
-9.148492999999998,-2.5803439999999997,-1.2207563999999997
-9.148492999999998,-2.5803439999999997,-1.2207563999999997
-9.100619,-2.5803439999999997,-1.1633091
-9.100619,-2.5803439999999997,-1.1633091
-9.100619,-2.5803439999999997,-1.1633091
-9.119769,-2.5324712000000003,-1.1920328000000002
-9.119769,-2.5324712000000003,-1.1920328000000002
-9.119769,-2.5324712000000003,-1.1920328000000002
-9.119769,-2.5324712000000003,-1.1920328000000002
-9.138917999999999,-2.513322,-1.1920328000000002
-9.138917999999999,-2.513322,-1.1920328000000002
-9.138917999999999,-2.513322,-1.1920328000000002
-9.138917999999999,-2.513322,-1.1920328000000002
-9.100619,-2.4463003,-1.2016073
-9.100619,-2.4463003,-1.2016073
-9.100619,-2.4463003,-1.2016073
-9.100619,-2.4463003,-1.2016073
-9.138917999999999,-2.494173,-1.2399056
-9.138917999999999,-2.494173,-1.2399056
-9.138917999999999,-2.494173,-1.2399056
-9.138917999999999,-2.494173,-1.2399056
-9.138917999999999,-2.494173,-1.2399056
-9.138917999999999,-2.494173,-1.2399056
-9.138917999999999,-2.494173,-1.2399056
-9.138917999999999,-2.494173,-1.2399056
-9.071896,-2.5037475,-1.1633091
-9.071896,-2.5037475,-1.1633091
-9.071896,-2.5037475,-1.1633091
-9.071896,-2.5037475,-1.1633091
-9.148492999999998,-2.5707695,-1.1920328000000002
-9.148492999999998,-2.5707695,-1.1920328000000002
-9.148492999999998,-2.5707695,-1.1920328000000002
-9.100619,-2.6090677,-1.14416
-9.100619,-2.6090677,-1.14416
-9.100619,-2.6090677,-1.14416
-9.100619,-2.6090677,-1.14416
-9.129342999999999,-2.5803439999999997,-1.1920328000000002
-9.129342999999999,-2.5803439999999997,-1.1920328000000002
-9.129342999999999,-2.5803439999999997,-1.1920328000000002
-9.129342999999999,-2.5803439999999997,-1.1920328000000002
-9.110194,-2.5420458,-1.2016073
-9.110194,-2.5420458,-1.2016073
-9.110194,-2.5420458,-1.2016073
-9.110194,-2.5420458,-1.2016073
-9.091045,-2.5324712000000003,-1.1920328000000002
-9.091045,-2.5324712000000003,-1.1920328000000002
-9.091045,-2.5324712000000003,-1.1920328000000002
-9.091045,-2.5324712000000003,-1.1920328000000002
-9.129342999999999,-2.513322,-1.2399056
-9.129342999999999,-2.513322,-1.2399056
-9.129342999999999,-2.513322,-1.2399056
-9.129342999999999,-2.513322,-1.2399056
-9.091045,-2.494173,-1.2207563999999997
-9.091045,-2.494173,-1.2207563999999997
-9.091045,-2.494173,-1.2207563999999997
-9.091045,-2.494173,-1.2207563999999997
-9.100619,-2.5420458,-1.2590546999999999
-9.100619,-2.5420458,-1.2590546999999999
-9.100619,-2.5420458,-1.2590546999999999
-9.100619,-2.494173,-1.2303311000000001
-9.100619,-2.494173,-1.2303311000000001
-9.100619,-2.494173,-1.2303311000000001
-9.100619,-2.494173,-1.2303311000000001
-9.100619,-2.4463003,-1.1824582000000001
-9.100619,-2.4463003,-1.1824582000000001
-9.100619,-2.4463003,-1.1824582000000001
-9.100619,-2.4463003,-1.1824582000000001
-9.062322,-2.4175766,-1.2016073
-9.062322,-2.4175766,-1.2016073
-9.062322,-2.4175766,-1.2016073
-9.062322,-2.4175766,-1.2016073
-9.167641999999999,-2.4463003,-1.2686293
-9.167641999999999,-2.4463003,-1.2686293
-9.167641999999999,-2.4463003,-1.2686293
-9.167641999999999,-2.4463003,-1.2686293
-9.349558,-2.4750240000000003,-1.2399056
-9.349558,-2.4750240000000003,-1.2399056
-9.349558,-2.4750240000000003,-1.2399056
-9.349558,-2.4750240000000003,-1.2399056
-9.20594,-2.733537,-1.0675635
-9.20594,-2.733537,-1.0675635
-9.20594,-2.733537,-1.0675635
-8.44955,-2.9920502,-0.83777404
-8.44955,-2.9920502,-0.83777404
-8.44955,-2.9920502,-0.83777404
-8.44955,-2.9920502,-0.83777404
-8.44955,-2.9920502,-0.83777404
-7.980396300000001,-3.0111992,-0.8186249
-7.980396300000001,-3.0111992,-0.8186249
-7.980396300000001,-3.0111992,-0.8186249
-7.980396300000001,-3.0111992,-0.8186249
-9.339984,-3.0686467,-1.4313968000000001
-9.339984,-3.0686467,-1.4313968000000001
-9.339984,-3.0686467,-1.4313968000000001
-9.339984,-3.0686467,-1.4313968000000001
-9.6942425,-3.1739669999999998,-1.4409714
-9.6942425,-3.1739669999999998,-1.4409714
-9.6942425,-3.1739669999999998,-1.4409714
-9.6942425,-3.1739669999999998,-1.4409714
-8.937852000000001,-3.2218397000000003,-1.0388398
-8.937852000000001,-3.2218397000000003,-1.0388398
-8.937852000000001,-3.2218397000000003,-1.0388398
-8.937852000000001,-3.2218397000000003,-1.0388398
-7.9899707,-3.2697124,-0.8952214
-7.9899707,-3.2697124,-0.8952214
-7.9899707,-3.2697124,-0.8952214
-8.315506,-3.1069447999999995,-0.90479594
-8.315506,-3.1069447999999995,-0.90479594
-8.315506,-3.1069447999999995,-0.90479594
-8.315506,-3.1069447999999995,-0.90479594
-7.4250717,-2.7239625,-0.7228793
-7.4250717,-2.7239625,-0.7228793
-7.4250717,-2.7239625,-0.7228793
-7.4250717,-2.7239625,-0.7228793
-7.4442205,-2.7718353,-1.0292653
-7.4442205,-2.7718353,-1.0292653
-7.4442205,-2.7718353,-1.0292653
-7.4442205,-2.7718353,-1.0292653
-7.626137299999999,-2.666515,-1.0675635
-7.626137299999999,-2.666515,-1.0675635
-7.626137299999999,-2.666515,-1.0675635
-7.626137299999999,-2.666515,-1.0675635
-4.1122737,-2.2452345,-0.13883112
-4.1122737,-2.2452345,-0.13883112
-4.1122737,-2.2452345,-0.13883112
-4.1122737,-2.2452345,-0.13883112
-2.7239625,-2.9154537,0.11968201
-2.7239625,-2.9154537,0.11968201
-2.7239625,-2.9154537,0.11968201
-18.474113,-3.8824842000000004,-3.1165195
-18.474113,-3.8824842000000004,-3.1165195
-18.474113,-3.8824842000000004,-3.1165195
-18.474113,-3.8824842000000004,-3.1165195
-18.474113,-3.8824842000000004,-3.1165195
-14.452798999999999,-4.8782387,-0.062234644000000006
-14.452798999999999,-4.8782387,-0.062234644000000006
-14.452798999999999,-4.8782387,-0.062234644000000006
-14.452798999999999,-4.8782387,-0.062234644000000006
-11.207023,-4.1122737,-1.2399056
-11.207023,-4.1122737,-1.2399056
-11.207023,-4.1122737,-1.2399056
-11.207023,-4.1122737,-1.2399056
-4.045252,-2.88673,1.3356511999999998
-4.045252,-2.88673,1.3356511999999998
-4.045252,-2.88673,1.3356511999999998
-4.045252,-2.88673,1.3356511999999998
0.14840569,-3.6239712,0.8473485999999999
0.14840569,-3.6239712,0.8473485999999999
0.14840569,-3.6239712,0.8473485999999999
0.14840569,-3.6239712,0.8473485999999999
-2.3984275,-3.2984362000000003,0.2441513
-2.3984275,-3.2984362000000003,0.2441513
-2.3984275,-3.2984362000000003,0.2441513
-2.3984275,-3.2984362000000003,0.2441513
-18.330496,-3.2218397000000003,-4.456958
-18.330496,-3.2218397000000003,-4.456958
-18.330496,-3.2218397000000003,-4.456958
-18.330496,-3.2218397000000003,-4.456958
-15.075145999999998,-3.8920587999999996,-1.948423
-15.075145999999998,-3.8920587999999996,-1.948423
-15.075145999999998,-3.8920587999999996,-1.948423
-15.075145999999998,-3.8920587999999996,-1.948423
-8.2676325,-3.7675896,-1.776081
-8.2676325,-3.7675896,-1.776081
-8.2676325,-3.7675896,-1.776081
-8.2676325,-3.7675896,-1.776081
-0.48351530000000004,-2.0441686999999997,0.76117754
-0.48351530000000004,-2.0441686999999997,0.76117754
-0.48351530000000004,-2.0441686999999997,0.76117754
-0.48351530000000004,-2.0441686999999997,0.76117754
-5.299519,-1.14416,0.00478728
-5.299519,-1.14416,0.00478728
-5.299519,-1.14416,0.00478728
-5.299519,-1.14416,0.00478728
-16.032602,-4.801642,-2.5420458
-16.032602,-4.801642,-2.5420458
-16.032602,-4.801642,-2.5420458
-16.032602,-4.801642,-2.5420458
-9.636795,-4.916537,1.6133133999999998
-9.636795,-4.916537,1.6133133999999998
-9.636795,-4.916537,1.6133133999999998
-9.636795,-4.916537,1.6133133999999998
-9.512326,-4.0356774,0.46436617
-9.512326,-4.0356774,0.46436617
-9.512326,-4.0356774,0.46436617
-9.512326,-4.0356774,0.46436617
-1.2877783999999999,-1.7282081999999999,0.6750065
-1.2877783999999999,-1.7282081999999999,0.6750065
-1.2877783999999999,-1.7282081999999999,0.6750065
-1.2877783999999999,-1.7282081999999999,0.6750065
-11.140001,-3.1643922000000004,-1.4218222
-11.140001,-3.1643922000000004,-1.4218222
-11.140001,-3.1643922000000004,-1.4218222
-16.166645000000003,-4.284616000000001,-1.6994845
-16.166645000000003,-4.284616000000001,-1.6994845
-16.166645000000003,-4.284616000000001,-1.6994845
-16.166645000000003,-4.284616000000001,-1.6994845
-6.285699,-2.5324712000000003,0.5313880999999999
-6.285699,-2.5324712000000003,0.5313880999999999
-6.285699,-2.5324712000000003,0.5313880999999999
-6.285699,-2.5324712000000003,0.5313880999999999
-6.285699,-2.5324712000000003,0.5313880999999999
2.7048132000000003,-2.7239625,1.3548003
2.7048132000000003,-2.7239625,1.3548003
2.7048132000000003,-2.7239625,1.3548003
-13.016615,-3.2218397000000003,-3.9878044000000004
-13.016615,-3.2218397000000003,-3.9878044000000004
-13.016615,-3.2218397000000003,-3.9878044000000004
-13.016615,-3.2218397000000003,-3.9878044000000004
-13.016615,-3.2218397000000003,-3.9878044000000004
-19.000715,-5.5963306,-1.9962958
-19.000715,-5.5963306,-1.9962958
-19.000715,-5.5963306,-1.9962958
-19.000715,-5.5963306,-1.9962958
-7.8272033,-4.0644007,1.8909756999999998
-7.8272033,-4.0644007,1.8909756999999998
-7.8272033,-4.0644007,1.8909756999999998
-2.5420458,-3.4420545,-0.6079846
-2.5420458,-3.4420545,-0.6079846
-2.5420458,-3.4420545,-0.6079846
-2.5420458,-3.4420545,-0.6079846
-2.5420458,-3.4420545,-0.6079846
-1.862252,-3.3941817000000003,0.70373017
-1.862252,-3.3941817000000003,0.70373017
-1.862252,-3.3941817000000003,0.70373017
-18.397517999999998,-2.8580062,-3.6526947
-18.397517999999998,-2.8580062,-3.6526947
-18.397517999999998,-2.8580062,-3.6526947
-18.397517999999998,-2.8580062,-3.6526947
-13.208105999999999,-1.8239537000000001,-0.8186249
-13.208105999999999,-1.8239537000000001,-0.8186249
-13.208105999999999,-1.8239537000000001,-0.8186249
-13.208105999999999,-1.8239537000000001,-0.8186249
-1.9675721999999998,-3.193116,0.014361841
-1.9675721999999998,-3.193116,0.014361841
-1.9675721999999998,-3.193116,0.014361841
-1.9675721999999998,-3.193116,0.014361841
-0.751603,-0.8952214,-0.43564250000000004
-0.751603,-0.8952214,-0.43564250000000004
-0.751603,-0.8952214,-0.43564250000000004
-0.751603,-0.8952214,-0.43564250000000004
-13.121935,-4.2080193,-1.8143792
-13.121935,-4.2080193,-1.8143792
-13.121935,-4.2080193,-1.8143792
-13.121935,-4.2080193,-1.8143792
-14.586843,-5.4239883,-0.6845810999999999
-14.586843,-5.4239883,-0.6845810999999999
-14.586843,-5.4239883,-0.6845810999999999
-14.586843,-5.4239883,-0.6845810999999999
-10.670848,-4.169721,2.0441686999999997
-10.670848,-4.169721,2.0441686999999997
-10.670848,-4.169721,2.0441686999999997
-10.670848,-4.169721,2.0441686999999997
-1.1824582000000001,-2.2260852000000004,0.17712937
-1.1824582000000001,-2.2260852000000004,0.17712937
-1.1824582000000001,-2.2260852000000004,0.17712937
-1.1824582000000001,-2.2260852000000004,0.17712937
-3.9495062999999995,-2.7431116,0.5218136
-3.9495062999999995,-2.7431116,0.5218136
-3.9495062999999995,-2.7431116,0.5218136
-3.9495062999999995,-2.7431116,0.5218136
-18.062407999999998,-3.059072,-2.7718353
-18.062407999999998,-3.059072,-2.7718353
-18.062407999999998,-3.059072,-2.7718353
-13.8879,-3.4229053999999994,-1.0005416
-13.8879,-3.4229053999999994,-1.0005416
-13.8879,-3.4229053999999994,-1.0005416
-13.8879,-3.4229053999999994,-1.0005416
-13.8879,-3.4229053999999994,-1.0005416
-5.845269,-3.5665237999999997,-0.12925656
-5.845269,-3.5665237999999997,-0.12925656
-5.845269,-3.5665237999999997,-0.12925656
1.2111819,-2.9346027,1.2207563999999997
1.2111819,-2.9346027,1.2207563999999997
1.2111819,-2.9346027,1.2207563999999997
1.2111819,-2.9346027,1.2207563999999997
-8.11444,-3.1356685,-2.5803439999999997
-8.11444,-3.1356685,-2.5803439999999997
-8.11444,-3.1356685,-2.5803439999999997
-8.11444,-3.1356685,-2.5803439999999997
-14.366628,-4.3133397,-2.2452345
-14.366628,-4.3133397,-2.2452345
-14.366628,-4.3133397,-2.2452345
-14.366628,-4.3133397,-2.2452345
-8.794233,-4.2175937,0.6271336999999999
-8.794233,-4.2175937,0.6271336999999999
-8.794233,-4.2175937,0.6271336999999999
-8.794233,-4.2175937,0.6271336999999999
-4.476107,-2.9920502,-0.5888355
-4.476107,-2.9920502,-0.5888355
-4.476107,-2.9920502,-0.5888355
-4.476107,-2.9920502,-0.5888355
-14.605992,-1.4984187,-4.303765
-14.605992,-1.4984187,-4.303765
-14.605992,-1.4984187,-4.303765
-14.605992,-1.4984187,-4.303765
-14.232584,-3.0686467,-1.9196993000000002
-14.232584,-3.0686467,-1.9196993000000002
-14.232584,-3.0686467,-1.9196993000000002
-8.545295,-2.8580062,-1.709059
-8.545295,-2.8580062,-1.709059
-8.545295,-2.8580062,-1.709059
-8.545295,-2.8580062,-1.709059
-4.715471,-2.6569404999999997,-1.0962871
-4.715471,-2.6569404999999997,-1.0962871
-4.715471,-2.6569404999999997,-1.0962871
-4.715471,-2.6569404999999997,-1.0962871
-13.112360999999998,-2.1207652,-3.518651
-13.112360999999998,-2.1207652,-3.518651
-13.112360999999998,-2.1207652,-3.518651
-13.112360999999998,-2.1207652,-3.518651
-16.578352,-4.389936,-0.8952214
-16.578352,-4.389936,-0.8952214
-16.578352,-4.389936,-0.8952214
-16.578352,-4.389936,-0.8952214
-13.390023000000001,-2.1303396,-2.561195
-13.390023000000001,-2.1303396,-2.561195
-13.390023000000001,-2.1303396,-2.561195
-13.390023000000001,-2.1303396,-2.561195
-6.668680999999999,-1.4601203999999999,-2.0920415
-6.668680999999999,-1.4601203999999999,-2.0920415
-6.668680999999999,-1.4601203999999999,-2.0920415
-6.668680999999999,-1.4601203999999999,-2.0920415
-3.8346114,-2.4654493,-0.39734426
-3.8346114,-2.4654493,-0.39734426
-3.8346114,-2.4654493,-0.39734426
-3.8346114,-2.4654493,-0.39734426
-6.831449,-2.1973617,-1.3260766000000002
-6.831449,-2.1973617,-1.3260766000000002
-6.831449,-2.1973617,-1.3260766000000002
-6.831449,-2.1973617,-1.3260766000000002
-11.092129,-2.5516202,-2.7048132000000003
-11.092129,-2.5516202,-2.7048132000000003
-11.092129,-2.5516202,-2.7048132000000003
-11.092129,-2.5516202,-2.7048132000000003
-14.108115,-2.2931072999999995,-4.504830999999999
-14.108115,-2.2931072999999995,-4.504830999999999
-14.108115,-2.2931072999999995,-4.504830999999999
-14.108115,-2.2931072999999995,-4.504830999999999
-7.951672599999999,-2.8963046,-2.3792782000000003
-7.951672599999999,-2.8963046,-2.3792782000000003
-7.951672599999999,-2.8963046,-2.3792782000000003
-7.951672599999999,-2.8963046,-2.3792782000000003
-10.172971,-2.2165107999999996,-4.5527034
-10.172971,-2.2165107999999996,-4.5527034
-10.172971,-2.2165107999999996,-4.5527034
-10.172971,-2.2165107999999996,-4.5527034
-9.885734,-1.8239537000000001,-2.88673
-9.885734,-1.8239537000000001,-2.88673
-9.885734,-1.8239537000000001,-2.88673
-9.885734,-1.8239537000000001,-2.88673
-7.281453,-2.0824668,-1.8048046999999998
-7.281453,-2.0824668,-1.8048046999999998
-7.281453,-2.0824668,-1.8048046999999998
-7.281453,-2.0824668,-1.8048046999999998
-7.922949000000001,-1.6324625,-2.666515
-7.922949000000001,-1.6324625,-2.666515
-7.922949000000001,-1.6324625,-2.666515
-7.922949000000001,-1.6324625,-2.666515
-9.464453,-1.2590546999999999,-2.2069361
-9.464453,-1.2590546999999999,-2.2069361
-9.464453,-1.2590546999999999,-2.2069361
-9.464453,-1.2590546999999999,-2.2069361
-10.967659,-1.4313968000000001,-2.5324712000000003
-10.967659,-1.4313968000000001,-2.5324712000000003
-10.967659,-1.4313968000000001,-2.5324712000000003
-10.967659,-1.4313968000000001,-2.5324712000000003
-9.780414,-1.1537346000000002,-2.149489
-9.780414,-1.1537346000000002,-2.149489
-9.780414,-1.1537346000000002,-2.149489
-9.780414,-1.1537346000000002,-2.149489
-7.0133657000000005,-2.1399142999999996,-0.7420284
-7.0133657000000005,-2.1399142999999996,-0.7420284
-7.0133657000000005,-2.1399142999999996,-0.7420284
-7.0133657000000005,-2.1399142999999996,-0.7420284
-12.154904,-2.5228968,-1.9388485
-12.154904,-2.5228968,-1.9388485
-12.154904,-2.5228968,-1.9388485
-12.154904,-2.5228968,-1.9388485
-8.420826,-2.7718353,-0.69415563
-8.420826,-2.7718353,-0.69415563
-8.420826,-2.7718353,-0.69415563
-8.420826,-2.7718353,-0.69415563
-6.975067,-2.321831,-0.90479594
-6.975067,-2.321831,-0.90479594
-6.975067,-2.321831,-0.90479594
-6.975067,-2.321831,-0.90479594
-5.692076,-2.5228968,-1.1250108
-5.692076,-2.5228968,-1.1250108
-5.692076,-2.5228968,-1.1250108
-5.692076,-2.5228968,-1.1250108
-4.9739842,-2.2165107999999996,-0.4164934
-4.9739842,-2.2165107999999996,-0.4164934
-4.9739842,-2.2165107999999996,-0.4164934
-4.9739842,-2.2165107999999996,-0.4164934
-2.5516202,-2.2069361,-0.09095833
-2.5516202,-2.2069361,-0.09095833
-2.5516202,-2.2069361,-0.09095833
-7.865501400000001,-1.7473572,-1.3739493999999999
-7.865501400000001,-1.7473572,-1.3739493999999999
-7.865501400000001,-1.7473572,-1.3739493999999999
-7.865501400000001,-1.7473572,-1.3739493999999999
-7.865501400000001,-1.7473572,-1.3739493999999999
-19.603912,-2.7909843999999997,-4.7441945
-19.603912,-2.7909843999999997,-4.7441945
-19.603912,-2.7909843999999997,-4.7441945
-13.514492,-3.2792869,-2.0728923999999997
-13.514492,-3.2792869,-2.0728923999999997
-13.514492,-3.2792869,-2.0728923999999997
-13.514492,-3.2792869,-2.0728923999999997
-13.514492,-3.2792869,-2.0728923999999997
-2.972901,-3.0877957,0.359046
-2.972901,-3.0877957,0.359046
-2.972901,-3.0877957,0.359046
-2.972901,-3.0877957,0.359046
1.5367169,-0.5792609000000001,0.69415563
1.5367169,-0.5792609000000001,0.69415563
1.5367169,-0.5792609000000001,0.69415563
-12.920869,-4.3707867,-2.34098
-12.920869,-4.3707867,-2.34098
-12.920869,-4.3707867,-2.34098
-12.920869,-4.3707867,-2.34098
-12.920869,-4.3707867,-2.34098
-13.801729000000002,-6.831449,1.5845897
-13.801729000000002,-6.831449,1.5845897
-13.801729000000002,-6.831449,1.5845897
-13.801729000000002,-6.831449,1.5845897
-9.665519,-2.5516202,0.8473485999999999
-9.665519,-2.5516202,0.8473485999999999
-9.665519,-2.5516202,0.8473485999999999
-9.665519,-2.5516202,0.8473485999999999
-0.49308985,-2.4558747000000003,0.6079846
-0.49308985,-2.4558747000000003,0.6079846
-0.49308985,-2.4558747000000003,0.6079846
-0.49308985,-2.4558747000000003,0.6079846
-9.608071,-3.0016246,-0.2920241
-9.608071,-3.0016246,-0.2920241
-9.608071,-3.0016246,-0.2920241
-9.608071,-3.0016246,-0.2920241
-17.689001,-3.7292912000000005,-1.9292740000000002
-17.689001,-3.7292912000000005,-1.9292740000000002
-17.689001,-3.7292912000000005,-1.9292740000000002
-17.689001,-3.7292912000000005,-1.9292740000000002
-8.277207,-2.714388,-0.44521707
-8.277207,-2.714388,-0.44521707
-8.277207,-2.714388,-0.44521707
