accx,accy,accz
14.586843,-3.5760984,1.7952299999999999
14.586843,-3.5760984,1.7952299999999999
14.586843,-3.5760984,1.7952299999999999
14.586843,-3.5760984,1.7952299999999999
16.463457000000002,-7.310177,1.948423
16.463457000000002,-7.310177,1.948423
16.463457000000002,-7.310177,1.948423
16.463457000000002,-7.310177,1.948423
11.475111,-6.3527207,2.6377914000000002
11.475111,-6.3527207,2.6377914000000002
11.475111,-6.3527207,2.6377914000000002
11.475111,-6.3527207,2.6377914000000002
10.517653999999999,-2.905879,3.3463089999999998
10.517653999999999,-2.905879,3.3463089999999998
10.517653999999999,-2.905879,3.3463089999999998
10.517653999999999,-2.905879,3.3463089999999998
10.517653999999999,-2.905879,3.3463089999999998
8.995299000000001,-0.42606795,3.0686467
8.995299000000001,-0.42606795,3.0686467
8.995299000000001,-0.42606795,3.0686467
9.004874000000001,-0.59841,2.3026817000000004
9.004874000000001,-0.59841,2.3026817000000004
9.004874000000001,-0.59841,2.3026817000000004
9.004874000000001,-0.59841,2.3026817000000004
9.569773,-1.6324625,2.1111906000000005
9.569773,-1.6324625,2.1111906000000005
9.569773,-1.6324625,2.1111906000000005
9.569773,-1.6324625,2.1111906000000005
9.569773,-1.6324625,2.1111906000000005
9.904882,-0.7994758000000001,2.2739582
9.904882,-0.7994758000000001,2.2739582
9.904882,-0.7994758000000001,2.2739582
9.943181,-0.22500217,2.3792782000000003
9.943181,-0.22500217,2.3792782000000003
9.943181,-0.22500217,2.3792782000000003
9.943181,-0.22500217,2.3792782000000003
9.780414,-1.0388398,2.0633178
9.780414,-1.0388398,2.0633178
9.780414,-1.0388398,2.0633178
9.780414,-1.0388398,2.0633178
9.780414,-1.0388398,2.0633178
9.5889225,-1.0388398,2.1399142999999996
9.5889225,-1.0388398,2.1399142999999996
9.5889225,-1.0388398,2.1399142999999996
9.732541000000001,-1.0101161,2.2165107999999996
9.732541000000001,-1.0101161,2.2165107999999996
9.732541000000001,-1.0101161,2.2165107999999996
9.732541000000001,-1.0101161,2.2165107999999996
9.742115,-1.0962871,2.149489
9.742115,-1.0962871,2.149489
9.742115,-1.0962871,2.149489
9.742115,-1.0962871,2.149489
9.742115,-1.0962871,2.149489
9.904882,-1.2782038,2.0728923999999997
9.904882,-1.2782038,2.0728923999999997
9.904882,-1.2782038,2.0728923999999997
9.904882,-1.2782038,2.0728923999999997
9.761265,-1.4601203999999999,2.1877869999999997
9.761265,-1.4601203999999999,2.1877869999999997
9.761265,-1.4601203999999999,2.1877869999999997
9.866585,-1.3548003,2.2931072999999995
9.866585,-1.3548003,2.2931072999999995
9.866585,-1.3548003,2.2931072999999995
9.866585,-1.3548003,2.2931072999999995
9.866585,-1.3548003,2.2931072999999995
9.847435,-1.3356511999999998,2.1877869999999997
9.847435,-1.3356511999999998,2.1877869999999997
9.847435,-1.3356511999999998,2.1877869999999997
9.847435,-1.3356511999999998,2.1877869999999997
9.809137,-1.3356511999999998,2.1207652
9.809137,-1.3356511999999998,2.1207652
9.809137,-1.3356511999999998,2.1207652
9.732541000000001,-1.1920328000000002,2.1303396
9.732541000000001,-1.1920328000000002,2.1303396
9.732541000000001,-1.1920328000000002,2.1303396
9.732541000000001,-1.1920328000000002,2.1303396
9.732541000000001,-1.1920328000000002,2.1303396
9.866585,-1.4984187,2.0537431
9.866585,-1.4984187,2.0537431
9.866585,-1.4984187,2.0537431
9.866585,-1.4984187,2.0537431
9.64637,-1.4026731000000001,2.1877869999999997
9.64637,-1.4026731000000001,2.1877869999999997
9.64637,-1.4026731000000001,2.1877869999999997
9.722966,-1.4601203999999999,2.2835326
9.722966,-1.4601203999999999,2.2835326
9.722966,-1.4601203999999999,2.2835326
9.722966,-1.4601203999999999,2.2835326
9.722966,-1.4601203999999999,2.2835326
9.713391,-1.5079931999999998,2.2835326
9.713391,-1.5079931999999998,2.2835326
9.713391,-1.5079931999999998,2.2835326
9.5889225,-1.6611862000000002,2.2069361
9.5889225,-1.6611862000000002,2.2069361
9.5889225,-1.6611862000000002,2.2069361
9.5889225,-1.6611862000000002,2.2069361
9.665519,-1.5367169,2.1973617
9.665519,-1.5367169,2.1973617
9.665519,-1.5367169,2.1973617
9.665519,-1.5367169,2.1973617
9.569773,-1.6133133999999998,2.1111906000000005
9.569773,-1.6133133999999998,2.1111906000000005
9.569773,-1.6133133999999998,2.1111906000000005
9.569773,-1.6133133999999998,2.1111906000000005
9.569773,-1.6133133999999998,2.1111906000000005
9.675094,-1.5558661,2.0728923999999997
9.675094,-1.5558661,2.0728923999999997
9.675094,-1.5558661,2.0728923999999997
9.761265,-1.469695,1.9962958
9.761265,-1.469695,1.9962958
9.761265,-1.469695,1.9962958
9.761265,-1.469695,1.9962958
9.64637,-1.3739493999999999,2.0537431
9.64637,-1.3739493999999999,2.0537431
9.64637,-1.3739493999999999,2.0537431
9.64637,-1.3739493999999999,2.0537431
9.64637,-1.3739493999999999,2.0537431
9.761265,-1.3930986,2.101616
9.761265,-1.3930986,2.101616
9.761265,-1.3930986,2.101616
9.952755999999999,-1.4409714,2.168638
9.952755999999999,-1.4409714,2.168638
9.952755999999999,-1.4409714,2.168638
9.952755999999999,-1.4409714,2.168638
9.952755999999999,-1.4409714,2.168638
9.952755999999999,-1.4409714,2.168638
9.952755999999999,-1.4409714,2.168638
9.952755999999999,-1.4409714,2.168638
9.684667999999999,-1.4122477,2.2739582
9.684667999999999,-1.4122477,2.2739582
9.684667999999999,-1.4122477,2.2739582
9.722966,-1.6324625,2.2165107999999996
9.722966,-1.6324625,2.2165107999999996
9.722966,-1.6324625,2.2165107999999996
9.722966,-1.6324625,2.2165107999999996
9.636795,-1.6324625,2.0633178
9.636795,-1.6324625,2.0633178
9.636795,-1.6324625,2.0633178
9.636795,-1.6324625,2.0633178
9.636795,-1.6324625,2.0633178
9.8953085,-1.6228879999999999,1.8526775000000002
9.8953085,-1.6228879999999999,1.8526775000000002
9.8953085,-1.6228879999999999,1.8526775000000002
9.8953085,-1.6228879999999999,1.8526775000000002
9.5219,-1.6324625,1.8526775000000002
9.5219,-1.6324625,1.8526775000000002
9.5219,-1.6324625,1.8526775000000002
9.713391,-1.4122477,2.0633178
9.713391,-1.4122477,2.0633178
9.713391,-1.4122477,2.0633178
9.713391,-1.4122477,2.0633178
9.770839,-1.6324625,2.1590632999999997
9.770839,-1.6324625,2.1590632999999997
9.770839,-1.6324625,2.1590632999999997
9.770839,-1.6324625,2.1590632999999997
9.684667999999999,-1.7377827000000001,2.2739582
9.684667999999999,-1.7377827000000001,2.2739582
9.684667999999999,-1.7377827000000001,2.2739582
9.684667999999999,-1.7377827000000001,2.2739582
9.732541000000001,-1.6324625,2.2452345
9.732541000000001,-1.6324625,2.2452345
9.732541000000001,-1.6324625,2.2452345
9.732541000000001,-1.6324625,2.2452345
9.732541000000001,-1.6324625,2.2452345
9.713391,-1.7569318999999999,2.1782124
9.713391,-1.7569318999999999,2.1782124
9.713391,-1.7569318999999999,2.1782124
9.8953085,-1.709059,2.321831
9.8953085,-1.709059,2.321831
9.8953085,-1.709059,2.321831
9.8953085,-1.709059,2.321831
9.799562,-1.5750152,2.2260852000000004
9.799562,-1.5750152,2.2260852000000004
9.799562,-1.5750152,2.2260852000000004
9.799562,-1.5750152,2.2260852000000004
9.799562,-1.5750152,2.2260852000000004
9.684667999999999,-1.6133133999999998,2.0920415
9.684667999999999,-1.6133133999999998,2.0920415
9.684667999999999,-1.6133133999999998,2.0920415
9.5219,-1.6803354,1.9101248
9.5219,-1.6803354,1.9101248
9.5219,-1.6803354,1.9101248
9.5219,-1.6803354,1.9101248
9.665519,-1.6037389,1.9292740000000002
9.665519,-1.6037389,1.9292740000000002
9.665519,-1.6037389,1.9292740000000002
9.665519,-1.6037389,1.9292740000000002
9.655944,-1.7569318999999999,1.8143792
9.655944,-1.7569318999999999,1.8143792
9.655944,-1.7569318999999999,1.8143792
9.655944,-1.7569318999999999,1.8143792
9.6942425,-1.7186337,1.8814011999999998
9.6942425,-1.7186337,1.8814011999999998
9.6942425,-1.7186337,1.8814011999999998
9.6942425,-1.7186337,1.8814011999999998
9.684667999999999,-1.7952299999999999,2.1303396
9.684667999999999,-1.7952299999999999,2.1303396
9.684667999999999,-1.7952299999999999,2.1303396
9.684667999999999,-1.7952299999999999,2.1303396
9.617646,-1.8143792,2.2931072999999995
9.617646,-1.8143792,2.2931072999999995
9.617646,-1.8143792,2.2931072999999995
9.617646,-1.8143792,2.2931072999999995
9.655944,-1.8335283,2.2931072999999995
9.655944,-1.8335283,2.2931072999999995
9.655944,-1.8335283,2.2931072999999995
9.655944,-1.8335283,2.2931072999999995
9.722966,-1.9292740000000002,2.254809
9.722966,-1.9292740000000002,2.254809
9.722966,-1.9292740000000002,2.254809
9.722966,-1.9292740000000002,2.254809
9.847435,-1.9579976000000003,2.1399142999999996
9.847435,-1.9579976000000003,2.1399142999999996
9.847435,-1.9579976000000003,2.1399142999999996
9.847435,-1.9579976000000003,2.1399142999999996
9.62722,-1.8526775000000002,2.1877869999999997
9.62722,-1.8526775000000002,2.1877869999999997
9.62722,-1.8526775000000002,2.1877869999999997
9.62722,-1.8526775000000002,2.1877869999999997
9.531475,-1.8526775000000002,2.2165107999999996
9.531475,-1.8526775000000002,2.2165107999999996
9.531475,-1.8526775000000002,2.2165107999999996
9.531475,-1.8526775000000002,2.2165107999999996
9.5889225,-2.0250196,2.0824668
9.5889225,-2.0250196,2.0824668
9.5889225,-2.0250196,2.0824668
9.5889225,-2.0250196,2.0824668
9.818711,-1.9771467,2.1207652
9.818711,-1.9771467,2.1207652
9.818711,-1.9771467,2.1207652
9.742115,-2.168638,2.1303396
9.742115,-2.168638,2.1303396
9.742115,-2.168638,2.1303396
9.742115,-2.168638,2.1303396
9.655944,-2.2260852000000004,2.1782124
9.655944,-2.2260852000000004,2.1782124
9.655944,-2.2260852000000004,2.1782124
9.655944,-2.2260852000000004,2.1782124
9.397431,-2.034594,2.2835326
9.397431,-2.034594,2.2835326
9.397431,-2.034594,2.2835326
9.397431,-2.034594,2.2835326
9.196365,-1.948423,2.2165107999999996
9.196365,-1.948423,2.2165107999999996
9.196365,-1.948423,2.2165107999999996
9.196365,-1.948423,2.2165107999999996
9.5889225,-2.0728923999999997,2.149489
9.5889225,-2.0728923999999997,2.149489
9.5889225,-2.0728923999999997,2.149489
9.5889225,-2.0728923999999997,2.149489
9.665519,-1.948423,2.3122563
9.665519,-1.948423,2.3122563
9.665519,-1.948423,2.3122563
9.665519,-1.948423,2.3122563
9.550624000000001,-1.8814011999999998,2.3122563
9.550624000000001,-1.8814011999999998,2.3122563
9.550624000000001,-1.8814011999999998,2.3122563
9.655944,-1.8048046999999998,2.2931072999999995
9.655944,-1.8048046999999998,2.2931072999999995
9.655944,-1.8048046999999998,2.2931072999999995
9.655944,-1.8048046999999998,2.2931072999999995
9.655944,-1.8048046999999998,2.2931072999999995
9.483603,-1.862252,2.3984275
9.483603,-1.862252,2.3984275
9.483603,-1.862252,2.3984275
9.483603,-1.862252,2.3984275
9.75169,-2.0824668,2.5516202
9.75169,-2.0824668,2.5516202
9.75169,-2.0824668,2.5516202
9.904882,-2.427151,2.8101335
9.904882,-2.427151,2.8101335
9.904882,-2.427151,2.8101335
9.904882,-2.427151,2.8101335
9.904882,-2.427151,2.8101335
10.469782,-3.844186,3.384607
10.469782,-3.844186,3.384607
10.469782,-3.844186,3.384607
10.469782,-3.844186,3.384607
9.722966,-4.926111,4.782493
9.722966,-4.926111,4.782493
9.722966,-4.926111,4.782493
9.722966,-4.926111,4.782493
7.788905000000001,-5.4239883,5.17505
7.788905000000001,-5.4239883,5.17505
7.788905000000001,-5.4239883,5.17505
7.788905000000001,-5.4239883,5.17505
4.7058964,-7.5112429999999994,5.021857
4.7058964,-7.5112429999999994,5.021857
4.7058964,-7.5112429999999994,5.021857
4.7058964,-7.5112429999999994,5.021857
1.4792696,-10.642124,5.950589
1.4792696,-10.642124,5.950589
1.4792696,-10.642124,5.950589
1.4792696,-10.642124,5.950589
2.2165107999999996,-17.171974,6.218677
2.2165107999999996,-17.171974,6.218677
2.2165107999999996,-17.171974,6.218677
2.2165107999999996,-17.171974,6.218677
14.902803,-19.594337,6.218677
14.902803,-19.594337,6.218677
14.902803,-19.594337,6.218677
14.902803,-19.594337,6.218677
15.544298999999999,-10.757019,0.9526688
15.544298999999999,-10.757019,0.9526688
15.544298999999999,-10.757019,0.9526688
15.544298999999999,-10.757019,0.9526688
7.032514599999999,6.3718699999999995,-8.44955
7.032514599999999,6.3718699999999995,-8.44955
7.032514599999999,6.3718699999999995,-8.44955
7.032514599999999,6.3718699999999995,-8.44955
18.751776,19.603912,-9.378282
18.751776,19.603912,-9.378282
18.751776,19.603912,-9.378282
18.751776,19.603912,-9.378282
19.594337,-3.4420545,-2.6569404999999997
19.594337,-3.4420545,-2.6569404999999997
19.594337,-3.4420545,-2.6569404999999997
19.594337,-3.4420545,-2.6569404999999997
18.253899,-19.594337,8.717637
18.253899,-19.594337,8.717637
18.253899,-19.594337,8.717637
18.253899,-19.594337,8.717637
-5.653778,-13.533641000000001,3.7292912000000005
-5.653778,-13.533641000000001,3.7292912000000005
-5.653778,-13.533641000000001,3.7292912000000005
-5.653778,-13.533641000000001,3.7292912000000005
-19.603912,-6.975067,0.11968201
-19.603912,-6.975067,0.11968201
-19.603912,-6.975067,0.11968201
-19.603912,-6.975067,0.11968201
-14.366628,-14.998548499999998,2.0633178
-14.366628,-14.998548499999998,2.0633178
-14.366628,-14.998548499999998,2.0633178
-14.366628,-14.998548499999998,2.0633178
18.043259,-19.594337,15.726215
18.043259,-19.594337,15.726215
18.043259,-19.594337,15.726215
18.043259,-19.594337,15.726215
19.594337,-14.605992,-6.592085000000001
19.594337,-14.605992,-6.592085000000001
19.594337,-14.605992,-6.592085000000001
19.594337,-14.605992,-6.592085000000001
19.173057999999997,16.214517999999998,-19.603912
19.173057999999997,16.214517999999998,-19.603912
19.173057999999997,16.214517999999998,-19.603912
19.173057999999997,16.214517999999998,-19.603912
19.316675,18.033684,-18.493263
19.316675,18.033684,-18.493263
19.316675,18.033684,-18.493263
19.316675,18.033684,-18.493263
19.594337,-19.297527,3.7101421
19.594337,-19.297527,3.7101421
19.594337,-19.297527,3.7101421
19.594337,-19.297527,3.7101421
12.231501,-18.790075,14.74961
12.231501,-18.790075,14.74961
12.231501,-18.790075,14.74961
-19.508167,-2.1399142999999996,-1.0962871
-19.508167,-2.1399142999999996,-1.0962871
-19.508167,-2.1399142999999996,-1.0962871
-19.508167,-2.1399142999999996,-1.0962871
-19.508167,-2.1399142999999996,-1.0962871
-19.603912,-7.8176284,-8.497422
-19.603912,-7.8176284,-8.497422
-19.603912,-7.8176284,-8.497422
-19.603912,-7.8176284,-8.497422
1.469695,-19.594337,16.798567000000002
1.469695,-19.594337,16.798567000000002
1.469695,-19.594337,16.798567000000002
1.469695,-19.594337,16.798567000000002
19.594337,-19.594337,17.095377
19.594337,-19.594337,17.095377
19.594337,-19.594337,17.095377
19.594337,-19.594337,17.095377
19.53689,-7.377198700000001,-12.260224000000001
19.53689,-7.377198700000001,-12.260224000000001
19.53689,-7.377198700000001,-12.260224000000001
19.53689,-7.377198700000001,-12.260224000000001
18.703903,19.125185000000002,-19.603912
18.703903,19.125185000000002,-19.603912
18.703903,19.125185000000002,-19.603912
18.703903,19.125185000000002,-19.603912
19.192207,11.781497,-13.514492
19.192207,11.781497,-13.514492
19.192207,11.781497,-13.514492
19.192207,11.781497,-13.514492
19.594337,-19.594337,9.75169
19.594337,-19.594337,9.75169
19.594337,-19.594337,9.75169
19.594337,-19.594337,9.75169
13.045339,-19.20178,13.447470000000001
13.045339,-19.20178,13.447470000000001
13.045339,-19.20178,13.447470000000001
13.045339,-19.20178,13.447470000000001
-18.53156,-5.06973,-2.0441686999999997
-18.53156,-5.06973,-2.0441686999999997
-18.53156,-5.06973,-2.0441686999999997
-18.53156,-5.06973,-2.0441686999999997
-18.53156,-5.06973,-2.0441686999999997
-18.53156,-5.06973,-2.0441686999999997
-18.53156,-5.06973,-2.0441686999999997
-18.53156,-5.06973,-2.0441686999999997
3.2601378,-19.594337,18.273048
3.2601378,-19.594337,18.273048
3.2601378,-19.594337,18.273048
19.594337,-19.584763,7.329325999999999
19.594337,-19.584763,7.329325999999999
19.594337,-19.584763,7.329325999999999
19.594337,-19.584763,7.329325999999999
19.594337,-19.584763,7.329325999999999
19.489017,2.494173,-16.338987
19.489017,2.494173,-16.338987
19.489017,2.494173,-16.338987
19.489017,2.494173,-16.338987
18.560285999999998,19.603912,-19.603912
18.560285999999998,19.603912,-19.603912
18.560285999999998,19.603912,-19.603912
18.560285999999998,19.603912,-19.603912
19.594337,0.8760723,-14.050668
19.594337,0.8760723,-14.050668
19.594337,0.8760723,-14.050668
19.594337,0.8760723,-14.050668
19.53689,-19.594337,14.87408
19.53689,-19.594337,14.87408
19.53689,-19.594337,14.87408
19.53689,-19.594337,14.87408
1.5367169,-17.621979,7.2240057
1.5367169,-17.621979,7.2240057
1.5367169,-17.621979,7.2240057
1.5367169,-17.621979,7.2240057
-19.603912,-12.212352000000001,-7.961247
-19.603912,-12.212352000000001,-7.961247
-19.603912,-12.212352000000001,-7.961247
-19.603912,-12.212352000000001,-7.961247
-11.178299,-19.144333,6.5633610000000004
-11.178299,-19.144333,6.5633610000000004
-11.178299,-19.144333,6.5633610000000004
-11.178299,-19.144333,6.5633610000000004
19.048588,-19.594337,16.61665
19.048588,-19.594337,16.61665
19.048588,-19.594337,16.61665
19.048588,-19.594337,16.61665
19.594337,-13.600663,-8.688913000000001
19.594337,-13.600663,-8.688913000000001
19.594337,-13.600663,-8.688913000000001
19.594337,-13.600663,-8.688913000000001
19.106035000000002,18.713478,-19.603912
19.106035000000002,18.713478,-19.603912
19.106035000000002,18.713478,-19.603912
19.106035000000002,18.713478,-19.603912
19.259228,13.418745999999999,-16.97091
19.259228,13.418745999999999,-16.97091
19.259228,13.418745999999999,-16.97091
19.259228,13.418745999999999,-16.97091
19.594337,-19.594337,12.480439
19.594337,-19.594337,12.480439
19.594337,-19.594337,12.480439
19.594337,-19.594337,12.480439
8.861256,-19.125185000000002,14.53897
8.861256,-19.125185000000002,14.53897
8.861256,-19.125185000000002,14.53897
8.861256,-19.125185000000002,14.53897
-18.311346,-3.2409887000000004,-6.400593799999999
-18.311346,-3.2409887000000004,-6.400593799999999
-18.311346,-3.2409887000000004,-6.400593799999999
-18.311346,-3.2409887000000004,-6.400593799999999
-19.603912,-3.5378,-2.6090677
-19.603912,-3.5378,-2.6090677
-19.603912,-3.5378,-2.6090677
-19.603912,-3.5378,-2.6090677
-3.7580150000000003,-19.594337,18.732628
-3.7580150000000003,-19.594337,18.732628
-3.7580150000000003,-19.594337,18.732628
-3.7580150000000003,-19.594337,18.732628
19.594337,-19.594337,13.629387
19.594337,-19.594337,13.629387
19.594337,-19.594337,13.629387
19.594337,-19.594337,13.629387
19.594337,-2.2643836,-16.654947
19.594337,-2.2643836,-16.654947
19.594337,-2.2643836,-16.654947
19.594337,-2.2643836,-16.654947
16.118773,19.603912,-19.603912
16.118773,19.603912,-19.603912
16.118773,19.603912,-19.603912
16.118773,19.603912,-19.603912
19.594337,-0.751603,-11.111278
19.594337,-0.751603,-11.111278
19.594337,-0.751603,-11.111278
19.594337,-0.751603,-11.111278
18.943268,-19.594337,18.924118
18.943268,-19.594337,18.924118
18.943268,-19.594337,18.924118
18.943268,-19.594337,18.924118
-2.0728923999999997,-13.074062,9.531475
-2.0728923999999997,-13.074062,9.531475
-2.0728923999999997,-13.074062,9.531475
-2.0728923999999997,-13.074062,9.531475
-2.0728923999999997,-13.074062,9.531475
-19.603912,0.110107444,-7.788905000000001
-19.603912,0.110107444,-7.788905000000001
-19.603912,0.110107444,-7.788905000000001
-17.909216,-13.562365,2.8771553
-17.909216,-13.562365,2.8771553
-17.909216,-13.562365,2.8771553
-17.909216,-13.562365,2.8771553
10.910212,-19.594337,19.594337
10.910212,-19.594337,19.594337
10.910212,-19.594337,19.594337
10.910212,-19.594337,19.594337
19.594337,-17.191124,0.61755913
19.594337,-17.191124,0.61755913
19.594337,-17.191124,0.61755913
19.594337,-17.191124,0.61755913
19.163483,13.571939000000002,-16.942184
19.163483,13.571939000000002,-16.942184
19.163483,13.571939000000002,-16.942184
19.163483,13.571939000000002,-16.942184
16.607075,19.603912,-16.348562
16.607075,19.603912,-16.348562
16.607075,19.603912,-16.348562
16.607075,19.603912,-16.348562
19.594337,-9.904882,-2.5994933
19.594337,-9.904882,-2.5994933
19.594337,-9.904882,-2.5994933
19.594337,-9.904882,-2.5994933
17.861342999999998,-19.594337,15.850685
17.861342999999998,-19.594337,15.850685
17.861342999999998,-19.594337,15.850685
17.861342999999998,-19.594337,15.850685
-10.383611,-5.49101,1.4505458999999998
-10.383611,-5.49101,1.4505458999999998
-10.383611,-5.49101,1.4505458999999998
-10.383611,-5.49101,1.4505458999999998
-19.603912,4.466532,-7.35805
-19.603912,4.466532,-7.35805
-19.603912,4.466532,-7.35805
-19.603912,4.466532,-7.35805
-19.603912,4.466532,-7.35805
-15.888982999999998,-15.898558,3.9016335
-15.888982999999998,-15.898558,3.9016335
-15.888982999999998,-15.898558,3.9016335
13.945347,-19.594337,19.594337
13.945347,-19.594337,19.594337
13.945347,-19.594337,19.594337
13.945347,-19.594337,19.594337
19.594337,-16.128347,0.78032666
19.594337,-16.128347,0.78032666
19.594337,-16.128347,0.78032666
19.594337,-16.128347,0.78032666
19.594337,-16.128347,0.78032666
18.589008,13.705982999999998,-18.857098
18.589008,13.705982999999998,-18.857098
18.589008,13.705982999999998,-18.857098
15.831535,19.603912,-17.238997
15.831535,19.603912,-17.238997
15.831535,19.603912,-17.238997
15.831535,19.603912,-17.238997
15.831535,19.603912,-17.238997
19.594337,-14.586843,2.6952388
19.594337,-14.586843,2.6952388
19.594337,-14.586843,2.6952388
16.444307000000002,-19.594337,16.023027
16.444307000000002,-19.594337,16.023027
16.444307000000002,-19.594337,16.023027
16.444307000000002,-19.594337,16.023027
-10.058076,-8.506997,-1.8335283
-10.058076,-8.506997,-1.8335283
-10.058076,-8.506997,-1.8335283
-10.058076,-8.506997,-1.8335283
-19.603912,2.2260852000000004,-10.364462
-19.603912,2.2260852000000004,-10.364462
-19.603912,2.2260852000000004,-10.364462
-19.603912,2.2260852000000004,-10.364462
-14.66344,-15.793238,7.070812700000001
-14.66344,-15.793238,7.070812700000001
-14.66344,-15.793238,7.070812700000001
-14.66344,-15.793238,7.070812700000001
16.827289999999998,-19.594337,19.594337
16.827289999999998,-19.594337,19.594337
16.827289999999998,-19.594337,19.594337
16.827289999999998,-19.594337,19.594337
19.594337,-11.618729,-1.5941644
19.594337,-11.618729,-1.5941644
19.594337,-11.618729,-1.5941644
19.594337,-11.618729,-1.5941644
19.594337,-11.618729,-1.5941644
17.765596,16.923035000000002,-16.05175
17.765596,16.923035000000002,-16.05175
17.765596,16.923035000000002,-16.05175
17.353891,17.334742000000002,-16.693247
17.353891,17.334742000000002,-16.693247
17.353891,17.334742000000002,-16.693247
17.353891,17.334742000000002,-16.693247
19.594337,-17.957088,-1.0388398
19.594337,-17.957088,-1.0388398
19.594337,-17.957088,-1.0388398
19.594337,-17.957088,-1.0388398
17.535807000000002,-19.594337,7.654861
17.535807000000002,-19.594337,7.654861
17.535807000000002,-19.594337,7.654861
17.535807000000002,-19.594337,7.654861
-8.813383,-14.740035999999998,-0.2920241
-8.813383,-14.740035999999998,-0.2920241
-8.813383,-14.740035999999998,-0.2920241
-8.813383,-14.740035999999998,-0.2920241
-19.603912,-7.377198700000001,1.0675635
-19.603912,-7.377198700000001,1.0675635
-19.603912,-7.377198700000001,1.0675635
-19.603912,-7.377198700000001,1.0675635
-7.0995364,-19.594337,11.637878
-7.0995364,-19.594337,11.637878
-7.0995364,-19.594337,11.637878
-7.0995364,-19.594337,11.637878
18.7805,-19.594337,16.808142
18.7805,-19.594337,16.808142
18.7805,-19.594337,16.808142
18.7805,-19.594337,16.808142
19.594337,-10.709146,-6.3431463
19.594337,-10.709146,-6.3431463
19.594337,-10.709146,-6.3431463
19.594337,-10.709146,-6.3431463
17.37304,18.876245,-14.376203
17.37304,18.876245,-14.376203
17.37304,18.876245,-14.376203
17.37304,18.876245,-14.376203
17.37304,18.876245,-14.376203
17.593254,15.257062,-12.097457
17.593254,15.257062,-12.097457
17.593254,15.257062,-12.097457
19.594337,-19.594337,1.862252
19.594337,-19.594337,1.862252
19.594337,-19.594337,1.862252
19.594337,-19.594337,1.862252
11.781497,-19.594337,4.619725
11.781497,-19.594337,4.619725
11.781497,-19.594337,4.619725
11.781497,-19.594337,4.619725
11.781497,-19.594337,4.619725
-13.255979,-7.664436,-3.4037561000000003
-13.255979,-7.664436,-3.4037561000000003
-13.255979,-7.664436,-3.4037561000000003
-19.603912,-0.63670826,-1.2686293
-19.603912,-0.63670826,-1.2686293
-19.603912,-0.63670826,-1.2686293
-19.603912,-0.63670826,-1.2686293
-19.603912,-0.63670826,-1.2686293
-13.227255,-18.723053,2.0920415
-13.227255,-18.723053,2.0920415
-13.227255,-18.723053,2.0920415
-13.227255,-18.723053,2.0920415
15.438979000000002,-19.594337,13.533641000000001
15.438979000000002,-19.594337,13.533641000000001
15.438979000000002,-19.594337,13.533641000000001
19.594337,-13.658110999999998,-6.0080366
19.594337,-13.658110999999998,-6.0080366
19.594337,-13.658110999999998,-6.0080366
19.594337,-13.658110999999998,-6.0080366
19.594337,-13.658110999999998,-6.0080366
18.44539,15.391106,-12.968742
18.44539,15.391106,-12.968742
18.44539,15.391106,-12.968742
18.44539,15.391106,-12.968742
15.544298999999999,19.163483,-10.661273
15.544298999999999,19.163483,-10.661273
15.544298999999999,19.163483,-10.661273
15.544298999999999,19.163483,-10.661273
19.594337,-14.20386,-3.3558834
19.594337,-14.20386,-3.3558834
19.594337,-14.20386,-3.3558834
19.594337,-14.20386,-3.3558834
17.708149,-19.594337,8.66019
17.708149,-19.594337,8.66019
17.708149,-19.594337,8.66019
17.708149,-19.594337,8.66019
-2.9537517999999996,-11.72405,2.5228968
-2.9537517999999996,-11.72405,2.5228968
-2.9537517999999996,-11.72405,2.5228968
-2.9537517999999996,-11.72405,2.5228968
-19.603912,1.2782038,-4.0356774
-19.603912,1.2782038,-4.0356774
-19.603912,1.2782038,-4.0356774
-19.603912,1.2782038,-4.0356774
-17.937939,-13.323001000000001,-2.0728923999999997
-17.937939,-13.323001000000001,-2.0728923999999997
-17.937939,-13.323001000000001,-2.0728923999999997
-17.937939,-13.323001000000001,-2.0728923999999997
8.870830999999999,-19.594337,15.391106
8.870830999999999,-19.594337,15.391106
8.870830999999999,-19.594337,15.391106
8.870830999999999,-19.594337,15.391106
19.594337,-16.137922,1.469695
19.594337,-16.137922,1.469695
19.594337,-16.137922,1.469695
19.594337,-16.137922,1.469695
19.249653,10.642124,-10.699572
19.249653,10.642124,-10.699572
19.249653,10.642124,-10.699572
19.249653,10.642124,-10.699572
13.418745999999999,19.603912,-8.497422
13.418745999999999,19.603912,-8.497422
13.418745999999999,19.603912,-8.497422
13.418745999999999,19.603912,-8.497422
19.594337,-13.543216000000001,-2.867581
19.594337,-13.543216000000001,-2.867581
19.594337,-13.543216000000001,-2.867581
19.594337,-13.543216000000001,-2.867581
17.621979,-19.594337,9.263388
17.621979,-19.594337,9.263388
17.621979,-19.594337,9.263388
17.621979,-19.594337,9.263388
1.6324625,-15.821960999999998,4.409085299999999
1.6324625,-15.821960999999998,4.409085299999999
1.6324625,-15.821960999999998,4.409085299999999
1.6324625,-15.821960999999998,4.409085299999999
1.6324625,-15.821960999999998,4.409085299999999
1.6324625,-15.821960999999998,4.409085299999999
1.6324625,-15.821960999999998,4.409085299999999
-18.512413000000002,-11.580430999999999,1.7377827000000001
-18.512413000000002,-11.580430999999999,1.7377827000000001
-18.512413000000002,-11.580430999999999,1.7377827000000001
-18.512413000000002,-11.580430999999999,1.7377827000000001
0.76117754,-19.594337,15.419829
0.76117754,-19.594337,15.419829
0.76117754,-19.594337,15.419829
0.76117754,-19.594337,15.419829
0.76117754,-19.594337,15.419829
19.594337,-18.014536,3.8920587999999996
19.594337,-18.014536,3.8920587999999996
19.594337,-18.014536,3.8920587999999996
19.565615,5.088879,-16.482605
19.565615,5.088879,-16.482605
19.565615,5.088879,-16.482605
19.565615,5.088879,-16.482605
19.565615,5.088879,-16.482605
14.146413,19.603912,-10.326163000000001
14.146413,19.603912,-10.326163000000001
14.146413,19.603912,-10.326163000000001
14.146413,19.603912,-10.326163000000001
19.594337,-10.077225,-7.8846507
19.594337,-10.077225,-7.8846507
19.594337,-10.077225,-7.8846507
17.947514,-19.594337,11.446387
17.947514,-19.594337,11.446387
17.947514,-19.594337,11.446387
17.947514,-19.594337,11.446387
17.947514,-19.594337,11.446387
-1.6994845,-10.814466,3.3941817000000003
-1.6994845,-10.814466,3.3941817000000003
-1.6994845,-10.814466,3.3941817000000003
-1.6994845,-10.814466,3.3941817000000003
-19.268803,0.69415563,-6.6878304
-19.268803,0.69415563,-6.6878304
-19.268803,0.69415563,-6.6878304
-19.268803,0.69415563,-6.6878304
-19.374123,-7.252729400000001,-5.9218655
-19.374123,-7.252729400000001,-5.9218655
-19.374123,-7.252729400000001,-5.9218655
-19.374123,-7.252729400000001,-5.9218655
-1.4984187,-19.594337,13.447470000000001
-1.4984187,-19.594337,13.447470000000001
-1.4984187,-19.594337,13.447470000000001
-1.4984187,-19.594337,13.447470000000001
19.594337,-19.565615,11.312344
19.594337,-19.565615,11.312344
19.594337,-19.565615,11.312344
19.594337,-19.565615,11.312344
19.173057999999997,2.2069361,-10.833615
19.173057999999997,2.2069361,-10.833615
19.173057999999997,2.2069361,-10.833615
19.173057999999997,2.2069361,-10.833615
16.990057,19.603912,-14.864505
16.990057,19.603912,-14.864505
16.990057,19.603912,-14.864505
16.990057,19.603912,-14.864505
19.546464999999998,-5.500585,-13.820878
19.546464999999998,-5.500585,-13.820878
19.546464999999998,-5.500585,-13.820878
19.546464999999998,-5.500585,-13.820878
19.211354999999998,-19.594337,6.544212
19.211354999999998,-19.594337,6.544212
19.211354999999998,-19.594337,6.544212
19.211354999999998,-19.594337,6.544212
1.7282081999999999,-13.399597,2.4463003
1.7282081999999999,-13.399597,2.4463003
1.7282081999999999,-13.399597,2.4463003
1.7282081999999999,-13.399597,2.4463003
-16.93261,-12.968742,2.360129
-16.93261,-12.968742,2.360129
-16.93261,-12.968742,2.360129
-16.93261,-12.968742,2.360129
-19.32625,-18.196451,4.7441945
-19.32625,-18.196451,4.7441945
-19.32625,-18.196451,4.7441945
-19.32625,-18.196451,4.7441945
1.1728836,-19.594337,9.6942425
1.1728836,-19.594337,9.6942425
1.1728836,-19.594337,9.6942425
1.1728836,-19.594337,9.6942425
19.594337,-18.991139999999998,1.1728836
19.594337,-18.991139999999998,1.1728836
19.594337,-18.991139999999998,1.1728836
19.594337,-18.991139999999998,1.1728836
19.57519,2.7622607000000006,-15.132593
19.57519,2.7622607000000006,-15.132593
19.57519,2.7622607000000006,-15.132593
19.57519,2.7622607000000006,-15.132593
13.868751000000001,19.603912,-12.221927
13.868751000000001,19.603912,-12.221927
13.868751000000001,19.603912,-12.221927
13.868751000000001,19.603912,-12.221927
19.594337,3.518651,-9.617646
19.594337,3.518651,-9.617646
19.594337,3.518651,-9.617646
19.594337,3.518651,-9.617646
19.594337,-19.594337,8.593167999999999
19.594337,-19.594337,8.593167999999999
19.594337,-19.594337,8.593167999999999
19.594337,-19.594337,8.593167999999999
10.239991999999999,-17.717724,4.1792955
10.239991999999999,-17.717724,4.1792955
10.239991999999999,-17.717724,4.1792955
10.239991999999999,-17.717724,4.1792955
-15.113443,-2.5994933,-1.7186337
-15.113443,-2.5994933,-1.7186337
-15.113443,-2.5994933,-1.7186337
-15.113443,-2.5994933,-1.7186337
-16.836864000000002,-1.6611862000000002,-2.6569404999999997
-16.836864000000002,-1.6611862000000002,-2.6569404999999997
-16.836864000000002,-1.6611862000000002,-2.6569404999999997
-16.836864000000002,-1.6611862000000002,-2.6569404999999997
-16.6358,-18.435816,-2.6090677
-16.6358,-18.435816,-2.6090677
-16.6358,-18.435816,-2.6090677
-16.6358,-18.435816,-2.6090677
10.958084,-19.594337,12.5474615
10.958084,-19.594337,12.5474615
10.958084,-19.594337,12.5474615
10.958084,-19.594337,12.5474615
19.594337,-15.333657999999998,2.905879
19.594337,-15.333657999999998,2.905879
19.594337,-15.333657999999998,2.905879
19.594337,-15.333657999999998,2.905879
18.177303,7.348475,-11.7336235
18.177303,7.348475,-11.7336235
18.177303,7.348475,-11.7336235
18.177303,7.348475,-11.7336235
8.411251,19.603912,-8.928278
8.411251,19.603912,-8.928278
8.411251,19.603912,-8.928278
8.411251,19.603912,-8.928278
19.594337,0.7324539000000001,-6.936769
19.594337,0.7324539000000001,-6.936769
19.594337,0.7324539000000001,-6.936769
19.594337,0.7324539000000001,-6.936769
19.594337,-19.594337,8.966576
19.594337,-19.594337,8.966576
19.594337,-19.594337,8.966576
19.594337,-19.594337,8.966576
5.567607,-14.366628,5.242071599999999
5.567607,-14.366628,5.242071599999999
5.567607,-14.366628,5.242071599999999
5.567607,-14.366628,5.242071599999999
5.567607,-14.366628,5.242071599999999
-17.248571,0.4164934,-1.8526775000000002
-17.248571,0.4164934,-1.8526775000000002
-17.248571,0.4164934,-1.8526775000000002
-19.106035000000002,0.062234644000000006,-3.5856729
-19.106035000000002,0.062234644000000006,-3.5856729
-19.106035000000002,0.062234644000000006,-3.5856729
-19.106035000000002,0.062234644000000006,-3.5856729
-14.194285,-17.880491,1.5079931999999998
-14.194285,-17.880491,1.5079931999999998
-14.194285,-17.880491,1.5079931999999998
-14.194285,-17.880491,1.5079931999999998
-14.194285,-17.880491,1.5079931999999998
17.487934,-19.594337,16.444307000000002
17.487934,-19.594337,16.444307000000002
17.487934,-19.594337,16.444307000000002
19.594337,-11.082554,-5.941015
19.594337,-11.082554,-5.941015
19.594337,-11.082554,-5.941015
19.594337,-11.082554,-5.941015
19.594337,-11.082554,-5.941015
15.774088,19.603912,-11.522984
15.774088,19.603912,-11.522984
15.774088,19.603912,-11.522984
15.774088,19.603912,-11.522984
13.705982999999998,17.564531,-11.570856
13.705982999999998,17.564531,-11.570856
13.705982999999998,17.564531,-11.570856
19.594337,-15.649619,1.7569318999999999
19.594337,-15.649619,1.7569318999999999
19.594337,-15.649619,1.7569318999999999
19.594337,-15.649619,1.7569318999999999
19.594337,-15.649619,1.7569318999999999
15.697492,-19.594337,10.019777000000001
15.697492,-19.594337,10.019777000000001
15.697492,-19.594337,10.019777000000001
15.697492,-19.594337,10.019777000000001
-6.697405000000001,-4.96441,2.9633265
-6.697405000000001,-4.96441,2.9633265
-6.697405000000001,-4.96441,2.9633265
-6.697405000000001,-4.96441,2.9633265
-19.3454,5.739949,-2.0728923999999997
-19.3454,5.739949,-2.0728923999999997
-19.3454,5.739949,-2.0728923999999997
-19.3454,5.739949,-2.0728923999999997
-19.460295000000002,-5.146326,-1.9196993000000002
-19.460295000000002,-5.146326,-1.9196993000000002
-19.460295000000002,-5.146326,-1.9196993000000002
-19.460295000000002,-5.146326,-1.9196993000000002
0.33032233,-19.594337,11.810221
0.33032233,-19.594337,11.810221
0.33032233,-19.594337,11.810221
0.33032233,-19.594337,11.810221
19.594337,-18.627308,8.870830999999999
19.594337,-18.627308,8.870830999999999
19.594337,-18.627308,8.870830999999999
19.594337,-18.627308,8.870830999999999
17.258144,0.3398969,-9.339984
17.258144,0.3398969,-9.339984
17.258144,0.3398969,-9.339984
17.258144,0.3398969,-9.339984
14.30918,19.603912,-9.024023
14.30918,19.603912,-9.024023
14.30918,19.603912,-9.024023
14.30918,19.603912,-9.024023
19.010289999999998,6.8793216,-9.129342999999999
19.010289999999998,6.8793216,-9.129342999999999
19.010289999999998,6.8793216,-9.129342999999999
19.010289999999998,6.8793216,-9.129342999999999
19.594337,-19.594337,6.505913700000001
19.594337,-19.594337,6.505913700000001
19.594337,-19.594337,6.505913700000001
19.594337,-19.594337,6.505913700000001
8.420826,-17.26772,5.912291000000001
8.420826,-17.26772,5.912291000000001
8.420826,-17.26772,5.912291000000001
8.420826,-17.26772,5.912291000000001
-17.890066,2.2069361,-2.2643836
-17.890066,2.2069361,-2.2643836
-17.890066,2.2069361,-2.2643836
-17.890066,2.2069361,-2.2643836
-19.603912,2.9920502,-3.8346114
-19.603912,2.9920502,-3.8346114
-19.603912,2.9920502,-3.8346114
-19.603912,2.9920502,-3.8346114
-4.926111,-19.594337,7.463369999999999
-4.926111,-19.594337,7.463369999999999
-4.926111,-19.594337,7.463369999999999
-4.926111,-19.594337,7.463369999999999
19.594337,-19.594337,16.128347
19.594337,-19.594337,16.128347
19.594337,-19.594337,16.128347
19.594337,-19.594337,16.128347
19.594337,-7.2335806,-9.397431
19.594337,-7.2335806,-9.397431
19.594337,-7.2335806,-9.397431
19.594337,-7.2335806,-9.397431
14.318755,19.603912,-15.008123000000001
14.318755,19.603912,-15.008123000000001
14.318755,19.603912,-15.008123000000001
14.318755,19.603912,-15.008123000000001
16.540052,16.147495000000003,-13.610238
16.540052,16.147495000000003,-13.610238
16.540052,16.147495000000003,-13.610238
16.540052,16.147495000000003,-13.610238
19.594337,-19.594337,6.323997
19.594337,-19.594337,6.323997
19.594337,-19.594337,6.323997
19.594337,-19.594337,6.323997
14.835780999999999,-19.489017,10.460207
14.835780999999999,-19.489017,10.460207
14.835780999999999,-19.489017,10.460207
14.835780999999999,-19.489017,10.460207
-12.7964,-3.193116,1.5367169
-12.7964,-3.193116,1.5367169
-12.7964,-3.193116,1.5367169
-12.7964,-3.193116,1.5367169
-16.185795000000002,1.3069274,-1.8814011999999998
-16.185795000000002,1.3069274,-1.8814011999999998
-16.185795000000002,1.3069274,-1.8814011999999998
-16.185795000000002,1.3069274,-1.8814011999999998
-14.347479000000002,-16.712395,-6.314422599999999
-14.347479000000002,-16.712395,-6.314422599999999
-14.347479000000002,-16.712395,-6.314422599999999
-14.347479000000002,-16.712395,-6.314422599999999
6.7931504,-19.594337,10.316589
6.7931504,-19.594337,10.316589
6.7931504,-19.594337,10.316589
6.7931504,-19.594337,10.316589
19.594337,-17.784746,11.034680999999999
19.594337,-17.784746,11.034680999999999
19.594337,-17.784746,11.034680999999999
19.594337,-17.784746,11.034680999999999
19.508167,1.4122477,-4.0739756
19.508167,1.4122477,-4.0739756
19.508167,1.4122477,-4.0739756
19.508167,1.4122477,-4.0739756
11.666602000000001,19.603912,-19.603912
11.666602000000001,19.603912,-19.603912
11.666602000000001,19.603912,-19.603912
11.666602000000001,19.603912,-19.603912
18.694329999999997,8.784659,-15.103869
18.694329999999997,8.784659,-15.103869
18.694329999999997,8.784659,-15.103869
18.694329999999997,8.784659,-15.103869
19.594337,-19.594337,8.286782
19.594337,-19.594337,8.286782
19.594337,-19.594337,8.286782
19.594337,-19.594337,8.286782
19.594337,-19.594337,8.286782
4.0356774,-14.548545,7.741032000000001
4.0356774,-14.548545,7.741032000000001
4.0356774,-14.548545,7.741032000000001
-18.244326,-5.7016506,-9.119769
-18.244326,-5.7016506,-9.119769
-18.244326,-5.7016506,-9.119769
-18.244326,-5.7016506,-9.119769
-18.225176,-10.163396,-7.2623043
-18.225176,-10.163396,-7.2623043
-18.225176,-10.163396,-7.2623043
-18.225176,-10.163396,-7.2623043
-18.225176,-10.163396,-7.2623043
-9.2825365,-18.474113,5.5963306
-9.2825365,-18.474113,5.5963306
-9.2825365,-18.474113,5.5963306
18.79965,-19.594337,18.330496
18.79965,-19.594337,18.330496
18.79965,-19.594337,18.330496
18.79965,-19.594337,18.330496
18.79965,-19.594337,18.330496
19.594337,-12.67193,-2.2356597999999996
19.594337,-12.67193,-2.2356597999999996
19.594337,-12.67193,-2.2356597999999996
14.452798999999999,16.84644,-18.818798
14.452798999999999,16.84644,-18.818798
14.452798999999999,16.84644,-18.818798
14.452798999999999,16.84644,-18.818798
13.7730055,19.603912,-17.545382
13.7730055,19.603912,-17.545382
13.7730055,19.603912,-17.545382
13.7730055,19.603912,-17.545382
13.7730055,19.603912,-17.545382
19.594337,-12.126180999999999,-4.4952559999999995
19.594337,-12.126180999999999,-4.4952559999999995
19.594337,-12.126180999999999,-4.4952559999999995
17.679426,-19.594337,5.8261199999999995
17.679426,-19.594337,5.8261199999999995
17.679426,-19.594337,5.8261199999999995
17.679426,-19.594337,5.8261199999999995
17.679426,-19.594337,5.8261199999999995
-7.156984,-8.602742,4.150572
-7.156984,-8.602742,4.150572
-7.156984,-8.602742,4.150572
-7.156984,-8.602742,4.150572
-17.507084,-5.9027166,1.9962958
-17.507084,-5.9027166,1.9962958
-17.507084,-5.9027166,1.9962958
-13.457045,-14.615566000000001,-1.1633091
-13.457045,-14.615566000000001,-1.1633091
-13.457045,-14.615566000000001,-1.1633091
-13.457045,-14.615566000000001,-1.1633091
-13.457045,-14.615566000000001,-1.1633091
3.8537605000000004,-19.594337,6.429317500000001
3.8537605000000004,-19.594337,6.429317500000001
3.8537605000000004,-19.594337,6.429317500000001
3.8537605000000004,-19.594337,6.429317500000001
19.594337,-18.933692999999998,8.803808
19.594337,-18.933692999999998,8.803808
19.594337,-18.933692999999998,8.803808
19.594337,-18.933692999999998,8.803808
19.594337,-3.0016246,-5.8548436
19.594337,-3.0016246,-5.8548436
19.594337,-3.0016246,-5.8548436
19.594337,-3.0016246,-5.8548436
12.987891000000001,19.603912,-16.578352
12.987891000000001,19.603912,-16.578352
12.987891000000001,19.603912,-16.578352
12.987891000000001,19.603912,-16.578352
18.847523000000002,12.126180999999999,-16.338987
18.847523000000002,12.126180999999999,-16.338987
18.847523000000002,12.126180999999999,-16.338987
18.847523000000002,12.126180999999999,-16.338987
19.594337,-19.594337,4.7250457
19.594337,-19.594337,4.7250457
19.594337,-19.594337,4.7250457
19.594337,-19.594337,4.7250457
7.1091112999999995,-14.902803,7.2240057
7.1091112999999995,-14.902803,7.2240057
7.1091112999999995,-14.902803,7.2240057
7.1091112999999995,-14.902803,7.2240057
-18.46454,-4.5144053,-0.05266008
-18.46454,-4.5144053,-0.05266008
-18.46454,-4.5144053,-0.05266008
-18.46454,-4.5144053,-0.05266008
-16.884737,-9.148492999999998,-4.763344
-16.884737,-9.148492999999998,-4.763344
-16.884737,-9.148492999999998,-4.763344
-16.884737,-9.148492999999998,-4.763344
-1.3069274,-19.594337,0.014361841
-1.3069274,-19.594337,0.014361841
-1.3069274,-19.594337,0.014361841
-1.3069274,-19.594337,0.014361841
19.594337,-19.594337,9.64637
19.594337,-19.594337,9.64637
19.594337,-19.594337,9.64637
19.594337,-19.594337,9.64637
19.594337,-12.202777000000001,-7.252729400000001
19.594337,-12.202777000000001,-7.252729400000001
19.594337,-12.202777000000001,-7.252729400000001
19.594337,-12.202777000000001,-7.252729400000001
13.457045,19.3071,-13.830453
13.457045,19.3071,-13.830453
13.457045,19.3071,-13.830453
13.457045,19.3071,-13.830453
13.457045,18.043259,-10.71872
13.457045,18.043259,-10.71872
13.457045,18.043259,-10.71872
13.457045,18.043259,-10.71872
19.594337,-18.598582999999998,0.93351966
19.594337,-18.598582999999998,0.93351966
19.594337,-18.598582999999998,0.93351966
19.594337,-18.598582999999998,0.93351966
16.023027,-19.594337,-2.4845984
16.023027,-19.594337,-2.4845984
16.023027,-19.594337,-2.4845984
16.023027,-19.594337,-2.4845984
-10.077225,-14.270883,-4.715471
-10.077225,-14.270883,-4.715471
-10.077225,-14.270883,-4.715471
-10.077225,-14.270883,-4.715471
-19.603912,-12.67193,-5.309094
-19.603912,-12.67193,-5.309094
-19.603912,-12.67193,-5.309094
-19.603912,-12.67193,-5.309094
-12.212352000000001,-19.3071,1.5941644
-12.212352000000001,-19.3071,1.5941644
-12.212352000000001,-19.3071,1.5941644
-12.212352000000001,-19.3071,1.5941644
14.625141000000001,-19.594337,13.524067
14.625141000000001,-19.594337,13.524067
14.625141000000001,-19.594337,13.524067
14.625141000000001,-19.594337,13.524067
19.594337,-16.109198000000003,0.93351966
19.594337,-16.109198000000003,0.93351966
19.594337,-16.109198000000003,0.93351966
19.594337,-16.109198000000003,0.93351966
19.3071,9.971905,-14.031518
19.3071,9.971905,-14.031518
19.3071,9.971905,-14.031518
19.3071,9.971905,-14.031518
12.595334,19.603912,-17.03793
12.595334,19.603912,-17.03793
12.595334,19.603912,-17.03793
12.595334,19.603912,-17.03793
19.594337,-11.666602000000001,-1.383524
19.594337,-11.666602000000001,-1.383524
19.594337,-11.666602000000001,-1.383524
19.594337,-11.666602000000001,-1.383524
16.674097,-19.594337,9.349558
16.674097,-19.594337,9.349558
16.674097,-19.594337,9.349558
16.674097,-19.594337,9.349558
-11.72405,-6.2952733,3.844186
-11.72405,-6.2952733,3.844186
-11.72405,-6.2952733,3.844186
-11.72405,-6.2952733,3.844186
-15.151742,6.5729356,-3.8058877
-15.151742,6.5729356,-3.8058877
-15.151742,6.5729356,-3.8058877
-15.151742,6.5729356,-3.8058877
-8.976150500000001,-4.275041000000001,-3.059072
-8.976150500000001,-4.275041000000001,-3.059072
-8.976150500000001,-4.275041000000001,-3.059072
-8.976150500000001,-4.275041000000001,-3.059072
11.647452000000001,-19.594337,10.163396
11.647452000000001,-19.594337,10.163396
11.647452000000001,-19.594337,10.163396
11.647452000000001,-19.594337,10.163396
11.647452000000001,-19.594337,10.163396
19.594337,-19.565615,8.851681
19.594337,-19.565615,8.851681
19.594337,-19.565615,8.851681
19.173057999999997,-5.529309,-4.772918
19.173057999999997,-5.529309,-4.772918
19.173057999999997,-5.529309,-4.772918
19.173057999999997,-5.529309,-4.772918
13.23683,18.732628,-11.7049
13.23683,18.732628,-11.7049
13.23683,18.732628,-11.7049
13.23683,18.732628,-11.7049
13.23683,18.732628,-11.7049
12.260224000000001,18.732628,-10.536804
12.260224000000001,18.732628,-10.536804
12.260224000000001,18.732628,-10.536804
19.594337,-12.059159,0.8664976999999999
19.594337,-12.059159,0.8664976999999999
19.594337,-12.059159,0.8664976999999999
19.594337,-12.059159,0.8664976999999999
19.594337,-12.059159,0.8664976999999999
16.664522,-19.594337,8.765511
16.664522,-19.594337,8.765511
16.664522,-19.594337,8.765511
16.664522,-19.594337,8.765511
-8.200611,-5.9697385,-2.1590632999999997
-8.200611,-5.9697385,-2.1590632999999997
-8.200611,-5.9697385,-2.1590632999999997
-15.9177065,1.6324625,-1.3548003
-15.9177065,1.6324625,-1.3548003
-15.9177065,1.6324625,-1.3548003
-15.9177065,1.6324625,-1.3548003
-15.9177065,1.6324625,-1.3548003
-17.449635999999998,-3.6814184,-0.43564250000000004
-17.449635999999998,-3.6814184,-0.43564250000000004
-17.449635999999998,-3.6814184,-0.43564250000000004
-17.449635999999998,-3.6814184,-0.43564250000000004
1.7952299999999999,-19.594337,12.413418
1.7952299999999999,-19.594337,12.413418
1.7952299999999999,-19.594337,12.413418
1.7952299999999999,-19.594337,12.413418
19.594337,-19.354975,6.2665496
19.594337,-19.354975,6.2665496
19.594337,-19.354975,6.2665496
19.594337,-19.354975,6.2665496
19.57519,-0.63670826,-9.598496
19.57519,-0.63670826,-9.598496
19.57519,-0.63670826,-9.598496
9.493176,19.603912,-11.446387
9.493176,19.603912,-11.446387
9.493176,19.603912,-11.446387
9.493176,19.603912,-11.446387
9.493176,19.603912,-11.446387
16.492179999999998,16.999632000000002,-10.354887
16.492179999999998,16.999632000000002,-10.354887
16.492179999999998,16.999632000000002,-10.354887
19.594337,-17.851768,0.44521707
19.594337,-17.851768,0.44521707
19.594337,-17.851768,0.44521707
19.594337,-17.851768,0.44521707
19.594337,-17.851768,0.44521707
16.128347,-19.594337,4.543129
16.128347,-19.594337,4.543129
16.128347,-19.594337,4.543129
16.128347,-19.594337,4.543129
-10.5080805,-10.670848,1.3069274
-10.5080805,-10.670848,1.3069274
-10.5080805,-10.670848,1.3069274
-19.603912,-7.463369999999999,-0.61755913
-19.603912,-7.463369999999999,-0.61755913
-19.603912,-7.463369999999999,-0.61755913
-19.603912,-7.463369999999999,-0.61755913
-19.603912,-7.463369999999999,-0.61755913
-12.25065,-17.344316,2.7909843999999997
-12.25065,-17.344316,2.7909843999999997
-12.25065,-17.344316,2.7909843999999997
-12.25065,-17.344316,2.7909843999999997
13.390023000000001,-19.594337,15.381532
13.390023000000001,-19.594337,15.381532
13.390023000000001,-19.594337,15.381532
13.390023000000001,-19.594337,15.381532
19.594337,-16.26239,2.3122563
19.594337,-16.26239,2.3122563
19.594337,-16.26239,2.3122563
19.594337,-16.26239,2.3122563
18.387943,9.119769,-11.111278
18.387943,9.119769,-11.111278
18.387943,9.119769,-11.111278
18.387943,9.119769,-11.111278
6.3814445,19.603912,-11.972988
6.3814445,19.603912,-11.972988
6.3814445,19.603912,-11.972988
6.3814445,19.603912,-11.972988
19.594337,10.259142,-9.110194
19.594337,10.259142,-9.110194
19.594337,10.259142,-9.110194
19.594337,10.259142,-9.110194
19.594337,-19.594337,6.5537868
19.594337,-19.594337,6.5537868
19.594337,-19.594337,6.5537868
19.594337,-19.594337,6.5537868
13.753855999999999,-19.354975,4.5144053
13.753855999999999,-19.354975,4.5144053
13.753855999999999,-19.354975,4.5144053
13.753855999999999,-19.354975,4.5144053
-11.063405,-5.653778,-0.110107444
-11.063405,-5.653778,-0.110107444
-11.063405,-5.653778,-0.110107444
-11.063405,-5.653778,-0.110107444
-16.712395,-3.8729098,-4.0261025
-16.712395,-3.8729098,-4.0261025
-16.712395,-3.8729098,-4.0261025
-16.712395,-3.8729098,-4.0261025
-16.587927,-11.647452000000001,-1.8048046999999998
-16.587927,-11.647452000000001,-1.8048046999999998
-16.587927,-11.647452000000001,-1.8048046999999998
-16.587927,-11.647452000000001,-1.8048046999999998
2.015445,-19.594337,8.803808
2.015445,-19.594337,8.803808
2.015445,-19.594337,8.803808
2.015445,-19.594337,8.803808
19.594337,-18.732628,8.669764500000001
19.594337,-18.732628,8.669764500000001
19.594337,-18.732628,8.669764500000001
19.594337,-18.732628,8.669764500000001
19.086885000000002,-1.948423,-11.360216000000001
19.086885000000002,-1.948423,-11.360216000000001
19.086885000000002,-1.948423,-11.360216000000001
19.086885000000002,-1.948423,-11.360216000000001
8.372953,19.603912,-13.830453
8.372953,19.603912,-13.830453
8.372953,19.603912,-13.830453
8.372953,19.603912,-13.830453
18.014536,8.621891999999999,-11.15915
18.014536,8.621891999999999,-11.15915
18.014536,8.621891999999999,-11.15915
18.014536,8.621891999999999,-11.15915
19.594337,-19.594337,6.630383
19.594337,-19.594337,6.630383
19.594337,-19.594337,6.630383
19.594337,-19.594337,6.630383
10.996383,-16.808142,4.993133
10.996383,-16.808142,4.993133
10.996383,-16.808142,4.993133
10.996383,-16.808142,4.993133
-12.56661,1.1345854,-2.6856642
-12.56661,1.1345854,-2.6856642
-12.56661,1.1345854,-2.6856642
-12.56661,1.1345854,-2.6856642
-12.56661,1.1345854,-2.6856642
-12.56661,1.1345854,-2.6856642
-12.56661,1.1345854,-2.6856642
-12.56661,1.1345854,-2.6856642
-16.741120000000002,-9.54105,1.1250108
-16.741120000000002,-9.54105,1.1250108
-16.741120000000002,-9.54105,1.1250108
-16.741120000000002,-9.54105,1.1250108
12.767676,-19.594337,18.435816
12.767676,-19.594337,18.435816
12.767676,-19.594337,18.435816
12.767676,-19.594337,18.435816
19.594337,-17.047504,1.1728836
19.594337,-17.047504,1.1728836
19.594337,-17.047504,1.1728836
19.594337,-17.047504,1.1728836
19.173057999999997,9.512326,-17.382614
19.173057999999997,9.512326,-17.382614
19.173057999999997,9.512326,-17.382614
19.173057999999997,9.512326,-17.382614
14.136839000000002,19.603912,-17.947514
14.136839000000002,19.603912,-17.947514
14.136839000000002,19.603912,-17.947514
14.136839000000002,19.603912,-17.947514
19.594337,0.8281995000000001,-10.661273
19.594337,0.8281995000000001,-10.661273
19.594337,0.8281995000000001,-10.661273
19.594337,0.8281995000000001,-10.661273
19.546464999999998,-19.594337,10.307014
19.546464999999998,-19.594337,10.307014
19.546464999999998,-19.594337,10.307014
19.546464999999998,-19.594337,10.307014
6.0176110000000005,-14.088965,5.8165455
6.0176110000000005,-14.088965,5.8165455
6.0176110000000005,-14.088965,5.8165455
6.0176110000000005,-14.088965,5.8165455
-18.301773,0.6079846,-2.7622607000000006
-18.301773,0.6079846,-2.7622607000000006
-18.301773,0.6079846,-2.7622607000000006
-18.301773,0.6079846,-2.7622607000000006
-19.603912,-0.17712937,-3.1835412999999995
-19.603912,-0.17712937,-3.1835412999999995
-19.603912,-0.17712937,-3.1835412999999995
-19.603912,-0.17712937,-3.1835412999999995
-5.2707953000000005,-19.594337,10.460207
-5.2707953000000005,-19.594337,10.460207
-5.2707953000000005,-19.594337,10.460207
-5.2707953000000005,-19.594337,10.460207
19.594337,-19.594337,16.310265
19.594337,-19.594337,16.310265
19.594337,-19.594337,16.310265
19.594337,-19.594337,16.310265
19.594337,-12.059159,-3.9399316
19.594337,-12.059159,-3.9399316
19.594337,-12.059159,-3.9399316
19.594337,-12.059159,-3.9399316
17.401764,16.185795000000002,-14.09854
17.401764,16.185795000000002,-14.09854
17.401764,16.185795000000002,-14.09854
17.401764,16.185795000000002,-14.09854
13.045339,19.603912,-12.365545
13.045339,19.603912,-12.365545
13.045339,19.603912,-12.365545
13.045339,19.603912,-12.365545
19.594337,-3.1739669999999998,-7.9133744
19.594337,-3.1739669999999998,-7.9133744
19.594337,-3.1739669999999998,-7.9133744
19.594337,-3.1739669999999998,-7.9133744
19.55604,-19.594337,11.982562
19.55604,-19.594337,11.982562
19.55604,-19.594337,11.982562
19.55604,-19.594337,11.982562
7.4154973,-15.984729000000002,4.504830999999999
7.4154973,-15.984729000000002,4.504830999999999
7.4154973,-15.984729000000002,4.504830999999999
7.4154973,-15.984729000000002,4.504830999999999
-18.809223,-4.3803616,-3.7675896
-18.809223,-4.3803616,-3.7675896
-18.809223,-4.3803616,-3.7675896
-18.809223,-4.3803616,-3.7675896
-19.603912,-8.564445,-3.2792869
-19.603912,-8.564445,-3.2792869
-19.603912,-8.564445,-3.2792869
-19.603912,-8.564445,-3.2792869
-2.2643836,-19.594337,10.651698
-2.2643836,-19.594337,10.651698
-2.2643836,-19.594337,10.651698
-2.2643836,-19.594337,10.651698
-2.2643836,-19.594337,10.651698
19.594337,-19.55604,13.198531
19.594337,-19.55604,13.198531
19.594337,-19.55604,13.198531
19.32625,-6.429317500000001,-3.9782297999999994
19.32625,-6.429317500000001,-3.9782297999999994
19.32625,-6.429317500000001,-3.9782297999999994
19.32625,-6.429317500000001,-3.9782297999999994
16.425158,17.851768,-13.370873000000001
16.425158,17.851768,-13.370873000000001
16.425158,17.851768,-13.370873000000001
16.425158,17.851768,-13.370873000000001
16.425158,17.851768,-13.370873000000001
15.381532,19.153907999999998,-14.931526999999999
15.381532,19.153907999999998,-14.931526999999999
15.381532,19.153907999999998,-14.931526999999999
19.594337,-13.179382,-1.7856555
19.594337,-13.179382,-1.7856555
19.594337,-13.179382,-1.7856555
19.594337,-13.179382,-1.7856555
19.594337,-13.179382,-1.7856555
17.401764,-19.594337,13.313426000000002
17.401764,-19.594337,13.313426000000002
17.401764,-19.594337,13.313426000000002
17.401764,-19.594337,13.313426000000002
-2.5324712000000003,-7.5495410000000005,3.9782297999999994
-2.5324712000000003,-7.5495410000000005,3.9782297999999994
-2.5324712000000003,-7.5495410000000005,3.9782297999999994
-16.836864000000002,0.50266445,-3.8920587999999996
-16.836864000000002,0.50266445,-3.8920587999999996
-16.836864000000002,0.50266445,-3.8920587999999996
-16.836864000000002,0.50266445,-3.8920587999999996
-16.836864000000002,0.50266445,-3.8920587999999996
-19.3454,-3.0973704,-1.5845897
-19.3454,-3.0973704,-1.5845897
-19.3454,-3.0973704,-1.5845897
-19.3454,-3.0973704,-1.5845897
-6.6016593,-19.594337,10.354887
-6.6016593,-19.594337,10.354887
-6.6016593,-19.594337,10.354887
-6.6016593,-19.594337,10.354887
19.594337,-19.594337,17.210272
19.594337,-19.594337,17.210272
19.594337,-19.594337,17.210272
19.594337,-9.550624000000001,-5.8931417
19.594337,-9.550624000000001,-5.8931417
19.594337,-9.550624000000001,-5.8931417
19.594337,-9.550624000000001,-5.8931417
19.594337,-9.550624000000001,-5.8931417
15.601747,18.349646,-15.3049345
15.601747,18.349646,-15.3049345
15.601747,18.349646,-15.3049345
15.601747,18.349646,-15.3049345
15.936856,18.062407999999998,-14.270883
15.936856,18.062407999999998,-14.270883
15.936856,18.062407999999998,-14.270883
19.594337,-14.931526999999999,1.7282081999999999
19.594337,-14.931526999999999,1.7282081999999999
19.594337,-14.931526999999999,1.7282081999999999
19.594337,-14.931526999999999,1.7282081999999999
19.594337,-14.931526999999999,1.7282081999999999
16.607075,-19.594337,10.709146
16.607075,-19.594337,10.709146
16.607075,-19.594337,10.709146
16.607075,-19.594337,10.709146
-3.777164,-6.170804,3.9016335
-3.777164,-6.170804,3.9016335
-3.777164,-6.170804,3.9016335
-18.225176,2.360129,-2.714388
-18.225176,2.360129,-2.714388
-18.225176,2.360129,-2.714388
-18.225176,2.360129,-2.714388
-18.225176,2.360129,-2.714388
-17.028357,-5.5963306,0.0718092
-17.028357,-5.5963306,0.0718092
-17.028357,-5.5963306,0.0718092
-17.028357,-5.5963306,0.0718092
-5.222923000000001,-19.594337,13.8879
-5.222923000000001,-19.594337,13.8879
-5.222923000000001,-19.594337,13.8879
-5.222923000000001,-19.594337,13.8879
19.594337,-19.594337,14.64429
19.594337,-19.594337,14.64429
19.594337,-19.594337,14.64429
19.594337,-19.594337,14.64429
19.163483,-7.080387599999999,-8.526146
19.163483,-7.080387599999999,-8.526146
19.163483,-7.080387599999999,-8.526146
19.163483,-7.080387599999999,-8.526146
14.66344,19.508167,-10.555953
14.66344,19.508167,-10.555953
14.66344,19.508167,-10.555953
14.66344,19.508167,-10.555953
13.677259,16.147495000000003,-9.7899885
13.677259,16.147495000000003,-9.7899885
13.677259,16.147495000000003,-9.7899885
13.677259,16.147495000000003,-9.7899885
19.594337,-13.4666195,0.9526688
19.594337,-13.4666195,0.9526688
19.594337,-13.4666195,0.9526688
19.594337,-13.4666195,0.9526688
18.215601,-19.594337,11.657027000000001
18.215601,-19.594337,11.657027000000001
18.215601,-19.594337,11.657027000000001
18.215601,-19.594337,11.657027000000001
0.9526688,-7.8846507,3.0686467
0.9526688,-7.8846507,3.0686467
0.9526688,-7.8846507,3.0686467
0.9526688,-7.8846507,3.0686467
-19.402847,3.3941817000000003,-4.801642
-19.402847,3.3941817000000003,-4.801642
-19.402847,3.3941817000000003,-4.801642
-19.402847,3.3941817000000003,-4.801642
-19.603912,-3.4324798999999997,-1.9579976000000003
-19.603912,-3.4324798999999997,-1.9579976000000003
-19.603912,-3.4324798999999997,-1.9579976000000003
-19.603912,-3.4324798999999997,-1.9579976000000003
-3.8250370000000005,-19.594337,12.557036
-3.8250370000000005,-19.594337,12.557036
-3.8250370000000005,-19.594337,12.557036
-3.8250370000000005,-19.594337,12.557036
19.594337,-19.287952,12.662355999999999
19.594337,-19.287952,12.662355999999999
19.594337,-19.287952,12.662355999999999
19.594337,-19.287952,12.662355999999999
17.334742000000002,-6.4197426,-5.519734
17.334742000000002,-6.4197426,-5.519734
17.334742000000002,-6.4197426,-5.519734
17.334742000000002,-6.4197426,-5.519734
15.343232999999998,18.148579,-7.2623043
15.343232999999998,18.148579,-7.2623043
15.343232999999998,18.148579,-7.2623043
15.343232999999998,18.148579,-7.2623043
14.577269,18.196451,-9.014449
14.577269,18.196451,-9.014449
14.577269,18.196451,-9.014449
14.577269,18.196451,-9.014449
19.594337,-11.522984,-2.7718353
19.594337,-11.522984,-2.7718353
19.594337,-11.522984,-2.7718353
19.594337,-11.522984,-2.7718353
18.837948,-19.594337,9.675094
18.837948,-19.594337,9.675094
18.837948,-19.594337,9.675094
18.837948,-19.594337,9.675094
1.5367169,-13.514492,3.212265
1.5367169,-13.514492,3.212265
1.5367169,-13.514492,3.212265
1.5367169,-13.514492,3.212265
-19.603912,-2.9633265,-1.0388398
-19.603912,-2.9633265,-1.0388398
-19.603912,-2.9633265,-1.0388398
-19.603912,-2.9633265,-1.0388398
-19.374123,-11.455961,-1.8048046999999998
-19.374123,-11.455961,-1.8048046999999998
-19.374123,-11.455961,-1.8048046999999998
-19.374123,-11.455961,-1.8048046999999998
-0.512239,-19.594337,9.062322
-0.512239,-19.594337,9.062322
-0.512239,-19.594337,9.062322
-0.512239,-19.594337,9.062322
-0.512239,-19.594337,9.062322
19.594337,-19.364548000000003,11.350641
19.594337,-19.364548000000003,11.350641
19.594337,-19.364548000000003,11.350641
19.594337,-7.626137299999999,-9.177217
19.594337,-7.626137299999999,-9.177217
19.594337,-7.626137299999999,-9.177217
19.594337,-7.626137299999999,-9.177217
19.594337,-7.626137299999999,-9.177217
19.594337,-7.626137299999999,-9.177217
19.594337,-7.626137299999999,-9.177217
19.594337,-7.626137299999999,-9.177217
17.143251,15.754939000000002,-11.331491999999999
17.143251,15.754939000000002,-11.331491999999999
17.143251,15.754939000000002,-11.331491999999999
17.143251,15.754939000000002,-11.331491999999999
19.594337,-18.742203,3.0973704
19.594337,-18.742203,3.0973704
19.594337,-18.742203,3.0973704
19.594337,-18.742203,3.0973704
14.155988,-19.460295000000002,7.396348
14.155988,-19.460295000000002,7.396348
14.155988,-19.460295000000002,7.396348
14.155988,-19.460295000000002,7.396348
-11.245321,-1.7952299999999999,1.3930986
-11.245321,-1.7952299999999999,1.3930986
-11.245321,-1.7952299999999999,1.3930986
-11.245321,-1.7952299999999999,1.3930986
-18.742203,5.519734,-3.8920587999999996
-18.742203,5.519734,-3.8920587999999996
-18.742203,5.519734,-3.8920587999999996
-18.742203,5.519734,-3.8920587999999996
-17.803895999999998,-4.437809,-3.2792869
-17.803895999999998,-4.437809,-3.2792869
-17.803895999999998,-4.437809,-3.2792869
-17.803895999999998,-4.437809,-3.2792869
4.0261025,-19.594337,16.511329999999997
4.0261025,-19.594337,16.511329999999997
4.0261025,-19.594337,16.511329999999997
4.0261025,-19.594337,16.511329999999997
19.594337,-18.713478,10.594251
19.594337,-18.713478,10.594251
19.594337,-18.713478,10.594251
19.594337,-18.713478,10.594251
17.679426,-4.1984449999999995,-7.961247
17.679426,-4.1984449999999995,-7.961247
17.679426,-4.1984449999999995,-7.961247
17.679426,-4.1984449999999995,-7.961247
13.34215,19.603912,-8.928278
13.34215,19.603912,-8.928278
13.34215,19.603912,-8.928278
13.34215,19.603912,-8.928278
14.376203,16.19537,-9.904882
14.376203,16.19537,-9.904882
14.376203,16.19537,-9.904882
14.376203,16.19537,-9.904882
19.594337,-14.529395000000001,0.17712937
19.594337,-14.529395000000001,0.17712937
19.594337,-14.529395000000001,0.17712937
19.594337,-14.529395000000001,0.17712937
17.803895999999998,-19.594337,8.803808
17.803895999999998,-19.594337,8.803808
17.803895999999998,-19.594337,8.803808
17.803895999999998,-19.594337,8.803808
-0.37819514,-12.432567,2.2643836
-0.37819514,-12.432567,2.2643836
-0.37819514,-12.432567,2.2643836
-0.37819514,-12.432567,2.2643836
-19.153907999999998,0.081383765,-1.0962871
-19.153907999999998,0.081383765,-1.0962871
-19.153907999999998,0.081383765,-1.0962871
-19.153907999999998,0.081383765,-1.0962871
-19.594337,-6.304848000000001,-0.48351530000000004
-19.594337,-6.304848000000001,-0.48351530000000004
-19.594337,-6.304848000000001,-0.48351530000000004
-19.594337,-6.304848000000001,-0.48351530000000004
-1.7282081999999999,-19.594337,9.091045
-1.7282081999999999,-19.594337,9.091045
-1.7282081999999999,-19.594337,9.091045
-1.7282081999999999,-19.594337,9.091045
19.594337,-19.479443,9.617646
19.594337,-19.479443,9.617646
19.594337,-19.479443,9.617646
19.594337,-19.479443,9.617646
19.55604,-4.504830999999999,-5.711225499999999
19.55604,-4.504830999999999,-5.711225499999999
19.55604,-4.504830999999999,-5.711225499999999
19.55604,-4.504830999999999,-5.711225499999999
19.55604,-4.504830999999999,-5.711225499999999
14.136839000000002,19.603912,-8.459125
14.136839000000002,19.603912,-8.459125
14.136839000000002,19.603912,-8.459125
16.003878,14.261307999999998,-10.642124
16.003878,14.261307999999998,-10.642124
16.003878,14.261307999999998,-10.642124
16.003878,14.261307999999998,-10.642124
19.594337,-18.550710000000002,0.0718092
19.594337,-18.550710000000002,0.0718092
19.594337,-18.550710000000002,0.0718092
19.594337,-18.550710000000002,0.0718092
19.594337,-18.550710000000002,0.0718092
17.574106,-19.594337,7.128260000000001
17.574106,-19.594337,7.128260000000001
17.574106,-19.594337,7.128260000000001
-2.2069361,-11.743198,2.1399142999999996
-2.2069361,-11.743198,2.1399142999999996
-2.2069361,-11.743198,2.1399142999999996
-2.2069361,-11.743198,2.1399142999999996
-19.393272,-3.844186,-2.6186423
-19.393272,-3.844186,-2.6186423
-19.393272,-3.844186,-2.6186423
-19.393272,-3.844186,-2.6186423
-19.393272,-3.844186,-2.6186423
-18.665606,-9.598496,-3.2218397000000003
-18.665606,-9.598496,-3.2218397000000003
-18.665606,-9.598496,-3.2218397000000003
-18.665606,-9.598496,-3.2218397000000003
-0.5505372,-19.594337,4.8973875
-0.5505372,-19.594337,4.8973875
-0.5505372,-19.594337,4.8973875
19.594337,-19.182632,7.3389006
19.594337,-19.182632,7.3389006
19.594337,-19.182632,7.3389006
19.594337,-19.182632,7.3389006
19.594337,-19.182632,7.3389006
17.440062,-2.2260852000000004,-6.2282515
17.440062,-2.2260852000000004,-6.2282515
17.440062,-2.2260852000000004,-6.2282515
17.440062,-2.2260852000000004,-6.2282515
14.797482999999998,18.933692999999998,-5.242071599999999
14.797482999999998,18.933692999999998,-5.242071599999999
14.797482999999998,18.933692999999998,-5.242071599999999
8.909127999999999,17.880491,-6.9942164
8.909127999999999,17.880491,-6.9942164
8.909127999999999,17.880491,-6.9942164
8.909127999999999,17.880491,-6.9942164
8.909127999999999,17.880491,-6.9942164
19.594337,-8.698488000000001,-2.9250283
19.594337,-8.698488000000001,-2.9250283
19.594337,-8.698488000000001,-2.9250283
19.594337,-8.698488000000001,-2.9250283
17.554956,-19.594337,8.430401
17.554956,-19.594337,8.430401
17.554956,-19.594337,8.430401
-4.7250457,-9.359133,2.752686
-4.7250457,-9.359133,2.752686
-4.7250457,-9.359133,2.752686
-4.7250457,-9.359133,2.752686
-4.7250457,-9.359133,2.752686
-12.030436,8.210186,-3.1069447999999995
-12.030436,8.210186,-3.1069447999999995
-12.030436,8.210186,-3.1069447999999995
-12.030436,8.210186,-3.1069447999999995
-18.742203,8.44955,-5.49101
-18.742203,8.44955,-5.49101
-18.742203,8.44955,-5.49101
-18.742203,8.44955,-5.49101
-12.69108,-11.657027000000001,-2.494173
-12.69108,-11.657027000000001,-2.494173
-12.69108,-11.657027000000001,-2.494173
-12.69108,-11.657027000000001,-2.494173
17.823044,-19.594337,12.700654
17.823044,-19.594337,12.700654
17.823044,-19.594337,12.700654
19.594337,-10.412334,-1.6611862000000002
19.594337,-10.412334,-1.6611862000000002
19.594337,-10.412334,-1.6611862000000002
19.594337,-10.412334,-1.6611862000000002
18.273048,14.854931,-9.435728999999998
18.273048,14.854931,-9.435728999999998
18.273048,14.854931,-9.435728999999998
18.273048,14.854931,-9.435728999999998
10.048501,19.603912,-10.747444
10.048501,19.603912,-10.747444
10.048501,19.603912,-10.747444
10.048501,19.603912,-10.747444
10.048501,19.603912,-10.747444
19.594337,-8.497422,-6.7357035000000005
19.594337,-8.497422,-6.7357035000000005
19.594337,-8.497422,-6.7357035000000005
17.325167,-19.594337,6.975067
17.325167,-19.594337,6.975067
17.325167,-19.594337,6.975067
17.325167,-19.594337,6.975067
-3.1452432,-7.1186857,4.6675982000000005
-3.1452432,-7.1186857,4.6675982000000005
-3.1452432,-7.1186857,4.6675982000000005
-3.1452432,-7.1186857,4.6675982000000005
-3.1452432,-7.1186857,4.6675982000000005
-12.231501,3.5569491,1.0196906
-12.231501,3.5569491,1.0196906
-12.231501,3.5569491,1.0196906
-18.608158,3.6335455999999997,-2.6569404999999997
-18.608158,3.6335455999999997,-2.6569404999999997
-18.608158,3.6335455999999997,-2.6569404999999997
-18.608158,3.6335455999999997,-2.6569404999999997
-12.8538475,-18.139006,0.023936402000000002
-12.8538475,-18.139006,0.023936402000000002
-12.8538475,-18.139006,0.023936402000000002
-12.8538475,-18.139006,0.023936402000000002
-12.8538475,-18.139006,0.023936402000000002
18.033684,-19.594337,9.665519
18.033684,-19.594337,9.665519
18.033684,-19.594337,9.665519
15.812386499999999,-7.348475,-5.711225499999999
15.812386499999999,-7.348475,-5.711225499999999
15.812386499999999,-7.348475,-5.711225499999999
15.812386499999999,-7.348475,-5.711225499999999
16.607075,18.579435,-7.6452865999999995
16.607075,18.579435,-7.6452865999999995
16.607075,18.579435,-7.6452865999999995
16.607075,18.579435,-7.6452865999999995
16.607075,18.579435,-7.6452865999999995
13.696407999999998,16.204943,-8.813383
13.696407999999998,16.204943,-8.813383
13.696407999999998,16.204943,-8.813383
13.696407999999998,16.204943,-8.813383
19.594337,-15.611320499999998,-0.2154276
19.594337,-15.611320499999998,-0.2154276
19.594337,-15.611320499999998,-0.2154276
16.310265,-19.594337,7.693159
16.310265,-19.594337,7.693159
16.310265,-19.594337,7.693159
16.310265,-19.594337,7.693159
16.310265,-19.594337,7.693159
-1.9388485,-10.163396,2.6186423
-1.9388485,-10.163396,2.6186423
-1.9388485,-10.163396,2.6186423
-1.9388485,-10.163396,2.6186423
-14.835780999999999,1.2877783999999999,-1.6611862000000002
-14.835780999999999,1.2877783999999999,-1.6611862000000002
-14.835780999999999,1.2877783999999999,-1.6611862000000002
-19.603912,-1.5175678999999997,-3.0877957
-19.603912,-1.5175678999999997,-3.0877957
-19.603912,-1.5175678999999997,-3.0877957
-19.603912,-1.5175678999999997,-3.0877957
-19.603912,-1.5175678999999997,-3.0877957
-9.359133,-19.594337,1.3165021000000001
-9.359133,-19.594337,1.3165021000000001
-9.359133,-19.594337,1.3165021000000001
-9.359133,-19.594337,1.3165021000000001
18.732628,-19.594337,5.098453500000001
18.732628,-19.594337,5.098453500000001
18.732628,-19.594337,5.098453500000001
19.594337,-6.5537868,-7.7793303
19.594337,-6.5537868,-7.7793303
19.594337,-6.5537868,-7.7793303
19.594337,-6.5537868,-7.7793303
19.594337,-6.5537868,-7.7793303
15.821960999999998,19.498592000000002,-6.467615599999999
15.821960999999998,19.498592000000002,-6.467615599999999
15.821960999999998,19.498592000000002,-6.467615599999999
15.821960999999998,19.498592000000002,-6.467615599999999
15.343232999999998,15.266637,-8.382527
15.343232999999998,15.266637,-8.382527
15.343232999999998,15.266637,-8.382527
15.343232999999998,15.266637,-8.382527
19.594337,-15.869833999999999,-1.2207563999999997
19.594337,-15.869833999999999,-1.2207563999999997
19.594337,-15.869833999999999,-1.2207563999999997
19.594337,-15.869833999999999,-1.2207563999999997
16.549626999999997,-19.594337,7.022939999999999
16.549626999999997,-19.594337,7.022939999999999
16.549626999999997,-19.594337,7.022939999999999
16.549626999999997,-19.594337,7.022939999999999
-4.782493,-10.364462,1.948423
-4.782493,-10.364462,1.948423
-4.782493,-10.364462,1.948423
-4.782493,-10.364462,1.948423
-19.603912,1.6037389,-4.5335545999999995
-19.603912,1.6037389,-4.5335545999999995
-19.603912,1.6037389,-4.5335545999999995
-19.603912,1.6037389,-4.5335545999999995
-17.440062,-13.227255,-5.6154795
-17.440062,-13.227255,-5.6154795
-17.440062,-13.227255,-5.6154795
-17.440062,-13.227255,-5.6154795
10.498505999999999,-19.594337,9.330409
10.498505999999999,-19.594337,9.330409
10.498505999999999,-19.594337,9.330409
10.498505999999999,-19.594337,9.330409
19.594337,-15.764514000000002,2.8771553
19.594337,-15.764514000000002,2.8771553
19.594337,-15.764514000000002,2.8771553
19.594337,-15.764514000000002,2.8771553
18.579435,4.658024,-6.525062999999999
18.579435,4.658024,-6.525062999999999
18.579435,4.658024,-6.525062999999999
18.579435,4.658024,-6.525062999999999
12.020861,19.603912,-4.581427
12.020861,19.603912,-4.581427
12.020861,19.603912,-4.581427
12.020861,19.603912,-4.581427
18.76135,6.6016593,-11.743198
18.76135,6.6016593,-11.743198
18.76135,6.6016593,-11.743198
18.76135,6.6016593,-11.743198
19.594337,-19.594337,0.90479594
19.594337,-19.594337,0.90479594
19.594337,-19.594337,0.90479594
19.594337,-19.594337,0.90479594
9.828286,-18.416667999999998,7.0037910000000005
9.828286,-18.416667999999998,7.0037910000000005
9.828286,-18.416667999999998,7.0037910000000005
9.828286,-18.416667999999998,7.0037910000000005
-11.858092999999998,-3.8250370000000005,-2.0537431
-11.858092999999998,-3.8250370000000005,-2.0537431
-11.858092999999998,-3.8250370000000005,-2.0537431
-19.603912,-4.1984449999999995,-5.38569
-19.603912,-4.1984449999999995,-5.38569
-19.603912,-4.1984449999999995,-5.38569
-19.603912,-4.1984449999999995,-5.38569
-19.603912,-4.1984449999999995,-5.38569
-16.147495000000003,-19.441145000000002,0.9430941999999999
-16.147495000000003,-19.441145000000002,0.9430941999999999
-16.147495000000003,-19.441145000000002,0.9430941999999999
-16.147495000000003,-19.441145000000002,0.9430941999999999
10.728295,-19.594337,8.650616000000001
10.728295,-19.594337,8.650616000000001
10.728295,-19.594337,8.650616000000001
19.565615,-13.667685500000001,-1.2016073
19.565615,-13.667685500000001,-1.2016073
19.565615,-13.667685500000001,-1.2016073
19.565615,-13.667685500000001,-1.2016073
19.565615,-13.667685500000001,-1.2016073
17.851768,9.933606,-9.234664
17.851768,9.933606,-9.234664
17.851768,9.933606,-9.234664
17.851768,9.933606,-9.234664
17.325167,19.603912,-10.479357
17.325167,19.603912,-10.479357
17.325167,19.603912,-10.479357
19.594337,-9.6942425,-6.8888964999999995
19.594337,-9.6942425,-6.8888964999999995
19.594337,-9.6942425,-6.8888964999999995
19.594337,-9.6942425,-6.8888964999999995
19.594337,-9.6942425,-6.8888964999999995
19.029438,-19.594337,9.253813000000001
19.029438,-19.594337,9.253813000000001
19.029438,-19.594337,9.253813000000001
19.029438,-19.594337,9.253813000000001
2.9537517999999996,-16.358137,4.0356774
2.9537517999999996,-16.358137,4.0356774
2.9537517999999996,-16.358137,4.0356774
2.9537517999999996,-16.358137,4.0356774
-19.517742000000002,-5.5101595,-2.2356597999999996
-19.517742000000002,-5.5101595,-2.2356597999999996
-19.517742000000002,-5.5101595,-2.2356597999999996
-19.517742000000002,-5.5101595,-2.2356597999999996
-19.603912,-9.0814705,-3.4420545
-19.603912,-9.0814705,-3.4420545
-19.603912,-9.0814705,-3.4420545
-19.603912,-9.0814705,-3.4420545
-2.4175766,-19.594337,7.271878699999999
-2.4175766,-19.594337,7.271878699999999
-2.4175766,-19.594337,7.271878699999999
-2.4175766,-19.594337,7.271878699999999
19.594337,-19.546464999999998,11.015532
19.594337,-19.546464999999998,11.015532
19.594337,-19.546464999999998,11.015532
19.594337,-19.546464999999998,11.015532
19.527314999999998,-7.961247,-8.602742
19.527314999999998,-7.961247,-8.602742
19.527314999999998,-7.961247,-8.602742
19.527314999999998,-7.961247,-8.602742
16.664522,18.598582999999998,-11.484685
16.664522,18.598582999999998,-11.484685
16.664522,18.598582999999998,-11.484685
16.664522,18.598582999999998,-11.484685
15.352808,15.391106,-10.891063
15.352808,15.391106,-10.891063
15.352808,15.391106,-10.891063
15.352808,15.391106,-10.891063
15.352808,15.391106,-10.891063
19.594337,-16.166645000000003,-2.9154537
19.594337,-16.166645000000003,-2.9154537
19.594337,-16.166645000000003,-2.9154537
17.593254,-19.594337,5.1367517
17.593254,-19.594337,5.1367517
17.593254,-19.594337,5.1367517
17.593254,-19.594337,5.1367517
1.1537346000000002,-12.633633,2.6090677
1.1537346000000002,-12.633633,2.6090677
1.1537346000000002,-12.633633,2.6090677
1.1537346000000002,-12.633633,2.6090677
1.1537346000000002,-12.633633,2.6090677
-19.249653,-3.8920587999999996,-3.8920587999999996
-19.249653,-3.8920587999999996,-3.8920587999999996
-19.249653,-3.8920587999999996,-3.8920587999999996
-19.603912,-6.5537868,-4.5622783
-19.603912,-6.5537868,-4.5622783
-19.603912,-6.5537868,-4.5622783
-19.603912,-6.5537868,-4.5622783
-2.1303396,-19.594337,4.9069624
-2.1303396,-19.594337,4.9069624
-2.1303396,-19.594337,4.9069624
-2.1303396,-19.594337,4.9069624
-2.1303396,-19.594337,4.9069624
19.594337,-19.09646,7.683584700000001
19.594337,-19.09646,7.683584700000001
19.594337,-19.09646,7.683584700000001
19.594337,-0.19627848,-6.9559183
19.594337,-0.19627848,-6.9559183
19.594337,-0.19627848,-6.9559183
19.594337,-0.19627848,-6.9559183
13.792154,19.603912,-9.454879
13.792154,19.603912,-9.454879
13.792154,19.603912,-9.454879
13.792154,19.603912,-9.454879
18.627308,9.158066999999999,-10.910212
18.627308,9.158066999999999,-10.910212
18.627308,9.158066999999999,-10.910212
18.627308,9.158066999999999,-10.910212
18.627308,9.158066999999999,-10.910212
19.594337,-19.594337,3.671844
19.594337,-19.594337,3.671844
19.594337,-19.594337,3.671844
15.391106,-19.594337,11.925115
15.391106,-19.594337,11.925115
15.391106,-19.594337,11.925115
15.391106,-19.594337,11.925115
-8.286782,-8.392102000000001,4.1409974
-8.286782,-8.392102000000001,4.1409974
-8.286782,-8.392102000000001,4.1409974
-8.286782,-8.392102000000001,4.1409974
-8.286782,-8.392102000000001,4.1409974
-19.603912,-2.9920502,0.6750065
-19.603912,-2.9920502,0.6750065
-19.603912,-2.9920502,0.6750065
-14.021944,-17.554956,0.8281995000000001
-14.021944,-17.554956,0.8281995000000001
-14.021944,-17.554956,0.8281995000000001
-14.021944,-17.554956,0.8281995000000001
6.5633610000000004,-19.594337,9.96233
6.5633610000000004,-19.594337,9.96233
6.5633610000000004,-19.594337,9.96233
6.5633610000000004,-19.594337,9.96233
6.5633610000000004,-19.594337,9.96233
19.594337,-17.631554,7.1186857
19.594337,-17.631554,7.1186857
19.594337,-17.631554,7.1186857
17.152824,1.5367169,-5.452712
17.152824,1.5367169,-5.452712
17.152824,1.5367169,-5.452712
17.152824,1.5367169,-5.452712
10.938935,19.603912,-8.047417999999999
10.938935,19.603912,-8.047417999999999
10.938935,19.603912,-8.047417999999999
10.938935,19.603912,-8.047417999999999
10.938935,19.603912,-8.047417999999999
18.004960999999998,7.626137299999999,-9.818711
18.004960999999998,7.626137299999999,-9.818711
18.004960999999998,7.626137299999999,-9.818711
18.004960999999998,7.626137299999999,-9.818711
19.594337,-19.594337,0.98139244
19.594337,-19.594337,0.98139244
19.594337,-19.594337,0.98139244
16.6358,-19.594337,6.3814445
16.6358,-19.594337,6.3814445
16.6358,-19.594337,6.3814445
16.6358,-19.594337,6.3814445
16.6358,-19.594337,6.3814445
-1.8718264999999998,-12.116607,3.3080106
-1.8718264999999998,-12.116607,3.3080106
-1.8718264999999998,-12.116607,3.3080106
-1.8718264999999998,-12.116607,3.3080106
-19.603912,-6.1612295999999995,0.6750065
-19.603912,-6.1612295999999995,0.6750065
-19.603912,-6.1612295999999995,0.6750065
-14.32833,-17.018782,-2.3792782000000003
-14.32833,-17.018782,-2.3792782000000003
-14.32833,-17.018782,-2.3792782000000003
-14.32833,-17.018782,-2.3792782000000003
-14.32833,-17.018782,-2.3792782000000003
4.9739842,-19.594337,1.2016073
4.9739842,-19.594337,1.2016073
4.9739842,-19.594337,1.2016073
4.9739842,-19.594337,1.2016073
19.594337,-18.44539,5.529309
19.594337,-18.44539,5.529309
19.594337,-18.44539,5.529309
19.594337,-18.44539,5.529309
17.995386,-4.6293,-1.9196993000000002
17.995386,-4.6293,-1.9196993000000002
17.995386,-4.6293,-1.9196993000000002
17.995386,-4.6293,-1.9196993000000002
12.90172,18.636882999999997,-6.065484
12.90172,18.636882999999997,-6.065484
12.90172,18.636882999999997,-6.065484
12.90172,18.636882999999997,-6.065484
8.688913000000001,19.603912,-9.043172
8.688913000000001,19.603912,-9.043172
8.688913000000001,19.603912,-9.043172
8.688913000000001,19.603912,-9.043172
19.182632,-1.2686293,-6.027186
19.182632,-1.2686293,-6.027186
19.182632,-1.2686293,-6.027186
19.182632,-1.2686293,-6.027186
19.594337,-19.594337,11.49426
19.594337,-19.594337,11.49426
19.594337,-19.594337,11.49426
19.594337,-19.594337,11.49426
6.620808599999999,-16.023027,6.505913700000001
6.620808599999999,-16.023027,6.505913700000001
6.620808599999999,-16.023027,6.505913700000001
6.620808599999999,-16.023027,6.505913700000001
-8.44955,-8.34423,4.284616000000001
-8.44955,-8.34423,4.284616000000001
-8.44955,-8.34423,4.284616000000001
-8.44955,-8.34423,4.284616000000001
-11.034680999999999,-6.9942164,1.7665064
-11.034680999999999,-6.9942164,1.7665064
-11.034680999999999,-6.9942164,1.7665064
-11.034680999999999,-6.9942164,1.7665064
-18.512413000000002,-8.382527,-11.695326
-18.512413000000002,-8.382527,-11.695326
-18.512413000000002,-8.382527,-11.695326
-18.512413000000002,-8.382527,-11.695326
-1.9579976000000003,-16.185795000000002,-10.804892
-1.9579976000000003,-16.185795000000002,-10.804892
-1.9579976000000003,-16.185795000000002,-10.804892
-1.9579976000000003,-16.185795000000002,-10.804892
19.594337,-19.32625,2.6952388
19.594337,-19.32625,2.6952388
19.594337,-19.32625,2.6952388
19.594337,-19.32625,2.6952388
19.24008,-0.043085523,-0.44521707
19.24008,-0.043085523,-0.44521707
19.24008,-0.043085523,-0.44521707
19.24008,-0.043085523,-0.44521707
9.158066999999999,12.499589,-2.7718353
9.158066999999999,12.499589,-2.7718353
9.158066999999999,12.499589,-2.7718353
9.158066999999999,12.499589,-2.7718353
5.49101,16.023027,-4.8590894
5.49101,16.023027,-4.8590894
5.49101,16.023027,-4.8590894
5.49101,16.023027,-4.8590894
7.2335806,4.1792955,0.22500217
7.2335806,4.1792955,0.22500217
7.2335806,4.1792955,0.22500217
7.2335806,4.1792955,0.22500217
19.594337,-12.710229,2.2931072999999995
19.594337,-12.710229,2.2931072999999995
19.594337,-12.710229,2.2931072999999995
19.594337,-12.710229,2.2931072999999995
18.292198000000003,-13.964497,-1.8814011999999998
18.292198000000003,-13.964497,-1.8814011999999998
18.292198000000003,-13.964497,-1.8814011999999998
18.292198000000003,-13.964497,-1.8814011999999998
9.493176,-10.374036,-1.7952299999999999
9.493176,-10.374036,-1.7952299999999999
9.493176,-10.374036,-1.7952299999999999
9.493176,-10.374036,-1.7952299999999999
4.045252,-7.5495410000000005,-0.8760723
4.045252,-7.5495410000000005,-0.8760723
4.045252,-7.5495410000000005,-0.8760723
4.045252,-7.5495410000000005,-0.8760723
3.3080106,-5.366541000000001,-1.1154363
3.3080106,-5.366541000000001,-1.1154363
3.3080106,-5.366541000000001,-1.1154363
3.3080106,-5.366541000000001,-1.1154363
3.3080106,-5.366541000000001,-1.1154363
15.63047,-4.3612123,-2.9633265
15.63047,-4.3612123,-2.9633265
15.63047,-4.3612123,-2.9633265
14.548545,-4.045252,-3.4899273
14.548545,-4.045252,-3.4899273
14.548545,-4.045252,-3.4899273
14.548545,-4.045252,-3.4899273
8.985725,0.7420284,2.149489
8.985725,0.7420284,2.149489
8.985725,0.7420284,2.149489
8.985725,0.7420284,2.149489
8.985725,0.7420284,2.149489
5.9218655,2.905879,2.254809
5.9218655,2.905879,2.254809
5.9218655,2.905879,2.254809
7.7793303,1.6133133999999998,1.8335283
7.7793303,1.6133133999999998,1.8335283
7.7793303,1.6133133999999998,1.8335283
7.7793303,1.6133133999999998,1.8335283
15.831535,0.9718179,0.19627848
15.831535,0.9718179,0.19627848
15.831535,0.9718179,0.19627848
15.831535,0.9718179,0.19627848
9.464453,0.83777404,0.42606795
9.464453,0.83777404,0.42606795
9.464453,0.83777404,0.42606795
9.464453,0.83777404,0.42606795
8.928278,0.99096704,1.2494801000000002
8.928278,0.99096704,1.2494801000000002
8.928278,0.99096704,1.2494801000000002
8.928278,0.99096704,1.2494801000000002
9.98148,0.47394073,1.3356511999999998
9.98148,0.47394073,1.3356511999999998
9.98148,0.47394073,1.3356511999999998
9.98148,0.47394073,1.3356511999999998
9.579348,-1.2877783999999999,0.61755913
9.579348,-1.2877783999999999,0.61755913
9.579348,-1.2877783999999999,0.61755913
9.579348,-1.2877783999999999,0.61755913
10.0868,-1.2016073,1.1250108
10.0868,-1.2016073,1.1250108
10.0868,-1.2016073,1.1250108
10.0868,-1.2016073,1.1250108
9.713391,-1.0675635,1.2877783999999999
9.713391,-1.0675635,1.2877783999999999
9.713391,-1.0675635,1.2877783999999999
9.713391,-1.0675635,1.2877783999999999
9.512326,-1.7473572,1.14416
9.512326,-1.7473572,1.14416
9.512326,-1.7473572,1.14416
9.512326,-1.7473572,1.14416
9.98148,-1.7952299999999999,1.4984187
9.98148,-1.7952299999999999,1.4984187
9.98148,-1.7952299999999999,1.4984187
10.06765,-1.6133133999999998,1.7952299999999999
10.06765,-1.6133133999999998,1.7952299999999999
10.06765,-1.6133133999999998,1.7952299999999999
10.06765,-1.6133133999999998,1.7952299999999999
10.06765,-1.6133133999999998,1.7952299999999999
9.85701,-2.0441686999999997,1.6324625
9.85701,-2.0441686999999997,1.6324625
9.85701,-2.0441686999999997,1.6324625
9.761265,-1.6324625,1.948423
9.761265,-1.6324625,1.948423
9.761265,-1.6324625,1.948423
9.761265,-1.6324625,1.948423
9.722966,-1.6420371999999999,2.0633178
9.722966,-1.6420371999999999,2.0633178
9.722966,-1.6420371999999999,2.0633178
9.722966,-1.6420371999999999,2.0633178
9.64637,-1.6133133999999998,1.9292740000000002
9.64637,-1.6133133999999998,1.9292740000000002
9.64637,-1.6133133999999998,1.9292740000000002
9.64637,-1.6133133999999998,1.9292740000000002
9.761265,-1.8814011999999998,1.7377827000000001
9.761265,-1.8814011999999998,1.7377827000000001
9.761265,-1.8814011999999998,1.7377827000000001
9.761265,-1.8814011999999998,1.7377827000000001
9.85701,-1.9771467,1.6037389
9.85701,-1.9771467,1.6037389
9.85701,-1.9771467,1.6037389
9.85701,-1.9771467,1.6037389
9.770839,-1.7856555,1.6611862000000002
9.770839,-1.7856555,1.6611862000000002
9.770839,-1.7856555,1.6611862000000002
9.770839,-1.7856555,1.6611862000000002
9.770839,-1.7856555,1.6611862000000002
9.866585,-1.6324625,1.8335283
9.866585,-1.6324625,1.8335283
9.866585,-1.6324625,1.8335283
9.924032,-1.6228879999999999,1.8718264999999998
9.924032,-1.6228879999999999,1.8718264999999998
9.924032,-1.6228879999999999,1.8718264999999998
9.924032,-1.6228879999999999,1.8718264999999998
9.742115,-1.469695,1.9196993000000002
9.742115,-1.469695,1.9196993000000002
9.742115,-1.469695,1.9196993000000002
9.742115,-1.469695,1.9196993000000002
9.742115,-1.469695,1.9196993000000002
9.713391,-1.6803354,1.8143792
9.713391,-1.6803354,1.8143792
9.713391,-1.6803354,1.8143792
9.933606,-1.7569318999999999,1.8814011999999998
9.933606,-1.7569318999999999,1.8814011999999998
9.933606,-1.7569318999999999,1.8814011999999998
9.933606,-1.7569318999999999,1.8814011999999998
9.655944,-1.709059,1.9005502
9.655944,-1.709059,1.9005502
9.655944,-1.709059,1.9005502
9.655944,-1.709059,1.9005502
9.655944,-1.709059,1.9005502
9.560199,-1.5941644,1.8239537000000001
9.560199,-1.5941644,1.8239537000000001
9.560199,-1.5941644,1.8239537000000001
9.531475,-1.469695,1.6611862000000002
9.531475,-1.469695,1.6611862000000002
9.531475,-1.469695,1.6611862000000002
9.531475,-1.469695,1.6611862000000002
9.780414,-1.5462915000000002,1.4792696
9.780414,-1.5462915000000002,1.4792696
9.780414,-1.5462915000000002,1.4792696
9.780414,-1.5462915000000002,1.4792696
9.64637,-1.4888442,1.2877783999999999
9.64637,-1.4888442,1.2877783999999999
9.64637,-1.4888442,1.2877783999999999
9.64637,-1.4888442,1.2877783999999999
9.933606,-1.5462915000000002,1.3739493999999999
9.933606,-1.5462915000000002,1.3739493999999999
9.933606,-1.5462915000000002,1.3739493999999999
9.933606,-1.5462915000000002,1.3739493999999999
9.770839,-1.4218222,1.6899098999999997
9.770839,-1.4218222,1.6899098999999997
9.770839,-1.4218222,1.6899098999999997
9.770839,-1.4218222,1.6899098999999997
9.847435,-1.6133133999999998,1.4792696
9.847435,-1.6133133999999998,1.4792696
9.847435,-1.6133133999999998,1.4792696
9.847435,-1.6133133999999998,1.4792696
9.971905,-1.6133133999999998,1.5271424
9.971905,-1.6133133999999998,1.5271424
9.971905,-1.6133133999999998,1.5271424
9.971905,-1.6133133999999998,1.5271424
10.125097,-1.6516117,1.6803354
10.125097,-1.6516117,1.6803354
10.125097,-1.6516117,1.6803354
10.125097,-1.6516117,1.6803354
9.761265,-1.6037389,1.6994845
9.761265,-1.6037389,1.6994845
9.761265,-1.6037389,1.6994845
9.761265,-1.6037389,1.6994845
9.828286,-1.5845897,1.7473572
9.828286,-1.5845897,1.7473572
9.828286,-1.5845897,1.7473572
9.799562,-1.7569318999999999,1.5175678999999997
9.799562,-1.7569318999999999,1.5175678999999997
9.799562,-1.7569318999999999,1.5175678999999997
9.799562,-1.7569318999999999,1.5175678999999997
9.799562,-1.7569318999999999,1.5175678999999997
9.971905,-1.7952299999999999,1.5175678999999997
9.971905,-1.7952299999999999,1.5175678999999997
9.971905,-1.7952299999999999,1.5175678999999997
9.971905,-1.7952299999999999,1.5175678999999997
10.038927000000001,-1.7665064,1.5367169
10.038927000000001,-1.7665064,1.5367169
10.038927000000001,-1.7665064,1.5367169
10.038927000000001,-1.7665064,1.5367169
9.703816999999999,-1.6324625,1.4601203999999999
9.703816999999999,-1.6324625,1.4601203999999999
9.703816999999999,-1.6324625,1.4601203999999999
9.703816999999999,-1.6324625,1.4601203999999999
9.837861,-1.9196993000000002,1.5367169
9.837861,-1.9196993000000002,1.5367169
9.837861,-1.9196993000000002,1.5367169
9.837861,-1.9196993000000002,1.5367169
9.837861,-1.9196993000000002,1.5367169
9.837861,-1.9196993000000002,1.5367169
9.837861,-1.9196993000000002,1.5367169
9.8953085,-1.4984187,1.9292740000000002
9.8953085,-1.4984187,1.9292740000000002
9.8953085,-1.4984187,1.9292740000000002
9.8953085,-1.4984187,1.9292740000000002
9.703816999999999,-1.4026731000000001,1.8526775000000002
9.703816999999999,-1.4026731000000001,1.8526775000000002
9.703816999999999,-1.4026731000000001,1.8526775000000002
9.703816999999999,-1.4026731000000001,1.8526775000000002
9.703816999999999,-1.4026731000000001,1.8526775000000002
9.828286,-1.5654407,1.7952299999999999
9.828286,-1.5654407,1.7952299999999999
9.828286,-1.5654407,1.7952299999999999
9.684667999999999,-1.5271424,1.7665064
9.684667999999999,-1.5271424,1.7665064
9.684667999999999,-1.5271424,1.7665064
9.684667999999999,-1.5271424,1.7665064
9.684667999999999,-1.5271424,1.7665064
9.5889225,-1.3165021000000001,1.8143792
9.5889225,-1.3165021000000001,1.8143792
9.5889225,-1.3165021000000001,1.8143792
9.5889225,-1.3165021000000001,1.8143792
9.512326,-1.2877783999999999,1.7186337
9.512326,-1.2877783999999999,1.7186337
9.512326,-1.2877783999999999,1.7186337
9.512326,-1.5845897,1.6037389
9.512326,-1.5845897,1.6037389
9.512326,-1.5845897,1.6037389
9.512326,-1.5845897,1.6037389
9.512326,-1.5845897,1.6037389
9.904882,-1.4792696,1.7856555
9.904882,-1.4792696,1.7856555
9.904882,-1.4792696,1.7856555
9.904882,-1.4792696,1.7856555
9.828286,-1.4505458999999998,1.9962958
9.828286,-1.4505458999999998,1.9962958
9.828286,-1.4505458999999998,1.9962958
9.971905,-1.709059,1.9388485
9.971905,-1.709059,1.9388485
9.971905,-1.709059,1.9388485
9.971905,-1.709059,1.9388485
9.904882,-1.5845897,1.8431028999999999
9.904882,-1.5845897,1.8431028999999999
9.904882,-1.5845897,1.8431028999999999
9.904882,-1.5845897,1.8431028999999999
9.904882,-1.5845897,1.8431028999999999
9.703816999999999,-1.6037389,1.9771467
9.703816999999999,-1.6037389,1.9771467
9.703816999999999,-1.6037389,1.9771467
9.703816999999999,-1.6037389,1.9771467
9.742115,-1.6516117,2.1399142999999996
9.742115,-1.6516117,2.1399142999999996
9.742115,-1.6516117,2.1399142999999996
9.8953085,-1.6324625,1.8814011999999998
9.8953085,-1.6324625,1.8814011999999998
9.8953085,-1.6324625,1.8814011999999998
9.8953085,-1.6324625,1.8814011999999998
9.8953085,-1.6324625,1.8814011999999998
9.770839,-1.6803354,1.6324625
9.770839,-1.6803354,1.6324625
9.770839,-1.6803354,1.6324625
9.7899885,-1.5271424,1.6420371999999999
9.7899885,-1.5271424,1.6420371999999999
9.7899885,-1.5271424,1.6420371999999999
9.7899885,-1.5271424,1.6420371999999999
9.885734,-1.6324625,1.7186337
9.885734,-1.6324625,1.7186337
9.885734,-1.6324625,1.7186337
9.885734,-1.6324625,1.7186337
9.885734,-1.6324625,1.7186337
9.933606,-1.469695,1.8909756999999998
9.933606,-1.469695,1.8909756999999998
9.933606,-1.469695,1.8909756999999998
9.818711,-1.4313968000000001,1.7952299999999999
9.818711,-1.4313968000000001,1.7952299999999999
9.818711,-1.4313968000000001,1.7952299999999999
9.818711,-1.4313968000000001,1.7952299999999999
9.799562,-1.4409714,1.8431028999999999
9.799562,-1.4409714,1.8431028999999999
9.799562,-1.4409714,1.8431028999999999
9.799562,-1.4409714,1.8431028999999999
9.933606,-1.5845897,1.9292740000000002
9.933606,-1.5845897,1.9292740000000002
9.933606,-1.5845897,1.9292740000000002
9.933606,-1.5845897,1.9292740000000002
9.742115,-1.6899098999999997,1.9867213
9.742115,-1.6899098999999997,1.9867213
9.742115,-1.6899098999999997,1.9867213
9.742115,-1.6899098999999997,1.9867213
9.885734,-2.1207652,1.709059
9.885734,-2.1207652,1.709059
9.885734,-2.1207652,1.709059
9.885734,-2.1207652,1.709059
9.732541000000001,-1.6803354,1.8431028999999999
9.732541000000001,-1.6803354,1.8431028999999999
9.732541000000001,-1.6803354,1.8431028999999999
9.732541000000001,-1.6803354,1.8431028999999999
9.732541000000001,-1.6803354,1.8431028999999999
9.722966,-1.6324625,1.9292740000000002
9.722966,-1.6324625,1.9292740000000002
9.722966,-1.6324625,1.9292740000000002
9.64637,-1.5845897,1.8718264999999998
9.64637,-1.5845897,1.8718264999999998
9.64637,-1.5845897,1.8718264999999998
9.64637,-1.5845897,1.8718264999999998
9.253813000000001,-1.2111819,1.8143792
9.253813000000001,-1.2111819,1.8143792
9.253813000000001,-1.2111819,1.8143792
9.253813000000001,-1.2111819,1.8143792
9.253813000000001,-1.2111819,1.8143792
9.818711,-2.2260852000000004,1.8239537000000001
9.818711,-2.2260852000000004,1.8239537000000001
9.818711,-2.2260852000000004,1.8239537000000001
9.876159,-1.9292740000000002,2.3505547000000004
9.876159,-1.9292740000000002,2.3505547000000004
9.876159,-1.9292740000000002,2.3505547000000004
9.876159,-1.9292740000000002,2.3505547000000004
9.876159,-1.9292740000000002,2.3505547000000004
9.75169,-2.4558747000000003,2.2643836
9.75169,-2.4558747000000003,2.2643836
9.75169,-2.4558747000000003,2.2643836
9.75169,-2.4558747000000003,2.2643836
10.450633,-3.6335455999999997,2.7622607000000006
10.450633,-3.6335455999999997,2.7622607000000006
10.450633,-3.6335455999999997,2.7622607000000006
10.450633,-3.6335455999999997,2.7622607000000006
12.442142,-5.4239883,3.9686553
12.442142,-5.4239883,3.9686553
12.442142,-5.4239883,3.9686553
12.442142,-5.4239883,3.9686553
13.23683,-4.6388745,5.38569
13.23683,-4.6388745,5.38569
13.23683,-4.6388745,5.38569
13.23683,-4.6388745,5.38569
11.398514,-2.7909843999999997,5.759098000000001
11.398514,-2.7909843999999997,5.759098000000001
11.398514,-2.7909843999999997,5.759098000000001
11.398514,-2.7909843999999997,5.759098000000001
8.028269,-1.9196993000000002,5.108028
8.028269,-1.9196993000000002,5.108028
8.028269,-1.9196993000000002,5.108028
8.028269,-1.9196993000000002,5.108028
5.500585,-1.0292653,4.102699299999999
5.500585,-1.0292653,4.102699299999999
5.500585,-1.0292653,4.102699299999999
5.500585,-1.0292653,4.102699299999999
4.08355,-2.3984275,5.1367517
4.08355,-2.3984275,5.1367517
4.08355,-2.3984275,5.1367517
4.08355,-2.3984275,5.1367517
3.6526947,-1.9292740000000002,5.634629
3.6526947,-1.9292740000000002,5.634629
3.6526947,-1.9292740000000002,5.634629
3.6526947,-1.9292740000000002,5.634629
3.1548176,-1.2303311000000001,6.5729356
3.1548176,-1.2303311000000001,6.5729356
3.1548176,-1.2303311000000001,6.5729356
3.1548176,-1.2303311000000001,6.5729356
14.443225,-5.538883,3.2218397000000003
14.443225,-5.538883,3.2218397000000003
14.443225,-5.538883,3.2218397000000003
14.443225,-5.538883,3.2218397000000003
11.685751,-4.322914,2.360129
11.685751,-4.322914,2.360129
11.685751,-4.322914,2.360129
11.685751,-4.322914,2.360129
9.454879,0.2154276,2.0058703
9.454879,0.2154276,2.0058703
9.454879,0.2154276,2.0058703
9.454879,0.2154276,2.0058703
9.119769,-0.03351096,1.862252
9.119769,-0.03351096,1.862252
9.119769,-0.03351096,1.862252
9.119769,-0.03351096,1.862252
9.914457,-0.5313880999999999,1.8718264999999998
9.914457,-0.5313880999999999,1.8718264999999998
9.914457,-0.5313880999999999,1.8718264999999998
9.914457,-0.5313880999999999,1.8718264999999998
9.933606,-0.44521707,1.6707608
9.933606,-0.44521707,1.6707608
9.933606,-0.44521707,1.6707608
9.933606,-0.44521707,1.6707608
10.441058,-0.014361841,1.4601203999999999
10.441058,-0.014361841,1.4601203999999999
10.441058,-0.014361841,1.4601203999999999
10.441058,-0.014361841,1.4601203999999999
9.885734,0.13883112,1.2303311000000001
9.885734,0.13883112,1.2303311000000001
9.885734,0.13883112,1.2303311000000001
9.885734,0.13883112,1.2303311000000001
9.885734,0.13883112,1.2303311000000001
9.96233,0.59841,1.14416
9.96233,0.59841,1.14416
9.96233,0.59841,1.14416
9.991054,0.39734426,0.8760723
9.991054,0.39734426,0.8760723
9.991054,0.39734426,0.8760723
9.991054,0.39734426,0.8760723
9.991054,0.39734426,0.8760723
10.153821,0.6845810999999999,0.8952214
10.153821,0.6845810999999999,0.8952214
10.153821,0.6845810999999999,0.8952214
10.153821,0.6845810999999999,0.8952214
9.96233,-0.03351096,0.56011176
9.96233,-0.03351096,0.56011176
9.96233,-0.03351096,0.56011176
10.010203,0.5313880999999999,0.7420284
10.010203,0.5313880999999999,0.7420284
10.010203,0.5313880999999999,0.7420284
10.010203,0.5313880999999999,0.7420284
10.010203,0.5313880999999999,0.7420284
10.316589,-0.5313880999999999,0.56011176
10.316589,-0.5313880999999999,0.56011176
10.316589,-0.5313880999999999,0.56011176
10.316589,-0.5313880999999999,0.56011176
9.809137,-0.16755481,0.77075213
9.809137,-0.16755481,0.77075213
9.809137,-0.16755481,0.77075213
9.809137,-0.16755481,0.77075213
10.326163000000001,-0.16755481,0.7420284
10.326163000000001,-0.16755481,0.7420284
10.326163000000001,-0.16755481,0.7420284
10.326163000000001,-0.16755481,0.7420284
10.105948,-0.61755913,1.0005416
10.105948,-0.61755913,1.0005416
10.105948,-0.61755913,1.0005416
10.105948,-0.61755913,1.0005416
10.153821,-0.37819514,1.2590546999999999
10.153821,-0.37819514,1.2590546999999999
10.153821,-0.37819514,1.2590546999999999
10.153821,-0.37819514,1.2590546999999999
10.058076,-0.5505372,1.2973529
10.058076,-0.5505372,1.2973529
10.058076,-0.5505372,1.2973529
10.058076,-0.5505372,1.2973529
10.134672,-0.70373017,1.2016073
10.134672,-0.70373017,1.2016073
10.134672,-0.70373017,1.2016073
10.134672,-0.70373017,1.2016073
9.933606,-0.9718179,1.1250108
9.933606,-0.9718179,1.1250108
9.933606,-0.9718179,1.1250108
9.933606,-0.9718179,1.1250108
9.914457,-0.9718179,1.1537346000000002
9.914457,-0.9718179,1.1537346000000002
9.914457,-0.9718179,1.1537346000000002
9.914457,-0.9718179,1.1537346000000002
9.722966,-0.93351966,1.0771381000000002
9.722966,-0.93351966,1.0771381000000002
9.722966,-0.93351966,1.0771381000000002
9.722966,-0.93351966,1.0771381000000002
9.85701,-1.0005416,0.91437054
9.85701,-1.0005416,0.91437054
9.85701,-1.0005416,0.91437054
9.85701,-1.0005416,0.91437054
10.038927000000001,-1.0292653,0.9430941999999999
10.038927000000001,-1.0292653,0.9430941999999999
10.038927000000001,-1.0292653,0.9430941999999999
10.038927000000001,-1.0292653,0.9430941999999999
9.933606,-1.0579889,1.0962871
9.933606,-1.0579889,1.0962871
9.933606,-1.0579889,1.0962871
9.933606,-1.0579889,1.0962871
9.96233,-0.85692316,1.3739493999999999
9.96233,-0.85692316,1.3739493999999999
9.96233,-0.85692316,1.3739493999999999
9.96233,-0.85692316,1.3739493999999999
9.847435,-0.91437054,1.4026731000000001
9.847435,-0.91437054,1.4026731000000001
9.847435,-0.91437054,1.4026731000000001
9.847435,-0.91437054,1.4026731000000001
10.000628,-1.0771381000000002,1.2111819
10.000628,-1.0771381000000002,1.2111819
10.000628,-1.0771381000000002,1.2111819
10.000628,-1.0771381000000002,1.2111819
10.029352000000001,-1.1250108,1.2686293
10.029352000000001,-1.1250108,1.2686293
10.029352000000001,-1.1250108,1.2686293
10.029352000000001,-1.1250108,1.2686293
10.096374,-1.1824582000000001,1.1920328000000002
10.096374,-1.1824582000000001,1.1920328000000002
10.096374,-1.1824582000000001,1.1920328000000002
10.096374,-1.1824582000000001,1.1920328000000002
9.904882,-1.1633091,1.0675635
9.904882,-1.1633091,1.0675635
9.904882,-1.1633091,1.0675635
9.904882,-1.1633091,1.0675635
9.866585,-1.1920328000000002,1.2111819
9.866585,-1.1920328000000002,1.2111819
9.866585,-1.1920328000000002,1.2111819
9.866585,-1.1920328000000002,1.2111819
9.943181,-1.2016073,1.2207563999999997
9.943181,-1.2016073,1.2207563999999997
9.943181,-1.2016073,1.2207563999999997
9.943181,-1.2016073,1.2207563999999997
10.144247,-1.2877783999999999,1.4792696
10.144247,-1.2877783999999999,1.4792696
10.144247,-1.2877783999999999,1.4792696
10.144247,-1.2877783999999999,1.4792696
10.029352000000001,-1.1824582000000001,1.6611862000000002
10.029352000000001,-1.1824582000000001,1.6611862000000002
10.029352000000001,-1.1824582000000001,1.6611862000000002
10.029352000000001,-1.1824582000000001,1.6611862000000002
9.98148,-1.1058618,1.6133133999999998
9.98148,-1.1058618,1.6133133999999998
9.98148,-1.1058618,1.6133133999999998
9.98148,-1.1058618,1.6133133999999998
9.943181,-1.2590546999999999,1.5462915000000002
9.943181,-1.2590546999999999,1.5462915000000002
9.943181,-1.2590546999999999,1.5462915000000002
9.943181,-1.2590546999999999,1.5462915000000002
9.761265,-1.2494801000000002,1.4601203999999999
9.761265,-1.2494801000000002,1.4601203999999999
9.761265,-1.2494801000000002,1.4601203999999999
9.761265,-1.2494801000000002,1.4601203999999999
9.732541000000001,-1.3069274,1.383524
9.732541000000001,-1.3069274,1.383524
9.732541000000001,-1.3069274,1.383524
9.732541000000001,-1.3069274,1.383524
9.828286,-1.3548003,1.1345854
9.828286,-1.3548003,1.1345854
9.828286,-1.3548003,1.1345854
9.828286,-1.3548003,1.1345854
9.8953085,-1.3356511999999998,0.9622433000000001
9.8953085,-1.3356511999999998,0.9622433000000001
9.8953085,-1.3356511999999998,0.9622433000000001
9.8953085,-1.3356511999999998,0.9622433000000001
9.8953085,-1.3356511999999998,0.9622433000000001
9.933606,-1.1345854,1.1058618
9.933606,-1.1345854,1.1058618
9.933606,-1.1345854,1.1058618
9.943181,-1.0484143,1.1824582000000001
9.943181,-1.0484143,1.1824582000000001
9.943181,-1.0484143,1.1824582000000001
9.943181,-1.0484143,1.1824582000000001
9.952755999999999,-0.92394507,1.2016073
9.952755999999999,-0.92394507,1.2016073
9.952755999999999,-0.92394507,1.2016073
9.952755999999999,-0.92394507,1.2016073
9.952755999999999,-0.92394507,1.2016073
10.06765,-1.0292653,1.0292653
10.06765,-1.0292653,1.0292653
10.06765,-1.0292653,1.0292653
9.991054,-1.0962871,1.0867126
9.991054,-1.0962871,1.0867126
9.991054,-1.0962871,1.0867126
9.991054,-1.0962871,1.0867126
9.991054,-1.0962871,1.0867126
9.847435,-1.2111819,1.2782038
9.847435,-1.2111819,1.2782038
9.847435,-1.2111819,1.2782038
9.847435,-1.2111819,1.2782038
9.866585,-1.2016073,1.2303311000000001
9.866585,-1.2016073,1.2303311000000001
9.866585,-1.2016073,1.2303311000000001
10.048501,-1.3930986,1.0484143
10.048501,-1.3930986,1.0484143
10.048501,-1.3930986,1.0484143
10.048501,-1.3930986,1.0484143
10.048501,-1.4601203999999999,1.2016073
10.048501,-1.4601203999999999,1.2016073
10.048501,-1.4601203999999999,1.2016073
10.048501,-1.4601203999999999,1.2016073
10.000628,-1.3165021000000001,1.2782038
10.000628,-1.3165021000000001,1.2782038
10.000628,-1.3165021000000001,1.2782038
10.000628,-1.3165021000000001,1.2782038
9.933606,-1.4313968000000001,1.2686293
9.933606,-1.4313968000000001,1.2686293
9.933606,-1.4313968000000001,1.2686293
9.933606,-1.4313968000000001,1.2686293
10.000628,-1.4601203999999999,1.469695
10.000628,-1.4601203999999999,1.469695
10.000628,-1.4601203999999999,1.469695
10.000628,-1.4601203999999999,1.469695
10.115523,-1.383524,1.4888442
10.115523,-1.383524,1.4888442
10.115523,-1.383524,1.4888442
10.115523,-1.383524,1.4888442
9.971905,-1.3930986,1.3260766000000002
9.971905,-1.3930986,1.3260766000000002
9.971905,-1.3930986,1.3260766000000002
9.971905,-1.3930986,1.3260766000000002
9.866585,-1.3260766000000002,1.1537346000000002
9.866585,-1.3260766000000002,1.1537346000000002
9.866585,-1.3260766000000002,1.1537346000000002
9.866585,-1.3260766000000002,1.1537346000000002
9.866585,-1.3260766000000002,1.1537346000000002
9.75169,-1.4601203999999999,1.0675635
9.75169,-1.4601203999999999,1.0675635
9.75169,-1.4601203999999999,1.0675635
9.665519,-1.5271424,1.0292653
9.665519,-1.5271424,1.0292653
9.665519,-1.5271424,1.0292653
9.665519,-1.5271424,1.0292653
9.828286,-1.5079931999999998,0.91437054
9.828286,-1.5079931999999998,0.91437054
9.828286,-1.5079931999999998,0.91437054
9.828286,-1.5079931999999998,0.91437054
9.933606,-1.7282081999999999,0.8952214
9.933606,-1.7282081999999999,0.8952214
9.933606,-1.7282081999999999,0.8952214
9.933606,-1.7282081999999999,0.8952214
9.837861,-1.4792696,1.3643749
9.837861,-1.4792696,1.3643749
9.837861,-1.4792696,1.3643749
9.837861,-1.4792696,1.3643749
9.924032,-1.2111819,1.5271424
9.924032,-1.2111819,1.5271424
9.924032,-1.2111819,1.5271424
9.924032,-1.2111819,1.5271424
9.866585,-1.5079931999999998,1.2111819
9.866585,-1.5079931999999998,1.2111819
9.866585,-1.5079931999999998,1.2111819
9.866585,-1.5079931999999998,1.2111819
9.914457,-1.6037389,1.1250108
9.914457,-1.6037389,1.1250108
9.914457,-1.6037389,1.1250108
9.914457,-1.6037389,1.1250108
9.924032,-1.6611862000000002,1.2016073
9.924032,-1.6611862000000002,1.2016073
9.924032,-1.6611862000000002,1.2016073
9.924032,-1.6611862000000002,1.2016073
10.096374,-1.7377827000000001,1.1250108
10.096374,-1.7377827000000001,1.1250108
10.096374,-1.7377827000000001,1.1250108
10.096374,-1.7377827000000001,1.1250108
10.096374,-1.7377827000000001,1.1250108
9.971905,-1.9867213,1.1250108
9.971905,-1.9867213,1.1250108
9.971905,-1.9867213,1.1250108
9.914457,-1.9101248,1.4888442
9.914457,-1.9101248,1.4888442
9.914457,-1.9101248,1.4888442
9.914457,-1.9101248,1.4888442
9.914457,-1.9101248,1.4888442
9.885734,-2.0920415,1.5079931999999998
9.885734,-2.0920415,1.5079931999999998
9.885734,-2.0920415,1.5079931999999998
9.885734,-2.0920415,1.5079931999999998
9.904882,-2.168638,1.469695
9.904882,-2.168638,1.469695
9.904882,-2.168638,1.469695
9.569773,-2.1877869999999997,1.3739493999999999
9.569773,-2.1877869999999997,1.3739493999999999
9.569773,-2.1877869999999997,1.3739493999999999
9.569773,-2.1877869999999997,1.3739493999999999
9.569773,-2.1877869999999997,1.3739493999999999
9.445304,-2.4463003,1.4313968000000001
9.445304,-2.4463003,1.4313968000000001
9.445304,-2.4463003,1.4313968000000001
9.445304,-2.4463003,1.4313968000000001
9.569773,-3.1548176,1.4601203999999999
9.569773,-3.1548176,1.4601203999999999
9.569773,-3.1548176,1.4601203999999999
9.569773,-3.1548176,1.4601203999999999
9.378282,-4.150572,1.7377827000000001
9.378282,-4.150572,1.7377827000000001
9.378282,-4.150572,1.7377827000000001
9.378282,-4.150572,1.7377827000000001
8.976150500000001,-5.4335629999999995,2.1399142999999996
8.976150500000001,-5.4335629999999995,2.1399142999999996
8.976150500000001,-5.4335629999999995,2.1399142999999996
8.976150500000001,-5.4335629999999995,2.1399142999999996
8.392102000000001,-6.9559183,2.9154537
8.392102000000001,-6.9559183,2.9154537
8.392102000000001,-6.9559183,2.9154537
8.392102000000001,-6.9559183,2.9154537
7.970821400000001,-7.3389006,3.8824842000000004
7.970821400000001,-7.3389006,3.8824842000000004
7.970821400000001,-7.3389006,3.8824842000000004
7.970821400000001,-7.3389006,3.8824842000000004
7.731457700000001,-6.831449,3.5760984
7.731457700000001,-6.831449,3.5760984
7.731457700000001,-6.831449,3.5760984
7.731457700000001,-6.831449,3.5760984
7.616563,-6.0463347,2.6569404999999997
7.616563,-6.0463347,2.6569404999999997
7.616563,-6.0463347,2.6569404999999997
7.616563,-6.0463347,2.6569404999999997
8.076141,-3.6814184,2.0441686999999997
8.076141,-3.6814184,2.0441686999999997
8.076141,-3.6814184,2.0441686999999997
8.21976,1.5079931999999998,-0.47394073
8.21976,1.5079931999999998,-0.47394073
8.21976,1.5079931999999998,-0.47394073
8.21976,1.5079931999999998,-0.47394073
8.21976,1.5079931999999998,-0.47394073
9.301685,4.8207912,-2.972901
9.301685,4.8207912,-2.972901
9.301685,4.8207912,-2.972901
9.301685,4.8207912,-2.972901
13.868751000000001,2.427151,-2.2260852000000004
13.868751000000001,2.427151,-2.2260852000000004
13.868751000000001,2.427151,-2.2260852000000004
13.868751000000001,2.427151,-2.2260852000000004
19.594337,-13.409172,7.377198700000001
19.594337,-13.409172,7.377198700000001
19.594337,-13.409172,7.377198700000001
19.594337,-13.409172,7.377198700000001
16.406010000000002,-19.163483,6.1995277
16.406010000000002,-19.163483,6.1995277
16.406010000000002,-19.163483,6.1995277
16.406010000000002,-19.163483,6.1995277
-1.1633091,-8.181462,2.7239625
-1.1633091,-8.181462,2.7239625
-1.1633091,-8.181462,2.7239625
-1.1633091,-8.181462,2.7239625
-12.805975,-4.0931244,-0.28244954
-12.805975,-4.0931244,-0.28244954
-12.805975,-4.0931244,-0.28244954
-12.805975,-4.0931244,-0.28244954
-8.813383,-7.1857076,-1.3452256999999999
-8.813383,-7.1857076,-1.3452256999999999
-8.813383,-7.1857076,-1.3452256999999999
-8.813383,-7.1857076,-1.3452256999999999
10.029352000000001,-19.594337,7.1474094
10.029352000000001,-19.594337,7.1474094
10.029352000000001,-19.594337,7.1474094
10.029352000000001,-19.594337,7.1474094
19.594337,-19.163483,6.0080366
19.594337,-19.163483,6.0080366
19.594337,-19.163483,6.0080366
19.594337,-19.163483,6.0080366
15.534723999999999,0.05266008,-8.305931
15.534723999999999,0.05266008,-8.305931
15.534723999999999,0.05266008,-8.305931
15.534723999999999,0.05266008,-8.305931
8.957002000000001,19.603912,-11.877241999999999
8.957002000000001,19.603912,-11.877241999999999
8.957002000000001,19.603912,-11.877241999999999
8.957002000000001,19.603912,-11.877241999999999
17.047504,19.278378,-9.5219
17.047504,19.278378,-9.5219
17.047504,19.278378,-9.5219
17.047504,19.278378,-9.5219
19.594337,-13.859176999999999,0.63670826
19.594337,-13.859176999999999,0.63670826
19.594337,-13.859176999999999,0.63670826
19.594337,-13.859176999999999,0.63670826
15.73579,-19.594337,5.950589
15.73579,-19.594337,5.950589
15.73579,-19.594337,5.950589
15.73579,-19.594337,5.950589
-12.767676,-0.2441513,1.469695
-12.767676,-0.2441513,1.469695
-12.767676,-0.2441513,1.469695
-12.767676,-0.2441513,1.469695
-19.603912,6.544212,-4.3516379999999995
-19.603912,6.544212,-4.3516379999999995
-19.603912,6.544212,-4.3516379999999995
-19.603912,6.544212,-4.3516379999999995
-14.759185,-8.32508,-2.2165107999999996
-14.759185,-8.32508,-2.2165107999999996
-14.759185,-8.32508,-2.2165107999999996
-14.759185,-8.32508,-2.2165107999999996
18.158154,-19.594337,15.774088
18.158154,-19.594337,15.774088
18.158154,-19.594337,15.774088
18.158154,-19.594337,15.774088
19.594337,-12.049584,-2.2260852000000004
19.594337,-12.049584,-2.2260852000000004
19.594337,-12.049584,-2.2260852000000004
19.594337,-12.049584,-2.2260852000000004
19.594337,-12.049584,-2.2260852000000004
18.071983,15.3049345,-19.603912
18.071983,15.3049345,-19.603912
18.071983,15.3049345,-19.603912
15.601747,19.603912,-19.603912
15.601747,19.603912,-19.603912
15.601747,19.603912,-19.603912
15.601747,19.603912,-19.603912
19.594337,-7.6740103,-6.7740016
19.594337,-7.6740103,-6.7740016
19.594337,-7.6740103,-6.7740016
19.594337,-7.6740103,-6.7740016
19.594337,-7.6740103,-6.7740016
17.277294,-19.594337,9.349558
17.277294,-19.594337,9.349558
17.277294,-19.594337,9.349558
-11.140001,-4.0548263,1.5845897
-11.140001,-4.0548263,1.5845897
-11.140001,-4.0548263,1.5845897
-11.140001,-4.0548263,1.5845897
-19.603912,1.5175678999999997,-2.6090677
-19.603912,1.5175678999999997,-2.6090677
-19.603912,1.5175678999999997,-2.6090677
-19.603912,1.5175678999999997,-2.6090677
-19.603912,1.5175678999999997,-2.6090677
-18.177303,-4.236743,-0.062234644000000006
-18.177303,-4.236743,-0.062234644000000006
-18.177303,-4.236743,-0.062234644000000006
10.239991999999999,-19.594337,16.406010000000002
10.239991999999999,-19.594337,16.406010000000002
10.239991999999999,-19.594337,16.406010000000002
10.239991999999999,-19.594337,16.406010000000002
19.594337,-18.694329999999997,2.1207652
19.594337,-18.694329999999997,2.1207652
19.594337,-18.694329999999997,2.1207652
19.594337,-18.694329999999997,2.1207652
19.594337,-18.694329999999997,2.1207652
19.421995000000003,5.845269,-18.397517999999998
19.421995000000003,5.845269,-18.397517999999998
19.421995000000003,5.845269,-18.397517999999998
19.421995000000003,5.845269,-18.397517999999998
19.421995000000003,5.845269,-18.397517999999998
19.421995000000003,5.845269,-18.397517999999998
19.421995000000003,5.845269,-18.397517999999998
19.192207,11.628304,-11.666602000000001
19.192207,11.628304,-11.666602000000001
19.192207,11.628304,-11.666602000000001
19.192207,11.628304,-11.666602000000001
19.594337,-19.13476,4.6771727
19.594337,-19.13476,4.6771727
19.594337,-19.13476,4.6771727
19.594337,-19.13476,4.6771727
16.884737,-19.594337,6.2665496
16.884737,-19.594337,6.2665496
16.884737,-19.594337,6.2665496
16.884737,-19.594337,6.2665496
-8.545295,-2.8101335,-3.9782297999999994
-8.545295,-2.8101335,-3.9782297999999994
-8.545295,-2.8101335,-3.9782297999999994
-8.545295,-2.8101335,-3.9782297999999994
-8.545295,-2.8101335,-3.9782297999999994
-19.603912,2.5228968,-8.459125
-19.603912,2.5228968,-8.459125
-19.603912,2.5228968,-8.459125
-14.653865,-17.679426,1.862252
-14.653865,-17.679426,1.862252
-14.653865,-17.679426,1.862252
-14.653865,-17.679426,1.862252
17.928364000000002,-19.594337,17.698574
17.928364000000002,-19.594337,17.698574
17.928364000000002,-19.594337,17.698574
17.928364000000002,-19.594337,17.698574
17.928364000000002,-19.594337,17.698574
19.594337,-15.362382,-1.6707608
19.594337,-15.362382,-1.6707608
19.594337,-15.362382,-1.6707608
18.541135999999998,14.376203,-19.603912
18.541135999999998,14.376203,-19.603912
18.541135999999998,14.376203,-19.603912
18.541135999999998,14.376203,-19.603912
16.271964999999998,19.603912,-19.508167
16.271964999999998,19.603912,-19.508167
16.271964999999998,19.603912,-19.508167
16.271964999999998,19.603912,-19.508167
19.594337,-13.34215,0.76117754
19.594337,-13.34215,0.76117754
19.594337,-13.34215,0.76117754
19.594337,-13.34215,0.76117754
16.587927,-19.594337,14.53897
16.587927,-19.594337,14.53897
16.587927,-19.594337,14.53897
16.587927,-19.594337,14.53897
-9.847435,-2.9537517999999996,2.7622607000000006
-9.847435,-2.9537517999999996,2.7622607000000006
-9.847435,-2.9537517999999996,2.7622607000000006
-9.847435,-2.9537517999999996,2.7622607000000006
-19.603912,-3.8729098,-9.799562
-19.603912,-3.8729098,-9.799562
-19.603912,-3.8729098,-9.799562
-19.603912,-3.8729098,-9.799562
-19.603912,-3.8729098,-9.799562
-13.476192999999999,-19.594337,4.5144053
-13.476192999999999,-19.594337,4.5144053
-13.476192999999999,-19.594337,4.5144053
17.124102,-19.594337,19.594337
17.124102,-19.594337,19.594337
17.124102,-19.594337,19.594337
17.124102,-19.594337,19.594337
17.124102,-19.594337,19.594337
19.594337,-15.927280999999999,2.2452345
19.594337,-15.927280999999999,2.2452345
19.594337,-15.927280999999999,2.2452345
19.594337,-15.927280999999999,2.2452345
19.192207,13.552791000000001,-19.603912
19.192207,13.552791000000001,-19.603912
19.192207,13.552791000000001,-19.603912
19.039013,19.603912,-19.603912
19.039013,19.603912,-19.603912
19.039013,19.603912,-19.603912
19.039013,19.603912,-19.603912
19.039013,19.603912,-19.603912
19.594337,-13.3612995,-5.9027166
19.594337,-13.3612995,-5.9027166
19.594337,-13.3612995,-5.9027166
19.594337,-13.3612995,-5.9027166
19.479443,-19.594337,17.803895999999998
19.479443,-19.594337,17.803895999999998
19.479443,-19.594337,17.803895999999998
19.479443,-19.594337,17.803895999999998
4.658024,-14.577269,9.196365
4.658024,-14.577269,9.196365
4.658024,-14.577269,9.196365
-19.603912,-5.653778,-5.759098000000001
-19.603912,-5.653778,-5.759098000000001
-19.603912,-5.653778,-5.759098000000001
-19.603912,-5.653778,-5.759098000000001
-19.603912,-5.653778,-5.759098000000001
-19.603912,-9.550624000000001,-6.3431463
-19.603912,-9.550624000000001,-6.3431463
-19.603912,-9.550624000000001,-6.3431463
-19.603912,-9.550624000000001,-6.3431463
1.9675721999999998,-19.594337,15.936856
1.9675721999999998,-19.594337,15.936856
1.9675721999999998,-19.594337,15.936856
19.594337,-19.594337,10.488931
19.594337,-19.594337,10.488931
19.594337,-19.594337,10.488931
19.594337,-19.594337,10.488931
19.594337,-19.594337,10.488931
19.489017,-1.9101248,-11.532558
19.489017,-1.9101248,-11.532558
19.489017,-1.9101248,-11.532558
19.489017,-1.9101248,-11.532558
14.941101999999999,19.603912,-14.232584
14.941101999999999,19.603912,-14.232584
14.941101999999999,19.603912,-14.232584
18.521988,12.863422,-14.20386
18.521988,12.863422,-14.20386
18.521988,12.863422,-14.20386
18.521988,12.863422,-14.20386
18.521988,12.863422,-14.20386
19.594337,-19.594337,6.036760299999999
19.594337,-19.594337,6.036760299999999
19.594337,-19.594337,6.036760299999999
19.594337,-19.594337,6.036760299999999
15.668768,-19.594337,12.518738
15.668768,-19.594337,12.518738
15.668768,-19.594337,12.518738
15.668768,-19.594337,12.518738
-10.958084,-8.526146,-0.48351530000000004
-10.958084,-8.526146,-0.48351530000000004
-10.958084,-8.526146,-0.48351530000000004
-10.958084,-8.526146,-0.48351530000000004
-19.603912,0.69415563,-3.2601378
-19.603912,0.69415563,-3.2601378
-19.603912,0.69415563,-3.2601378
-19.603912,0.69415563,-3.2601378
-14.184710999999998,-17.574106,8.564445
-14.184710999999998,-17.574106,8.564445
-14.184710999999998,-17.574106,8.564445
-14.184710999999998,-17.574106,8.564445
17.497509,-19.594337,18.847523000000002
17.497509,-19.594337,18.847523000000002
17.497509,-19.594337,18.847523000000002
17.497509,-19.594337,18.847523000000002
19.594337,-13.370873000000001,-1.3069274
19.594337,-13.370873000000001,-1.3069274
19.594337,-13.370873000000001,-1.3069274
19.594337,-13.370873000000001,-1.3069274
18.081557999999998,15.678343,-18.770926
18.081557999999998,15.678343,-18.770926
18.081557999999998,15.678343,-18.770926
18.081557999999998,15.678343,-18.770926
15.802812,19.603912,-17.353891
15.802812,19.603912,-17.353891
15.802812,19.603912,-17.353891
15.802812,19.603912,-17.353891
19.594337,-12.499589,-4.5527034
19.594337,-12.499589,-4.5527034
19.594337,-12.499589,-4.5527034
19.594337,-12.499589,-4.5527034
18.924118,-19.594337,12.805975
18.924118,-19.594337,12.805975
18.924118,-19.594337,12.805975
18.924118,-19.594337,12.805975
-1.8909756999999998,-9.876159,3.7101421
-1.8909756999999998,-9.876159,3.7101421
-1.8909756999999998,-9.876159,3.7101421
-1.8909756999999998,-9.876159,3.7101421
-1.8909756999999998,-9.876159,3.7101421
-19.603912,0.2154276,0.03351096
-19.603912,0.2154276,0.03351096
-19.603912,0.2154276,0.03351096
-19.000715,-9.512326,2.2260852000000004
-19.000715,-9.512326,2.2260852000000004
-19.000715,-9.512326,2.2260852000000004
-19.000715,-9.512326,2.2260852000000004
3.0303482999999996,-19.594337,14.491097
3.0303482999999996,-19.594337,14.491097
3.0303482999999996,-19.594337,14.491097
3.0303482999999996,-19.594337,14.491097
19.594337,-19.45072,9.368708
19.594337,-19.45072,9.368708
19.594337,-19.45072,9.368708
19.594337,-19.45072,9.368708
19.57519,-2.1111906000000005,-7.195282000000001
19.57519,-2.1111906000000005,-7.195282000000001
19.57519,-2.1111906000000005,-7.195282000000001
19.57519,-2.1111906000000005,-7.195282000000001
17.315592000000002,19.603912,-12.834699
17.315592000000002,19.603912,-12.834699
17.315592000000002,19.603912,-12.834699
17.315592000000002,19.603912,-12.834699
19.077312,13.093211,-14.711312
19.077312,13.093211,-14.711312
19.077312,13.093211,-14.711312
19.077312,13.093211,-14.711312
19.594337,-18.454966,-1.4888442
19.594337,-18.454966,-1.4888442
19.594337,-18.454966,-1.4888442
19.594337,-18.454966,-1.4888442
16.147495000000003,-19.594337,8.066567
16.147495000000003,-19.594337,8.066567
16.147495000000003,-19.594337,8.066567
16.147495000000003,-19.594337,8.066567
-9.732541000000001,-10.077225,1.2399056
-9.732541000000001,-10.077225,1.2399056
-9.732541000000001,-10.077225,1.2399056
-9.732541000000001,-10.077225,1.2399056
-9.732541000000001,-10.077225,1.2399056
-19.603912,-0.2154276,-2.9154537
-19.603912,-0.2154276,-2.9154537
-19.603912,-0.2154276,-2.9154537
-15.276210999999998,-17.047504,2.752686
-15.276210999999998,-17.047504,2.752686
-15.276210999999998,-17.047504,2.752686
-15.276210999999998,-17.047504,2.752686
-15.276210999999998,-17.047504,2.752686
-15.276210999999998,-17.047504,2.752686
-15.276210999999998,-17.047504,2.752686
-15.276210999999998,-17.047504,2.752686
19.594337,-15.419829,-1.7282081999999999
19.594337,-15.419829,-1.7282081999999999
19.594337,-15.419829,-1.7282081999999999
19.594337,-15.419829,-1.7282081999999999
19.412422,10.795316999999999,-17.497509
19.412422,10.795316999999999,-17.497509
19.412422,10.795316999999999,-17.497509
19.412422,10.795316999999999,-17.497509
16.15707,19.603912,-15.573023000000001
16.15707,19.603912,-15.573023000000001
16.15707,19.603912,-15.573023000000001
16.15707,19.603912,-15.573023000000001
19.594337,-8.478273,-9.100619
19.594337,-8.478273,-9.100619
19.594337,-8.478273,-9.100619
19.594337,-8.478273,-9.100619
18.952842999999998,-19.594337,11.580430999999999
18.952842999999998,-19.594337,11.580430999999999
18.952842999999998,-19.594337,11.580430999999999
18.952842999999998,-19.594337,11.580430999999999
0.61755913,-10.6134,5.1846247000000005
0.61755913,-10.6134,5.1846247000000005
0.61755913,-10.6134,5.1846247000000005
0.61755913,-10.6134,5.1846247000000005
-18.809223,-0.56011176,-3.7963133
-18.809223,-0.56011176,-3.7963133
-18.809223,-0.56011176,-3.7963133
-18.809223,-0.56011176,-3.7963133
-19.53689,-8.258059,-3.9399316
-19.53689,-8.258059,-3.9399316
-19.53689,-8.258059,-3.9399316
-19.53689,-8.258059,-3.9399316
-0.93351966,-19.594337,14.443225
-0.93351966,-19.594337,14.443225
-0.93351966,-19.594337,14.443225
-0.93351966,-19.594337,14.443225
-0.93351966,-19.594337,14.443225
19.594337,-19.268803,11.063405
19.594337,-19.268803,11.063405
19.594337,-19.268803,11.063405
19.383698000000003,-4.4186597,-10.699572
19.383698000000003,-4.4186597,-10.699572
19.383698000000003,-4.4186597,-10.699572
19.383698000000003,-4.4186597,-10.699572
15.08472,19.603912,-11.532558
15.08472,19.603912,-11.532558
15.08472,19.603912,-11.532558
15.08472,19.603912,-11.532558
15.08472,19.603912,-11.532558
18.42624,13.935773000000001,-11.810221
18.42624,13.935773000000001,-11.810221
18.42624,13.935773000000001,-11.810221
19.594337,-17.574106,2.9346027
19.594337,-17.574106,2.9346027
19.594337,-17.574106,2.9346027
19.594337,-17.574106,2.9346027
16.84644,-19.594337,10.938935
16.84644,-19.594337,10.938935
16.84644,-19.594337,10.938935
16.84644,-19.594337,10.938935
16.84644,-19.594337,10.938935
-7.4537954,-8.621891999999999,1.4313968000000001
-7.4537954,-8.621891999999999,1.4313968000000001
-7.4537954,-8.621891999999999,1.4313968000000001
-19.603912,1.3165021000000001,-3.5569491
-19.603912,1.3165021000000001,-3.5569491
-19.603912,1.3165021000000001,-3.5569491
-19.603912,1.3165021000000001,-3.5569491
-17.832619,-11.905966000000001,-1.3548003
-17.832619,-11.905966000000001,-1.3548003
-17.832619,-11.905966000000001,-1.3548003
-17.832619,-11.905966000000001,-1.3548003
11.542132,-19.594337,18.44539
11.542132,-19.594337,18.44539
11.542132,-19.594337,18.44539
11.542132,-19.594337,18.44539
11.542132,-19.594337,18.44539
19.594337,-16.396435,6.697405000000001
19.594337,-16.396435,6.697405000000001
