accx,accy,accz
1.0005416,7.137835000000001,2.7431116
1.0005416,7.137835000000001,2.7431116
1.1537346000000002,5.9697385,2.8197080000000003
1.1537346000000002,5.9697385,2.8197080000000003
1.1537346000000002,5.9697385,2.8197080000000003
0.05266008,5.452712,2.666515
0.05266008,5.452712,2.666515
0.05266008,5.452712,2.666515
0.05266008,5.452712,2.666515
-0.10053288,3.193116,2.3984275
-0.10053288,3.193116,2.3984275
-0.10053288,3.193116,2.3984275
-0.10053288,3.193116,2.3984275
-0.10053288,3.193116,2.3984275
2.9346027,-0.34947145,4.236743
2.9346027,-0.34947145,4.236743
2.9346027,-0.34947145,4.236743
7.587839,-4.7920675,4.8878129999999995
7.587839,-4.7920675,4.8878129999999995
7.587839,-4.7920675,4.8878129999999995
7.587839,-4.7920675,4.8878129999999995
15.103869,-4.3324885,1.9867213
15.103869,-4.3324885,1.9867213
15.103869,-4.3324885,1.9867213
15.103869,-4.3324885,1.9867213
19.594337,-7.2335806,1.5750152
19.594337,-7.2335806,1.5750152
19.594337,-7.2335806,1.5750152
19.594337,-7.2335806,1.5750152
19.594337,-7.2335806,1.5750152
14.988975,-8.650616000000001,1.3930986
14.988975,-8.650616000000001,1.3930986
14.988975,-8.650616000000001,1.3930986
11.513409,-5.261221,0.43564250000000004
11.513409,-5.261221,0.43564250000000004
11.513409,-5.261221,0.43564250000000004
11.513409,-5.261221,0.43564250000000004
10.642124,-4.696322,1.6228879999999999
10.642124,-4.696322,1.6228879999999999
10.642124,-4.696322,1.6228879999999999
10.642124,-4.696322,1.6228879999999999
10.642124,-4.696322,1.6228879999999999
10.230417999999998,-4.945260500000001,-0.10053288
10.230417999999998,-4.945260500000001,-0.10053288
10.230417999999998,-4.945260500000001,-0.10053288
9.722966,-4.409085299999999,-0.61755913
9.722966,-4.409085299999999,-0.61755913
9.722966,-4.409085299999999,-0.61755913
9.722966,-4.409085299999999,-0.61755913
9.722966,-4.409085299999999,-0.61755913
10.000628,-1.6899098999999997,0.6845810999999999
10.000628,-1.6899098999999997,0.6845810999999999
10.000628,-1.6899098999999997,0.6845810999999999
10.000628,-1.6899098999999997,0.6845810999999999
10.058076,0.33032233,0.7228793
10.058076,0.33032233,0.7228793
10.058076,0.33032233,0.7228793
10.058076,0.33032233,0.7228793
9.799562,-1.2877783999999999,-0.6079846
9.799562,-1.2877783999999999,-0.6079846
9.799562,-1.2877783999999999,-0.6079846
10.182545,-1.709059,0.36862057
10.182545,-1.709059,0.36862057
10.182545,-1.709059,0.36862057
10.182545,-1.709059,0.36862057
10.182545,-1.709059,0.36862057
9.8953085,-2.6090677,0.37819514
9.8953085,-2.6090677,0.37819514
9.8953085,-2.6090677,0.37819514
9.8953085,-2.6090677,0.37819514
9.866585,-1.8718264999999998,-0.110107444
9.866585,-1.8718264999999998,-0.110107444
9.866585,-1.8718264999999998,-0.110107444
9.722966,-1.2973529,0.2441513
9.722966,-1.2973529,0.2441513
9.722966,-1.2973529,0.2441513
9.722966,-1.2973529,0.2441513
9.722966,-1.2973529,0.2441513
9.933606,-1.5175678999999997,0.39734426
9.933606,-1.5175678999999997,0.39734426
9.933606,-1.5175678999999997,0.39734426
9.933606,-1.5175678999999997,0.39734426
10.058076,-1.2590546999999999,0.05266008
10.058076,-1.2590546999999999,0.05266008
10.058076,-1.2590546999999999,0.05266008
9.98148,-1.14416,0.37819514
9.98148,-1.14416,0.37819514
9.98148,-1.14416,0.37819514
9.98148,-1.14416,0.37819514
9.98148,-1.14416,0.37819514
9.837861,-1.7186337,0.110107444
9.837861,-1.7186337,0.110107444
9.837861,-1.7186337,0.110107444
9.837861,-1.7186337,0.110107444
9.991054,-1.6994845,0.16755481
9.991054,-1.6994845,0.16755481
9.991054,-1.6994845,0.16755481
9.991054,-1.6994845,0.16755481
10.06765,-1.5367169,0.12925656
10.06765,-1.5367169,0.12925656
10.06765,-1.5367169,0.12925656
10.06765,-1.5367169,0.12925656
9.943181,-1.2877783999999999,0.20585304
9.943181,-1.2877783999999999,0.20585304
9.943181,-1.2877783999999999,0.20585304
9.943181,-1.2877783999999999,0.20585304
9.914457,-1.3356511999999998,0.110107444
9.914457,-1.3356511999999998,0.110107444
9.914457,-1.3356511999999998,0.110107444
9.914457,-1.3356511999999998,0.110107444
9.98148,-1.3739493999999999,0.22500217
9.98148,-1.3739493999999999,0.22500217
9.98148,-1.3739493999999999,0.22500217
9.98148,-1.3739493999999999,0.22500217
9.98148,-1.5367169,0.19627848
9.98148,-1.5367169,0.19627848
9.98148,-1.5367169,0.19627848
9.98148,-1.5367169,0.19627848
9.991054,-1.6324625,0.09095833
9.991054,-1.6324625,0.09095833
9.991054,-1.6324625,0.09095833
9.991054,-1.6324625,0.09095833
9.96233,-1.14416,0.19627848
9.96233,-1.14416,0.19627848
9.96233,-1.14416,0.19627848
9.96233,-1.14416,0.19627848
9.952755999999999,-1.2207563999999997,0.110107444
9.952755999999999,-1.2207563999999997,0.110107444
9.952755999999999,-1.2207563999999997,0.110107444
9.952755999999999,-1.2207563999999997,0.110107444
9.914457,-1.4601203999999999,0.17712937
9.914457,-1.4601203999999999,0.17712937
9.914457,-1.4601203999999999,0.17712937
9.914457,-1.4601203999999999,0.17712937
9.904882,-1.4026731000000001,0.26330042
9.904882,-1.4026731000000001,0.26330042
9.904882,-1.4026731000000001,0.26330042
9.904882,-1.4026731000000001,0.26330042
9.904882,-1.4026731000000001,0.26330042
9.971905,-1.5654407,0.062234644000000006
9.971905,-1.5654407,0.062234644000000006
9.971905,-1.5654407,0.062234644000000006
10.010203,-1.4505458999999998,0.062234644000000006
10.010203,-1.4505458999999998,0.062234644000000006
10.010203,-1.4505458999999998,0.062234644000000006
10.010203,-1.4505458999999998,0.062234644000000006
10.019777000000001,-1.1250108,0.33032233
10.019777000000001,-1.1250108,0.33032233
10.019777000000001,-1.1250108,0.33032233
10.019777000000001,-1.1250108,0.33032233
10.029352000000001,-1.5175678999999997,0.05266008
10.029352000000001,-1.5175678999999997,0.05266008
10.029352000000001,-1.5175678999999997,0.05266008
10.029352000000001,-1.5175678999999997,0.05266008
10.058076,-1.6420371999999999,-0.062234644000000006
10.058076,-1.6420371999999999,-0.062234644000000006
10.058076,-1.6420371999999999,-0.062234644000000006
10.058076,-1.6420371999999999,-0.062234644000000006
10.000628,-1.3643749,0.110107444
10.000628,-1.3643749,0.110107444
10.000628,-1.3643749,0.110107444
10.000628,-1.3643749,0.110107444
10.000628,-1.2399056,0.17712937
10.000628,-1.2399056,0.17712937
10.000628,-1.2399056,0.17712937
10.000628,-1.2399056,0.17712937
10.000628,-1.2399056,0.17712937
9.8953085,-1.3356511999999998,0.043085523
9.8953085,-1.3356511999999998,0.043085523
9.8953085,-1.3356511999999998,0.043085523
9.85701,-1.3739493999999999,0.014361841
9.85701,-1.3739493999999999,0.014361841
9.85701,-1.3739493999999999,0.014361841
9.85701,-1.3739493999999999,0.014361841
10.010203,-1.2494801000000002,0.28244954
10.010203,-1.2494801000000002,0.28244954
10.010203,-1.2494801000000002,0.28244954
10.010203,-1.2494801000000002,0.28244954
10.010203,-1.2494801000000002,0.28244954
9.952755999999999,-1.4984187,0.19627848
9.952755999999999,-1.4984187,0.19627848
9.952755999999999,-1.4984187,0.19627848
9.924032,-1.6707608,0.10053288
9.924032,-1.6707608,0.10053288
9.924032,-1.6707608,0.10053288
9.924032,-1.6707608,0.10053288
9.924032,-1.6516117,0.14840569
9.924032,-1.6516117,0.14840569
9.924032,-1.6516117,0.14840569
9.924032,-1.6516117,0.14840569
9.924032,-1.6516117,0.14840569
9.991054,-1.469695,0.359046
9.991054,-1.469695,0.359046
9.991054,-1.469695,0.359046
10.019777000000001,-1.6324625,0.3398969
10.019777000000001,-1.6324625,0.3398969
10.019777000000001,-1.6324625,0.3398969
10.019777000000001,-1.6324625,0.3398969
9.98148,-1.9579976000000003,0.16755481
9.98148,-1.9579976000000003,0.16755481
9.98148,-1.9579976000000003,0.16755481
9.98148,-1.9579976000000003,0.16755481
9.98148,-1.9579976000000003,0.16755481
9.818711,-1.7952299999999999,0.34947145
9.818711,-1.7952299999999999,0.34947145
9.818711,-1.7952299999999999,0.34947145
9.885734,-1.8431028999999999,0.3877697
9.885734,-1.8431028999999999,0.3877697
9.885734,-1.8431028999999999,0.3877697
9.885734,-1.8431028999999999,0.3877697
9.885734,-1.9005502,0.26330042
9.885734,-1.9005502,0.26330042
9.885734,-1.9005502,0.26330042
9.885734,-1.9005502,0.26330042
9.885734,-1.9005502,0.26330042
9.924032,-1.709059,0.25372586
9.924032,-1.709059,0.25372586
9.924032,-1.709059,0.25372586
9.924032,-1.709059,0.25372586
9.924032,-1.5654407,0.2441513
9.924032,-1.5654407,0.2441513
9.924032,-1.5654407,0.2441513
9.876159,-1.3356511999999998,0.40691882
9.876159,-1.3356511999999998,0.40691882
9.876159,-1.3356511999999998,0.40691882
9.876159,-1.3356511999999998,0.40691882
9.876159,-1.3356511999999998,0.40691882
9.885734,-1.3643749,0.6079846
9.885734,-1.3643749,0.6079846
9.885734,-1.3643749,0.6079846
9.885734,-1.3643749,0.6079846
9.8953085,-1.8526775000000002,0.42606795
9.8953085,-1.8526775000000002,0.42606795
9.8953085,-1.8526775000000002,0.42606795
9.885734,-2.0250196,0.3111732
9.885734,-2.0250196,0.3111732
9.885734,-2.0250196,0.3111732
9.885734,-2.0250196,0.3111732
9.885734,-2.0250196,0.3111732
9.914457,-1.9101248,0.33032233
9.914457,-1.9101248,0.33032233
9.914457,-1.9101248,0.33032233
9.914457,-1.9101248,0.33032233
9.8953085,-1.6707608,0.46436617
9.8953085,-1.6707608,0.46436617
9.8953085,-1.6707608,0.46436617
9.8953085,-1.6707608,0.46436617
9.85701,-1.5941644,0.56011176
9.85701,-1.5941644,0.56011176
9.85701,-1.5941644,0.56011176
9.85701,-1.5941644,0.56011176
9.8953085,-1.8718264999999998,0.40691882
9.8953085,-1.8718264999999998,0.40691882
9.8953085,-1.8718264999999998,0.40691882
9.8953085,-1.8718264999999998,0.40691882
9.876159,-2.034594,0.37819514
9.876159,-2.034594,0.37819514
9.876159,-2.034594,0.37819514
9.876159,-2.034594,0.37819514
9.876159,-2.0441686999999997,0.44521707
9.876159,-2.0441686999999997,0.44521707
9.876159,-2.0441686999999997,0.44521707
9.876159,-2.0441686999999997,0.44521707
9.732541000000001,-1.9292740000000002,0.50266445
9.732541000000001,-1.9292740000000002,0.50266445
9.732541000000001,-1.9292740000000002,0.50266445
9.732541000000001,-1.9292740000000002,0.50266445
9.636795,-1.9292740000000002,0.5888355
9.636795,-1.9292740000000002,0.5888355
9.636795,-1.9292740000000002,0.5888355
9.636795,-1.9292740000000002,0.5888355
9.684667999999999,-1.776081,0.6079846
9.684667999999999,-1.776081,0.6079846
9.684667999999999,-1.776081,0.6079846
9.684667999999999,-1.776081,0.6079846
10.115523,-1.7569318999999999,1.383524
10.115523,-1.7569318999999999,1.383524
10.115523,-1.7569318999999999,1.383524
10.115523,-1.7569318999999999,1.383524
10.29744,-2.6186423,1.5941644
10.29744,-2.6186423,1.5941644
10.29744,-2.6186423,1.5941644
10.29744,-2.6186423,1.5941644
9.454879,-2.9633265,1.0388398
9.454879,-2.9633265,1.0388398
9.454879,-2.9633265,1.0388398
9.454879,-2.9633265,1.0388398
9.866585,-2.9920502,1.5367169
9.866585,-2.9920502,1.5367169
9.866585,-2.9920502,1.5367169
9.866585,-2.9920502,1.5367169
10.651698,-3.9878044000000004,2.2835326
10.651698,-3.9878044000000004,2.2835326
10.651698,-3.9878044000000004,2.2835326
10.651698,-3.9878044000000004,2.2835326
7.9037995,-6.410168,0.9622433000000001
7.9037995,-6.410168,0.9622433000000001
7.9037995,-6.410168,0.9622433000000001
7.9037995,-6.410168,0.9622433000000001
9.560199,-8.497422,-0.92394507
9.560199,-8.497422,-0.92394507
9.560199,-8.497422,-0.92394507
9.560199,-8.497422,-0.92394507
10.776167999999998,-8.171887,-0.30159867
10.776167999999998,-8.171887,-0.30159867
10.776167999999998,-8.171887,-0.30159867
10.776167999999998,-8.171887,-0.30159867
8.564445,-7.980396300000001,0.22500217
8.564445,-7.980396300000001,0.22500217
8.564445,-7.980396300000001,0.22500217
8.564445,-7.980396300000001,0.22500217
8.056992999999999,-8.056992999999999,-0.023936402000000002
8.056992999999999,-8.056992999999999,-0.023936402000000002
8.056992999999999,-8.056992999999999,-0.023936402000000002
8.056992999999999,-8.056992999999999,-0.023936402000000002
8.056992999999999,-8.056992999999999,-0.023936402000000002
6.333572,-5.28037,0.46436617
6.333572,-5.28037,0.46436617
6.333572,-5.28037,0.46436617
5.586755999999999,-2.0824668,-0.50266445
5.586755999999999,-2.0824668,-0.50266445
5.586755999999999,-2.0824668,-0.50266445
5.586755999999999,-2.0824668,-0.50266445
10.833615,-0.6271336999999999,-2.9154537
10.833615,-0.6271336999999999,-2.9154537
10.833615,-0.6271336999999999,-2.9154537
10.833615,-0.6271336999999999,-2.9154537
10.833615,-0.6271336999999999,-2.9154537
12.2410755,-0.47394073,-1.6803354
12.2410755,-0.47394073,-1.6803354
12.2410755,-0.47394073,-1.6803354
18.76135,-7.1665583,2.427151
18.76135,-7.1665583,2.427151
18.76135,-7.1665583,2.427151
18.76135,-7.1665583,2.427151
18.44539,-17.574106,6.9654926999999995
18.44539,-17.574106,6.9654926999999995
18.44539,-17.574106,6.9654926999999995
18.44539,-17.574106,6.9654926999999995
18.44539,-17.574106,6.9654926999999995
1.5558661,-19.460295000000002,3.4803526
1.5558661,-19.460295000000002,3.4803526
1.5558661,-19.460295000000002,3.4803526
-10.910212,-15.218764000000002,2.1399142999999996
-10.910212,-15.218764000000002,2.1399142999999996
-10.910212,-15.218764000000002,2.1399142999999996
-10.910212,-15.218764000000002,2.1399142999999996
-2.1399142999999996,-19.460295000000002,4.5239797
-2.1399142999999996,-19.460295000000002,4.5239797
-2.1399142999999996,-19.460295000000002,4.5239797
-2.1399142999999996,-19.460295000000002,4.5239797
-2.1399142999999996,-19.460295000000002,4.5239797
13.380448000000001,-19.594337,2.1973617
13.380448000000001,-19.594337,2.1973617
13.380448000000001,-19.594337,2.1973617
13.380448000000001,-19.594337,2.1973617
13.380448000000001,-19.594337,2.1973617
13.380448000000001,-19.594337,2.1973617
13.380448000000001,-19.594337,2.1973617
19.584763,-7.4442205,-9.20594
19.584763,-7.4442205,-9.20594
19.584763,-7.4442205,-9.20594
19.584763,-7.4442205,-9.20594
14.66344,16.750694,-17.315592000000002
14.66344,16.750694,-17.315592000000002
14.66344,16.750694,-17.315592000000002
14.66344,16.750694,-17.315592000000002
11.829369999999999,16.760267000000002,-6.151655
11.829369999999999,16.760267000000002,-6.151655
11.829369999999999,16.760267000000002,-6.151655
11.829369999999999,16.760267000000002,-6.151655
19.594337,-13.916623999999999,7.0995364
19.594337,-13.916623999999999,7.0995364
19.594337,-13.916623999999999,7.0995364
19.594337,-13.916623999999999,7.0995364
19.594337,-13.916623999999999,7.0995364
15.257062,-19.594337,12.882571
15.257062,-19.594337,12.882571
15.257062,-19.594337,12.882571
-9.866585,-13.083637,4.303765
-9.866585,-13.083637,4.303765
-9.866585,-13.083637,4.303765
-9.866585,-13.083637,4.303765
-19.603912,-8.4686985,3.7388659
-19.603912,-8.4686985,3.7388659
-19.603912,-8.4686985,3.7388659
-19.603912,-8.4686985,3.7388659
-7.348475,-17.344316,2.0537431
-7.348475,-17.344316,2.0537431
-7.348475,-17.344316,2.0537431
-7.348475,-17.344316,2.0537431
17.363466,-19.594337,6.2378263
17.363466,-19.594337,6.2378263
17.363466,-19.594337,6.2378263
17.363466,-19.594337,6.2378263
19.594337,-18.225176,-0.6079846
19.594337,-18.225176,-0.6079846
19.594337,-18.225176,-0.6079846
19.594337,-18.225176,-0.6079846
19.13476,-0.0718092,-10.709146
19.13476,-0.0718092,-10.709146
19.13476,-0.0718092,-10.709146
19.13476,-0.0718092,-10.709146
11.905966000000001,19.603912,-15.687918
11.905966000000001,19.603912,-15.687918
11.905966000000001,19.603912,-15.687918
11.905966000000001,19.603912,-15.687918
16.626225,13.696407999999998,-5.9314404000000005
16.626225,13.696407999999998,-5.9314404000000005
16.626225,13.696407999999998,-5.9314404000000005
16.626225,13.696407999999998,-5.9314404000000005
19.594337,-19.594337,13.093211
19.594337,-19.594337,13.093211
19.594337,-19.594337,13.093211
19.594337,-19.594337,13.093211
19.594337,-19.594337,13.093211
5.672927,-19.479443,3.4995019999999997
5.672927,-19.479443,3.4995019999999997
5.672927,-19.479443,3.4995019999999997
-15.410255,-8.803808,0.3111732
-15.410255,-8.803808,0.3111732
-15.410255,-8.803808,0.3111732
-15.410255,-8.803808,0.3111732
-19.603912,-4.581427,2.9920502
-19.603912,-4.581427,2.9920502
-19.603912,-4.581427,2.9920502
-19.603912,-4.581427,2.9920502
-19.603912,-4.581427,2.9920502
-2.4654493,-19.594337,3.9686553
-2.4654493,-19.594337,3.9686553
-2.4654493,-19.594337,3.9686553
19.565615,-19.594337,5.2037735000000005
19.565615,-19.594337,5.2037735000000005
19.565615,-19.594337,5.2037735000000005
19.565615,-19.594337,5.2037735000000005
19.594337,-12.327247,-5.1176023
19.594337,-12.327247,-5.1176023
19.594337,-12.327247,-5.1176023
19.594337,-12.327247,-5.1176023
19.594337,-12.327247,-5.1176023
14.136839000000002,15.592172,-17.545382
14.136839000000002,15.592172,-17.545382
14.136839000000002,15.592172,-17.545382
14.136839000000002,15.592172,-17.545382
11.101703,19.527314999999998,-12.097457
11.101703,19.527314999999998,-12.097457
11.101703,19.527314999999998,-12.097457
19.594337,-9.091045,-0.61755913
19.594337,-9.091045,-0.61755913
19.594337,-9.091045,-0.61755913
19.594337,-9.091045,-0.61755913
19.594337,-9.091045,-0.61755913
17.085804,-19.594337,9.608071
17.085804,-19.594337,9.608071
17.085804,-19.594337,9.608071
17.085804,-19.594337,9.608071
-11.465536,-10.71872,0.54096264
-11.465536,-10.71872,0.54096264
-11.465536,-10.71872,0.54096264
-19.603912,-6.505913700000001,2.0824668
-19.603912,-6.505913700000001,2.0824668
-19.603912,-6.505913700000001,2.0824668
-19.603912,-6.505913700000001,2.0824668
-19.603912,-6.505913700000001,2.0824668
-1.4792696,-19.441145000000002,-0.76117754
-1.4792696,-19.441145000000002,-0.76117754
-1.4792696,-19.441145000000002,-0.76117754
-1.4792696,-19.441145000000002,-0.76117754
19.594337,-19.594337,3.6239712
19.594337,-19.594337,3.6239712
19.594337,-19.594337,3.6239712
19.594337,-15.486851999999999,-2.0633178
19.594337,-15.486851999999999,-2.0633178
19.594337,-15.486851999999999,-2.0633178
19.594337,-15.486851999999999,-2.0633178
19.594337,-15.486851999999999,-2.0633178
14.778334,6.3718699999999995,-11.044255
14.778334,6.3718699999999995,-11.044255
14.778334,6.3718699999999995,-11.044255
14.778334,6.3718699999999995,-11.044255
5.328243,19.603912,-13.141085
5.328243,19.603912,-13.141085
5.328243,19.603912,-13.141085
5.328243,19.603912,-13.141085
16.913462,4.121848,-4.456958
16.913462,4.121848,-4.456958
16.913462,4.121848,-4.456958
16.913462,4.121848,-4.456958
19.508167,-19.594337,9.397431
19.508167,-19.594337,9.397431
19.508167,-19.594337,9.397431
19.508167,-19.594337,9.397431
-0.20585304,-13.227255,-3.2409887000000004
-0.20585304,-13.227255,-3.2409887000000004
-0.20585304,-13.227255,-3.2409887000000004
-0.20585304,-13.227255,-3.2409887000000004
-16.875162,-2.34098,-4.5910015
-16.875162,-2.34098,-4.5910015
-16.875162,-2.34098,-4.5910015
-16.875162,-2.34098,-4.5910015
-16.856014000000002,-13.610238,0.34947145
-16.856014000000002,-13.610238,0.34947145
-16.856014000000002,-13.610238,0.34947145
-16.856014000000002,-13.610238,0.34947145
1.776081,-19.594337,4.7058964
1.776081,-19.594337,4.7058964
1.776081,-19.594337,4.7058964
1.776081,-19.594337,4.7058964
19.594337,-19.173057999999997,0.85692316
19.594337,-19.173057999999997,0.85692316
19.594337,-19.173057999999997,0.85692316
19.594337,-19.173057999999997,0.85692316
17.171974,-4.0548263,-8.00912
17.171974,-4.0548263,-8.00912
17.171974,-4.0548263,-8.00912
17.171974,-4.0548263,-8.00912
9.31126,19.603912,-15.209189000000002
9.31126,19.603912,-15.209189000000002
9.31126,19.603912,-15.209189000000002
9.31126,19.603912,-15.209189000000002
16.128347,14.883655,-7.3389006
16.128347,14.883655,-7.3389006
16.128347,14.883655,-7.3389006
16.128347,14.883655,-7.3389006
19.594337,-19.32625,9.330409
19.594337,-19.32625,9.330409
19.594337,-19.32625,9.330409
19.594337,-19.32625,9.330409
7.3389006,-18.665606,-0.9718179
7.3389006,-18.665606,-0.9718179
7.3389006,-18.665606,-0.9718179
7.3389006,-18.665606,-0.9718179
-15.065570999999998,-5.7016506,-4.3803616
-15.065570999999998,-5.7016506,-4.3803616
-15.065570999999998,-5.7016506,-4.3803616
-15.065570999999998,-5.7016506,-4.3803616
-18.627308,-11.858092999999998,4.3803616
-18.627308,-11.858092999999998,4.3803616
-18.627308,-11.858092999999998,4.3803616
-18.627308,-11.858092999999998,4.3803616
-7.348475,-19.594337,4.868664
-7.348475,-19.594337,4.868664
-7.348475,-19.594337,4.868664
-7.348475,-19.594337,4.868664
17.736874,-19.565615,-0.6271336999999999
17.736874,-19.565615,-0.6271336999999999
17.736874,-19.565615,-0.6271336999999999
17.736874,-19.565615,-0.6271336999999999
19.594337,-10.048501,-6.458041000000001
19.594337,-10.048501,-6.458041000000001
19.594337,-10.048501,-6.458041000000001
19.594337,-10.048501,-6.458041000000001
19.594337,-10.048501,-6.458041000000001
12.748528,17.890066,-13.160233499999999
12.748528,17.890066,-13.160233499999999
12.748528,17.890066,-13.160233499999999
13.629387,19.039013,-6.7357035000000005
13.629387,19.039013,-6.7357035000000005
13.629387,19.039013,-6.7357035000000005
13.629387,19.039013,-6.7357035000000005
19.594337,-12.56661,0.20585304
19.594337,-12.56661,0.20585304
19.594337,-12.56661,0.20585304
19.594337,-12.56661,0.20585304
19.594337,-12.56661,0.20585304
14.270883,-19.594337,3.0973704
14.270883,-19.594337,3.0973704
14.270883,-19.594337,3.0973704
-12.260224000000001,-7.664436,-3.7675896
-12.260224000000001,-7.664436,-3.7675896
-12.260224000000001,-7.664436,-3.7675896
-12.260224000000001,-7.664436,-3.7675896
-19.603912,-7.405922400000001,-0.10053288
-19.603912,-7.405922400000001,-0.10053288
-19.603912,-7.405922400000001,-0.10053288
-19.603912,-7.405922400000001,-0.10053288
-19.603912,-7.405922400000001,-0.10053288
-6.410168,-19.594337,0.17712937
-6.410168,-19.594337,0.17712937
-6.410168,-19.594337,0.17712937
15.812386499999999,-19.594337,2.0058703
15.812386499999999,-19.594337,2.0058703
15.812386499999999,-19.594337,2.0058703
15.812386499999999,-19.594337,2.0058703
19.594337,-14.366628,-4.0261025
19.594337,-14.366628,-4.0261025
19.594337,-14.366628,-4.0261025
19.594337,-14.366628,-4.0261025
14.500670999999999,10.785743,-13.495343
14.500670999999999,10.785743,-13.495343
14.500670999999999,10.785743,-13.495343
14.500670999999999,10.785743,-13.495343
14.500670999999999,10.785743,-13.495343
9.531475,19.603912,-10.479357
9.531475,19.603912,-10.479357
9.531475,19.603912,-10.479357
19.594337,-5.730374299999999,-1.0101161
19.594337,-5.730374299999999,-1.0101161
19.594337,-5.730374299999999,-1.0101161
19.594337,-5.730374299999999,-1.0101161
16.827289999999998,-19.594337,7.8272033
16.827289999999998,-19.594337,7.8272033
16.827289999999998,-19.594337,7.8272033
16.827289999999998,-19.594337,7.8272033
16.827289999999998,-19.594337,7.8272033
-9.799562,-10.316589,-1.2590546999999999
-9.799562,-10.316589,-1.2590546999999999
-9.799562,-10.316589,-1.2590546999999999
-19.603912,-2.4367256,-1.0771381000000002
-19.603912,-2.4367256,-1.0771381000000002
-19.603912,-2.4367256,-1.0771381000000002
-19.603912,-2.4367256,-1.0771381000000002
-19.603912,-2.4367256,-1.0771381000000002
-9.41658,-17.660276,-0.8760723
-9.41658,-17.660276,-0.8760723
-9.41658,-17.660276,-0.8760723
-9.41658,-17.660276,-0.8760723
10.316589,-19.594337,3.6239712
10.316589,-19.594337,3.6239712
10.316589,-19.594337,3.6239712
19.594337,-18.148579,0.30159867
19.594337,-18.148579,0.30159867
19.594337,-18.148579,0.30159867
19.594337,-18.148579,0.30159867
19.594337,-18.148579,0.30159867
19.364548000000003,2.8292825,-10.431483
19.364548000000003,2.8292825,-10.431483
19.364548000000003,2.8292825,-10.431483
19.364548000000003,2.8292825,-10.431483
11.925115,19.603912,-14.366628
11.925115,19.603912,-14.366628
11.925115,19.603912,-14.366628
11.925115,19.603912,-14.366628
18.713478,4.169721,-5.519734
18.713478,4.169721,-5.519734
18.713478,4.169721,-5.519734
18.713478,4.169721,-5.519734
19.13476,-19.594337,11.7049
19.13476,-19.594337,11.7049
19.13476,-19.594337,11.7049
19.13476,-19.594337,11.7049
-2.0058703,-15.218764000000002,-1.948423
-2.0058703,-15.218764000000002,-1.948423
-2.0058703,-15.218764000000002,-1.948423
-2.0058703,-15.218764000000002,-1.948423
-19.09646,-3.4133307999999998,-0.7994758000000001
-19.09646,-3.4133307999999998,-0.7994758000000001
-19.09646,-3.4133307999999998,-0.7994758000000001
-19.09646,-3.4133307999999998,-0.7994758000000001
-16.224092000000002,-14.586843,-1.2686293
-16.224092000000002,-14.586843,-1.2686293
-16.224092000000002,-14.586843,-1.2686293
-16.224092000000002,-14.586843,-1.2686293
5.2037735000000005,-19.594337,3.9878044000000004
5.2037735000000005,-19.594337,3.9878044000000004
5.2037735000000005,-19.594337,3.9878044000000004
5.2037735000000005,-19.594337,3.9878044000000004
19.594337,-19.144333,1.383524
19.594337,-19.144333,1.383524
19.594337,-19.144333,1.383524
18.924118,-5.194199,-7.875075999999999
18.924118,-5.194199,-7.875075999999999
18.924118,-5.194199,-7.875075999999999
18.924118,-5.194199,-7.875075999999999
18.924118,-5.194199,-7.875075999999999
10.469782,19.603912,-17.277294
10.469782,19.603912,-17.277294
10.469782,19.603912,-17.277294
10.469782,19.603912,-17.277294
17.009207,13.571939000000002,-9.64637
17.009207,13.571939000000002,-9.64637
17.009207,13.571939000000002,-9.64637
17.009207,13.571939000000002,-9.64637
19.594337,-19.594337,14.050668
19.594337,-19.594337,14.050668
19.594337,-19.594337,14.050668
19.594337,-19.594337,14.050668
5.328243,-18.330496,2.6569404999999997
5.328243,-18.330496,2.6569404999999997
5.328243,-18.330496,2.6569404999999997
5.328243,-18.330496,2.6569404999999997
-16.415585,-3.844186,1.0771381000000002
-16.415585,-3.844186,1.0771381000000002
-16.415585,-3.844186,1.0771381000000002
-18.091131,-12.308098,0.6750065
-18.091131,-12.308098,0.6750065
-18.091131,-12.308098,0.6750065
-18.091131,-12.308098,0.6750065
-18.091131,-12.308098,0.6750065
-0.751603,-19.594337,3.5473747
-0.751603,-19.594337,3.5473747
-0.751603,-19.594337,3.5473747
-0.751603,-19.594337,3.5473747
19.594337,-19.383698000000003,1.1537346000000002
19.594337,-19.383698000000003,1.1537346000000002
19.594337,-19.383698000000003,1.1537346000000002
19.077312,-5.2707953000000005,-6.869747
19.077312,-5.2707953000000005,-6.869747
19.077312,-5.2707953000000005,-6.869747
19.077312,-5.2707953000000005,-6.869747
19.077312,-5.2707953000000005,-6.869747
10.287866000000001,19.603912,-16.86559
10.287866000000001,19.603912,-16.86559
10.287866000000001,19.603912,-16.86559
10.287866000000001,19.603912,-16.86559
17.143251,13.34215,-8.889978999999999
17.143251,13.34215,-8.889978999999999
17.143251,13.34215,-8.889978999999999
19.594337,-19.594337,11.408089
19.594337,-19.594337,11.408089
19.594337,-19.594337,11.408089
19.594337,-19.594337,11.408089
19.594337,-19.594337,11.408089
8.669764500000001,-18.598582999999998,2.408002
8.669764500000001,-18.598582999999998,2.408002
8.669764500000001,-18.598582999999998,2.408002
8.669764500000001,-18.598582999999998,2.408002
-16.903887,-5.1271772,2.149489
-16.903887,-5.1271772,2.149489
-16.903887,-5.1271772,2.149489
-15.343232999999998,-14.347479000000002,0.59841
-15.343232999999998,-14.347479000000002,0.59841
-15.343232999999998,-14.347479000000002,0.59841
-15.343232999999998,-14.347479000000002,0.59841
-15.343232999999998,-14.347479000000002,0.59841
2.8292825,-19.594337,5.711225499999999
2.8292825,-19.594337,5.711225499999999
2.8292825,-19.594337,5.711225499999999
2.8292825,-19.594337,5.711225499999999
19.594337,-19.354975,4.131423000000001
19.594337,-19.354975,4.131423000000001
19.594337,-19.354975,4.131423000000001
19.594337,-19.354975,4.131423000000001
16.798567000000002,-6.429317500000001,-5.347392
16.798567000000002,-6.429317500000001,-5.347392
16.798567000000002,-6.429317500000001,-5.347392
16.798567000000002,-6.429317500000001,-5.347392
9.924032,18.387943,-17.104951999999997
9.924032,18.387943,-17.104951999999997
9.924032,18.387943,-17.104951999999997
9.924032,18.387943,-17.104951999999997
15.209189000000002,16.492179999999998,-9.761265
15.209189000000002,16.492179999999998,-9.761265
15.209189000000002,16.492179999999998,-9.761265
15.209189000000002,16.492179999999998,-9.761265
19.594337,-18.502838,10.795316999999999
19.594337,-18.502838,10.795316999999999
19.594337,-18.502838,10.795316999999999
19.594337,-18.502838,10.795316999999999
7.1186857,-18.474113,2.1303396
7.1186857,-18.474113,2.1303396
7.1186857,-18.474113,2.1303396
7.1186857,-18.474113,2.1303396
-15.687918,-3.5378,-2.7431116
-15.687918,-3.5378,-2.7431116
-15.687918,-3.5378,-2.7431116
-15.687918,-3.5378,-2.7431116
-19.603912,-4.8973875,-0.25372586
-19.603912,-4.8973875,-0.25372586
-19.603912,-4.8973875,-0.25372586
-19.603912,-4.8973875,-0.25372586
-2.6952388,-19.594337,2.0537431
-2.6952388,-19.594337,2.0537431
-2.6952388,-19.594337,2.0537431
-2.6952388,-19.594337,2.0537431
18.598582999999998,-19.594337,3.604822
18.598582999999998,-19.594337,3.604822
18.598582999999998,-19.594337,3.604822
18.598582999999998,-19.594337,3.604822
19.086885000000002,-12.537887,-5.347392
19.086885000000002,-12.537887,-5.347392
19.086885000000002,-12.537887,-5.347392
19.086885000000002,-12.537887,-5.347392
12.786825,15.410255,-16.836864000000002
12.786825,15.410255,-16.836864000000002
12.786825,15.410255,-16.836864000000002
12.786825,15.410255,-16.836864000000002
11.953838000000001,18.646456,-10.862339
11.953838000000001,18.646456,-10.862339
11.953838000000001,18.646456,-10.862339
11.953838000000001,18.646456,-10.862339
19.594337,-14.318755,3.8633351
19.594337,-14.318755,3.8633351
19.594337,-14.318755,3.8633351
19.594337,-14.318755,3.8633351
12.030436,-19.594337,3.7675896
12.030436,-19.594337,3.7675896
12.030436,-19.594337,3.7675896
12.030436,-19.594337,3.7675896
-7.693159,-5.960164,-3.8920587999999996
-7.693159,-5.960164,-3.8920587999999996
-7.693159,-5.960164,-3.8920587999999996
-7.693159,-5.960164,-3.8920587999999996
-19.278378,-3.1165195,-4.6388745
-19.278378,-3.1165195,-4.6388745
-19.278378,-3.1165195,-4.6388745
-15.745364000000002,-18.598582999999998,-0.8760723
-15.745364000000002,-18.598582999999998,-0.8760723
-15.745364000000002,-18.598582999999998,-0.8760723
-15.745364000000002,-18.598582999999998,-0.8760723
-15.745364000000002,-18.598582999999998,-0.8760723
9.761265,-19.594337,2.733537
9.761265,-19.594337,2.733537
9.761265,-19.594337,2.733537
9.761265,-19.594337,2.733537
19.594337,-16.224092000000002,-4.0069537
19.594337,-16.224092000000002,-4.0069537
19.594337,-16.224092000000002,-4.0069537
19.594337,-16.224092000000002,-4.0069537
16.348562,7.8367777,-14.615566000000001
16.348562,7.8367777,-14.615566000000001
16.348562,7.8367777,-14.615566000000001
16.348562,7.8367777,-14.615566000000001
7.846352,19.603912,-13.102786
7.846352,19.603912,-13.102786
7.846352,19.603912,-13.102786
7.846352,19.603912,-13.102786
19.594337,1.3069274,-6.697405000000001
19.594337,1.3069274,-6.697405000000001
19.594337,1.3069274,-6.697405000000001
19.594337,1.3069274,-6.697405000000001
18.742203,-19.594337,9.560199
18.742203,-19.594337,9.560199
18.742203,-19.594337,9.560199
18.742203,-19.594337,9.560199
-2.3888528,-13.514492,-2.2069361
-2.3888528,-13.514492,-2.2069361
-2.3888528,-13.514492,-2.2069361
-2.3888528,-13.514492,-2.2069361
-19.067738000000002,-7.070812700000001,-0.40691882
-19.067738000000002,-7.070812700000001,-0.40691882
-19.067738000000002,-7.070812700000001,-0.40691882
-18.225176,-18.971989999999998,2.1877869999999997
-18.225176,-18.971989999999998,2.1877869999999997
-18.225176,-18.971989999999998,2.1877869999999997
-18.225176,-18.971989999999998,2.1877869999999997
3.9590807,-19.594337,-0.014361841
3.9590807,-19.594337,-0.014361841
3.9590807,-19.594337,-0.014361841
3.9590807,-19.594337,-0.014361841
3.9590807,-19.594337,-0.014361841
19.594337,-17.890066,-4.5622783
19.594337,-17.890066,-4.5622783
19.594337,-17.890066,-4.5622783
16.779417000000002,5.222923000000001,-12.231501
16.779417000000002,5.222923000000001,-12.231501
16.779417000000002,5.222923000000001,-12.231501
16.779417000000002,5.222923000000001,-12.231501
10.938935,19.603912,-11.791071
10.938935,19.603912,-11.791071
10.938935,19.603912,-11.791071
10.938935,19.603912,-11.791071
10.938935,19.603912,-11.791071
19.594337,2.6856642,-4.6005764000000005
19.594337,2.6856642,-4.6005764000000005
19.594337,2.6856642,-4.6005764000000005
19.508167,-19.594337,12.001712
19.508167,-19.594337,12.001712
19.508167,-19.594337,12.001712
19.508167,-19.594337,12.001712
19.508167,-19.594337,12.001712
1.0101161,-15.869833999999999,-0.3877697
1.0101161,-15.869833999999999,-0.3877697
1.0101161,-15.869833999999999,-0.3877697
1.0101161,-15.869833999999999,-0.3877697
-18.694329999999997,-5.261221,3.3463089999999998
-18.694329999999997,-5.261221,3.3463089999999998
-18.694329999999997,-5.261221,3.3463089999999998
-18.694329999999997,-5.261221,3.3463089999999998
-15.764514000000002,-15.257062,1.0388398
-15.764514000000002,-15.257062,1.0388398
-15.764514000000002,-15.257062,1.0388398
-15.764514000000002,-15.257062,1.0388398
3.4420545,-19.594337,4.9069624
3.4420545,-19.594337,4.9069624
3.4420545,-19.594337,4.9069624
3.4420545,-19.594337,4.9069624
19.594337,-19.106035000000002,0.0
19.594337,-19.106035000000002,0.0
19.594337,-19.106035000000002,0.0
19.594337,-19.106035000000002,0.0
16.473032,-3.7867386,-8.526146
16.473032,-3.7867386,-8.526146
16.473032,-3.7867386,-8.526146
16.473032,-3.7867386,-8.526146
10.469782,19.603912,-15.496426000000001
10.469782,19.603912,-15.496426000000001
10.469782,19.603912,-15.496426000000001
10.469782,19.603912,-15.496426000000001
16.836864000000002,10.374036,-5.4431376
16.836864000000002,10.374036,-5.4431376
16.836864000000002,10.374036,-5.4431376
16.836864000000002,10.374036,-5.4431376
19.594337,-19.594337,13.141085
19.594337,-19.594337,13.141085
19.594337,-19.594337,13.141085
19.594337,-19.594337,13.141085
5.4431376,-17.344316,0.00478728
5.4431376,-17.344316,0.00478728
5.4431376,-17.344316,0.00478728
5.4431376,-17.344316,0.00478728
-13.734707,-3.671844,-6.668680999999999
-13.734707,-3.671844,-6.668680999999999
-13.734707,-3.671844,-6.668680999999999
-19.603912,-6.8601727,-3.4612036
-19.603912,-6.8601727,-3.4612036
-19.603912,-6.8601727,-3.4612036
-19.603912,-6.8601727,-3.4612036
-9.330409,-19.594337,0.6845810999999999
-9.330409,-19.594337,0.6845810999999999
-9.330409,-19.594337,0.6845810999999999
-9.330409,-19.594337,0.6845810999999999
14.826207,-19.594337,1.3739493999999999
14.826207,-19.594337,1.3739493999999999
14.826207,-19.594337,1.3739493999999999
14.826207,-19.594337,1.3739493999999999
19.594337,-13.4666195,-5.8261199999999995
19.594337,-13.4666195,-5.8261199999999995
19.594337,-13.4666195,-5.8261199999999995
19.594337,-13.4666195,-5.8261199999999995
14.414501000000001,13.830453,-12.978316
14.414501000000001,13.830453,-12.978316
14.414501000000001,13.830453,-12.978316
14.414501000000001,13.830453,-12.978316
11.714475,18.34007,-8.210186
11.714475,18.34007,-8.210186
11.714475,18.34007,-8.210186
11.714475,18.34007,-8.210186
11.714475,18.34007,-8.210186
19.594337,-11.953838000000001,2.1207652
19.594337,-11.953838000000001,2.1207652
19.594337,-11.953838000000001,2.1207652
15.726215,-19.594337,9.5889225
15.726215,-19.594337,9.5889225
15.726215,-19.594337,9.5889225
15.726215,-19.594337,9.5889225
15.726215,-19.594337,9.5889225
-8.497422,-8.401677000000001,-3.4899273
-8.497422,-8.401677000000001,-3.4899273
-8.497422,-8.401677000000001,-3.4899273
-8.497422,-8.401677000000001,-3.4899273
-19.603912,-3.4612036,-2.3984275
-19.603912,-3.4612036,-2.3984275
-19.603912,-3.4612036,-2.3984275
-12.0400095,-18.943268,0.93351966
-12.0400095,-18.943268,0.93351966
-12.0400095,-18.943268,0.93351966
-12.0400095,-18.943268,0.93351966
-12.0400095,-18.943268,0.93351966
8.832532,-19.594337,3.193116
8.832532,-19.594337,3.193116
8.832532,-19.594337,3.193116
8.832532,-19.594337,3.193116
19.594337,-16.61665,-2.6186423
19.594337,-16.61665,-2.6186423
19.594337,-16.61665,-2.6186423
19.594337,-16.61665,-2.6186423
15.343232999999998,5.021857,-11.819795
15.343232999999998,5.021857,-11.819795
15.343232999999998,5.021857,-11.819795
15.343232999999998,5.021857,-11.819795
10.364462,19.603912,-12.183628
10.364462,19.603912,-12.183628
10.364462,19.603912,-12.183628
10.364462,19.603912,-12.183628
19.594337,-0.10053288,-2.408002
19.594337,-0.10053288,-2.408002
19.594337,-0.10053288,-2.408002
19.594337,-0.10053288,-2.408002
18.474113,-19.594337,14.893229000000002
18.474113,-19.594337,14.893229000000002
18.474113,-19.594337,14.893229000000002
18.474113,-19.594337,14.893229000000002
-4.5910015,-13.763431,-2.2260852000000004
-4.5910015,-13.763431,-2.2260852000000004
-4.5910015,-13.763431,-2.2260852000000004
-4.5910015,-13.763431,-2.2260852000000004
-19.546464999999998,-2.4558747000000003,-1.5941644
-19.546464999999998,-2.4558747000000003,-1.5941644
-19.546464999999998,-2.4558747000000003,-1.5941644
-19.546464999999998,-2.4558747000000003,-1.5941644
-14.481523000000001,-15.544298999999999,-0.8186249
-14.481523000000001,-15.544298999999999,-0.8186249
-14.481523000000001,-15.544298999999999,-0.8186249
-14.481523000000001,-15.544298999999999,-0.8186249
5.9314404000000005,-19.594337,1.7473572
5.9314404000000005,-19.594337,1.7473572
5.9314404000000005,-19.594337,1.7473572
5.9314404000000005,-19.594337,1.7473572
19.594337,-18.847523000000002,-1.2973529
19.594337,-18.847523000000002,-1.2973529
19.594337,-18.847523000000002,-1.2973529
19.594337,-18.847523000000002,-1.2973529
17.133677,-2.3122563,-9.943181
17.133677,-2.3122563,-9.943181
17.133677,-2.3122563,-9.943181
17.133677,-2.3122563,-9.943181
10.919786,19.603912,-14.088965
10.919786,19.603912,-14.088965
10.919786,19.603912,-14.088965
10.919786,19.603912,-14.088965
17.459211,7.961247,-7.214431299999999
17.459211,7.961247,-7.214431299999999
17.459211,7.961247,-7.214431299999999
17.459211,7.961247,-7.214431299999999
19.594337,-19.594337,13.399597
19.594337,-19.594337,13.399597
19.594337,-19.594337,13.399597
19.594337,-19.594337,13.399597
2.714388,-16.903887,1.2973529
2.714388,-16.903887,1.2973529
2.714388,-16.903887,1.2973529
2.714388,-16.903887,1.2973529
-17.07623,-2.647366,1.4792696
-17.07623,-2.647366,1.4792696
-17.07623,-2.647366,1.4792696
-17.07623,-2.647366,1.4792696
-17.28687,-12.69108,3.3175852
-17.28687,-12.69108,3.3175852
-17.28687,-12.69108,3.3175852
-17.28687,-12.69108,3.3175852
-4.3803616,-19.594337,5.452712
-4.3803616,-19.594337,5.452712
-4.3803616,-19.594337,5.452712
-4.3803616,-19.594337,5.452712
17.487934,-19.498592000000002,-0.081383765
17.487934,-19.498592000000002,-0.081383765
17.487934,-19.498592000000002,-0.081383765
17.487934,-19.498592000000002,-0.081383765
18.790075,-9.5889225,-7.5782647
18.790075,-9.5889225,-7.5782647
18.790075,-9.5889225,-7.5782647
18.790075,-9.5889225,-7.5782647
10.335738000000001,16.28154,-13.3612995
10.335738000000001,16.28154,-13.3612995
10.335738000000001,16.28154,-13.3612995
10.335738000000001,16.28154,-13.3612995
14.079391500000002,17.277294,-8.612317
14.079391500000002,17.277294,-8.612317
14.079391500000002,17.277294,-8.612317
14.079391500000002,17.277294,-8.612317
19.594337,-11.925115,2.8771553
19.594337,-11.925115,2.8771553
19.594337,-11.925115,2.8771553
16.0709,-19.594337,11.475111
16.0709,-19.594337,11.475111
16.0709,-19.594337,11.475111
16.0709,-19.594337,11.475111
16.0709,-19.594337,11.475111
-13.935773000000001,-8.564445,1.3739493999999999
-13.935773000000001,-8.564445,1.3739493999999999
-13.935773000000001,-8.564445,1.3739493999999999
-13.935773000000001,-8.564445,1.3739493999999999
-19.57519,-3.8633351,-0.10053288
-19.57519,-3.8633351,-0.10053288
-19.57519,-3.8633351,-0.10053288
-19.57519,-3.8633351,-0.10053288
-5.9218655,-19.594337,1.8526775000000002
-5.9218655,-19.594337,1.8526775000000002
-5.9218655,-19.594337,1.8526775000000002
-5.9218655,-19.594337,1.8526775000000002
17.066654,-19.594337,4.322914
17.066654,-19.594337,4.322914
17.066654,-19.594337,4.322914
17.066654,-19.594337,4.322914
19.594337,-16.05175,-4.121848
19.594337,-16.05175,-4.121848
19.594337,-16.05175,-4.121848
19.594337,-16.05175,-4.121848
15.515575,7.875075999999999,-13.820878
15.515575,7.875075999999999,-13.820878
15.515575,7.875075999999999,-13.820878
15.515575,7.875075999999999,-13.820878
10.431483,19.603912,-11.628304
10.431483,19.603912,-11.628304
10.431483,19.603912,-11.628304
10.431483,19.603912,-11.628304
19.546464999999998,-4.294190400000001,-0.7228793
19.546464999999998,-4.294190400000001,-0.7228793
19.546464999999998,-4.294190400000001,-0.7228793
19.546464999999998,-4.294190400000001,-0.7228793
17.200697,-19.594337,10.153821
17.200697,-19.594337,10.153821
17.200697,-19.594337,10.153821
17.200697,-19.594337,10.153821
-4.150572,-11.302769,-1.6324625
-4.150572,-11.302769,-1.6324625
-4.150572,-11.302769,-1.6324625
-4.150572,-11.302769,-1.6324625
-19.489017,-3.384607,-3.3367343000000003
-19.489017,-3.384607,-3.3367343000000003
-19.489017,-3.384607,-3.3367343000000003
-19.489017,-3.384607,-3.3367343000000003
-16.0709,-15.898558,-0.44521707
-16.0709,-15.898558,-0.44521707
-16.0709,-15.898558,-0.44521707
-16.0709,-15.898558,-0.44521707
5.1176023,-19.594337,2.5324712000000003
5.1176023,-19.594337,2.5324712000000003
5.1176023,-19.594337,2.5324712000000003
5.1176023,-19.594337,2.5324712000000003
19.594337,-18.598582999999998,-2.360129
19.594337,-18.598582999999998,-2.360129
19.594337,-18.598582999999998,-2.360129
19.594337,-18.598582999999998,-2.360129
11.7049,-2.8771553,-8.985725
11.7049,-2.8771553,-8.985725
11.7049,-2.8771553,-8.985725
11.7049,-2.8771553,-8.985725
8.372953,19.603912,-12.164479
8.372953,19.603912,-12.164479
8.372953,19.603912,-12.164479
8.372953,19.603912,-12.164479
16.97091,10.06765,-6.1899533
16.97091,10.06765,-6.1899533
16.97091,10.06765,-6.1899533
16.97091,10.06765,-6.1899533
19.594337,-19.594337,10.211267999999999
19.594337,-19.594337,10.211267999999999
19.594337,-19.594337,10.211267999999999
19.594337,-19.594337,10.211267999999999
5.5771812999999995,-17.794321,-0.13883112
5.5771812999999995,-17.794321,-0.13883112
5.5771812999999995,-17.794321,-0.13883112
5.5771812999999995,-17.794321,-0.13883112
-19.019865,-2.9154537,-0.6079846
-19.019865,-2.9154537,-0.6079846
-19.019865,-2.9154537,-0.6079846
-19.019865,-2.9154537,-0.6079846
-19.20178,-6.668680999999999,-5.0505805
-19.20178,-6.668680999999999,-5.0505805
-19.20178,-6.668680999999999,-5.0505805
-19.20178,-6.668680999999999,-5.0505805
0.54096264,-19.594337,-0.7420284
0.54096264,-19.594337,-0.7420284
0.54096264,-19.594337,-0.7420284
0.54096264,-19.594337,-0.7420284
19.594337,-19.594337,-0.110107444
19.594337,-19.594337,-0.110107444
19.594337,-19.594337,-0.110107444
19.594337,-19.594337,-0.110107444
17.947514,-10.287866000000001,-6.2091026
17.947514,-10.287866000000001,-6.2091026
17.947514,-10.287866000000001,-6.2091026
17.947514,-10.287866000000001,-6.2091026
17.947514,-10.287866000000001,-6.2091026
13.227255,15.869833999999999,-13.619812
13.227255,15.869833999999999,-13.619812
13.227255,15.869833999999999,-13.619812
13.351725,16.310265,-8.593167999999999
13.351725,16.310265,-8.593167999999999
13.351725,16.310265,-8.593167999999999
13.351725,16.310265,-8.593167999999999
19.594337,-17.746449,10.172971
19.594337,-17.746449,10.172971
19.594337,-17.746449,10.172971
19.594337,-17.746449,10.172971
19.594337,-17.746449,10.172971
9.837861,-19.594337,5.988887999999999
9.837861,-19.594337,5.988887999999999
9.837861,-19.594337,5.988887999999999
-9.761265,-6.304848000000001,-2.4558747000000003
-9.761265,-6.304848000000001,-2.4558747000000003
-9.761265,-6.304848000000001,-2.4558747000000003
-9.761265,-6.304848000000001,-2.4558747000000003
-9.761265,-6.304848000000001,-2.4558747000000003
-18.033684,-2.0633178,-1.8143792
-18.033684,-2.0633178,-1.8143792
-18.033684,-2.0633178,-1.8143792
-13.648535999999998,-16.884737,1.1154363
-13.648535999999998,-16.884737,1.1154363
-13.648535999999998,-16.884737,1.1154363
-13.648535999999998,-16.884737,1.1154363
5.739949,-19.594337,3.930357
5.739949,-19.594337,3.930357
5.739949,-19.594337,3.930357
5.739949,-19.594337,3.930357
5.739949,-19.594337,3.930357
19.594337,-17.171974,-3.3080106
19.594337,-17.171974,-3.3080106
19.594337,-17.171974,-3.3080106
14.041093,5.845269,-12.499589
14.041093,5.845269,-12.499589
14.041093,5.845269,-12.499589
14.041093,5.845269,-12.499589
14.041093,5.845269,-12.499589
10.393186,19.603912,-11.628304
10.393186,19.603912,-11.628304
10.393186,19.603912,-11.628304
19.211354999999998,-3.7484405,-1.1058618
19.211354999999998,-3.7484405,-1.1058618
19.211354999999998,-3.7484405,-1.1058618
19.211354999999998,-3.7484405,-1.1058618
17.554956,-19.594337,11.015532
17.554956,-19.594337,11.015532
17.554956,-19.594337,11.015532
17.554956,-19.594337,11.015532
-5.7686725,-10.5080805,-0.023936402000000002
-5.7686725,-10.5080805,-0.023936402000000002
-5.7686725,-10.5080805,-0.023936402000000002
-5.7686725,-10.5080805,-0.023936402000000002
-19.153907999999998,-2.1590632999999997,-0.30159867
-19.153907999999998,-2.1590632999999997,-0.30159867
-19.153907999999998,-2.1590632999999997,-0.30159867
-19.153907999999998,-2.1590632999999997,-0.30159867
-13.581514000000002,-16.19537,-0.83777404
-13.581514000000002,-16.19537,-0.83777404
-13.581514000000002,-16.19537,-0.83777404
-13.581514000000002,-16.19537,-0.83777404
4.0548263,-19.594337,0.23457673
4.0548263,-19.594337,0.23457673
4.0548263,-19.594337,0.23457673
4.0548263,-19.594337,0.23457673
4.0548263,-19.594337,0.23457673
19.594337,-18.885820000000002,-1.6899098999999997
19.594337,-18.885820000000002,-1.6899098999999997
19.594337,-18.885820000000002,-1.6899098999999997
15.611320499999998,-4.246317400000001,-8.037844
15.611320499999998,-4.246317400000001,-8.037844
15.611320499999998,-4.246317400000001,-8.037844
15.611320499999998,-4.246317400000001,-8.037844
12.451715,19.441145000000002,-11.7049
12.451715,19.441145000000002,-11.7049
12.451715,19.441145000000002,-11.7049
12.451715,19.441145000000002,-11.7049
17.411339,10.488931,-4.6005764000000005
17.411339,10.488931,-4.6005764000000005
17.411339,10.488931,-4.6005764000000005
17.411339,10.488931,-4.6005764000000005
19.594337,-19.594337,15.553873000000001
19.594337,-19.594337,15.553873000000001
19.594337,-19.594337,15.553873000000001
19.594337,-19.594337,15.553873000000001
19.594337,-19.594337,15.553873000000001
2.1877869999999997,-17.947514,2.0537431
2.1877869999999997,-17.947514,2.0537431
2.1877869999999997,-17.947514,2.0537431
-16.26239,-1.7569318999999999,0.3111732
-16.26239,-1.7569318999999999,0.3111732
-16.26239,-1.7569318999999999,0.3111732
-16.26239,-1.7569318999999999,0.3111732
-18.962418,-3.6814184,-1.1537346000000002
-18.962418,-3.6814184,-1.1537346000000002
-18.962418,-3.6814184,-1.1537346000000002
-18.962418,-3.6814184,-1.1537346000000002
-18.962418,-3.6814184,-1.1537346000000002
-6.5825105,-19.594337,2.0633178
-6.5825105,-19.594337,2.0633178
-6.5825105,-19.594337,2.0633178
17.420912,-19.594337,1.9196993000000002
17.420912,-19.594337,1.9196993000000002
17.420912,-19.594337,1.9196993000000002
17.420912,-19.594337,1.9196993000000002
17.420912,-19.594337,1.9196993000000002
19.039013,-13.792154,-7.396348
19.039013,-13.792154,-7.396348
19.039013,-13.792154,-7.396348
19.039013,-13.792154,-7.396348
15.027272,13.524067,-15.103869
15.027272,13.524067,-15.103869
15.027272,13.524067,-15.103869
14.921952,18.904970000000002,-8.7750845
14.921952,18.904970000000002,-8.7750845
14.921952,18.904970000000002,-8.7750845
14.921952,18.904970000000002,-8.7750845
14.921952,18.904970000000002,-8.7750845
19.594337,-15.190041,9.129342999999999
19.594337,-15.190041,9.129342999999999
19.594337,-15.190041,9.129342999999999
19.594337,-15.190041,9.129342999999999
12.624058,-19.594337,8.794233
12.624058,-19.594337,8.794233
12.624058,-19.594337,8.794233
12.624058,-19.594337,8.794233
-11.130426,-7.032514599999999,-2.3697037999999995
-11.130426,-7.032514599999999,-2.3697037999999995
-11.130426,-7.032514599999999,-2.3697037999999995
-11.130426,-7.032514599999999,-2.3697037999999995
-18.828373000000003,-3.5952474999999997,-3.5473747
-18.828373000000003,-3.5952474999999997,-3.5473747
-18.828373000000003,-3.5952474999999997,-3.5473747
-18.828373000000003,-3.5952474999999997,-3.5473747
-14.117689000000002,-18.521988,1.2686293
-14.117689000000002,-18.521988,1.2686293
-14.117689000000002,-18.521988,1.2686293
-14.117689000000002,-18.521988,1.2686293
8.995299000000001,-19.594337,3.930357
8.995299000000001,-19.594337,3.930357
8.995299000000001,-19.594337,3.930357
8.995299000000001,-19.594337,3.930357
19.594337,-18.330496,-4.801642
19.594337,-18.330496,-4.801642
19.594337,-18.330496,-4.801642
19.594337,-18.330496,-4.801642
15.352808,2.8771553,-13.514492
15.352808,2.8771553,-13.514492
15.352808,2.8771553,-13.514492
15.352808,2.8771553,-13.514492
10.335738000000001,19.603912,-10.632549000000001
10.335738000000001,19.603912,-10.632549000000001
10.335738000000001,19.603912,-10.632549000000001
10.335738000000001,19.603912,-10.632549000000001
18.885820000000002,-2.666515,0.062234644000000006
18.885820000000002,-2.666515,0.062234644000000006
18.885820000000002,-2.666515,0.062234644000000006
18.885820000000002,-2.666515,0.062234644000000006
17.861342999999998,-19.594337,13.074062
17.861342999999998,-19.594337,13.074062
17.861342999999998,-19.594337,13.074062
17.861342999999998,-19.594337,13.074062
-1.8909756999999998,-13.370873000000001,-0.9430941999999999
-1.8909756999999998,-13.370873000000001,-0.9430941999999999
-1.8909756999999998,-13.370873000000001,-0.9430941999999999
-1.8909756999999998,-13.370873000000001,-0.9430941999999999
-13.897473999999999,-1.7186337,-3.0207740000000003
-13.897473999999999,-1.7186337,-3.0207740000000003
-13.897473999999999,-1.7186337,-3.0207740000000003
-13.897473999999999,-1.7186337,-3.0207740000000003
-18.014536,-7.405922400000001,-1.3069274
-18.014536,-7.405922400000001,-1.3069274
-18.014536,-7.405922400000001,-1.3069274
-18.014536,-7.405922400000001,-1.3069274
-3.384607,-19.594337,3.5665237999999997
-3.384607,-19.594337,3.5665237999999997
-3.384607,-19.594337,3.5665237999999997
-3.384607,-19.594337,3.5665237999999997
17.937939,-19.479443,2.1399142999999996
17.937939,-19.479443,2.1399142999999996
17.937939,-19.479443,2.1399142999999996
17.937939,-19.479443,2.1399142999999996
15.199615,-8.899554,-8.200611
15.199615,-8.899554,-8.200611
15.199615,-8.899554,-8.200611
15.199615,-8.899554,-8.200611
9.62722,17.794321,-16.137922
9.62722,17.794321,-16.137922
9.62722,17.794321,-16.137922
9.62722,17.794321,-16.137922
16.348562,16.032602,-10.230417999999998
16.348562,16.032602,-10.230417999999998
16.348562,16.032602,-10.230417999999998
16.348562,16.032602,-10.230417999999998
19.594337,-17.37304,7.405922400000001
19.594337,-17.37304,7.405922400000001
19.594337,-17.37304,7.405922400000001
19.594337,-17.37304,7.405922400000001
13.686834,-19.594337,6.400593799999999
13.686834,-19.594337,6.400593799999999
13.686834,-19.594337,6.400593799999999
13.686834,-19.594337,6.400593799999999
-7.386773599999999,-8.1623125,2.1590632999999997
-7.386773599999999,-8.1623125,2.1590632999999997
-7.386773599999999,-8.1623125,2.1590632999999997
-7.386773599999999,-8.1623125,2.1590632999999997
-19.603912,-8.459125,1.6324625
-19.603912,-8.459125,1.6324625
-19.603912,-8.459125,1.6324625
-19.603912,-8.459125,1.6324625
-8.736787,-19.594337,3.3558834
-8.736787,-19.594337,3.3558834
-8.736787,-19.594337,3.3558834
-8.736787,-19.594337,3.3558834
11.867668,-19.594337,1.6133133999999998
11.867668,-19.594337,1.6133133999999998
11.867668,-19.594337,1.6133133999999998
11.867668,-19.594337,1.6133133999999998
17.334742000000002,-12.595334,-8.191036
17.334742000000002,-12.595334,-8.191036
17.334742000000002,-12.595334,-8.191036
17.334742000000002,-12.595334,-8.191036
9.761265,12.403843,-13.514492
9.761265,12.403843,-13.514492
9.761265,12.403843,-13.514492
9.761265,12.403843,-13.514492
11.59958,15.582597,-8.143164
11.59958,15.582597,-8.143164
11.59958,15.582597,-8.143164
11.59958,15.582597,-8.143164
19.594337,-4.275041000000001,-0.90479594
19.594337,-4.275041000000001,-0.90479594
19.594337,-4.275041000000001,-0.90479594
19.594337,-4.275041000000001,-0.90479594
19.048588,-19.594337,10.000628
19.048588,-19.594337,10.000628
19.048588,-19.594337,10.000628
19.048588,-19.594337,10.000628
-1.6516117,-14.031518,-0.8856468000000001
-1.6516117,-14.031518,-0.8856468000000001
-1.6516117,-14.031518,-0.8856468000000001
-1.6516117,-14.031518,-0.8856468000000001
-19.603912,-6.7165539999999995,0.5218136
-19.603912,-6.7165539999999995,0.5218136
-19.603912,-6.7165539999999995,0.5218136
-19.603912,-6.7165539999999995,0.5218136
-14.941101999999999,-17.124102,-2.0824668
-14.941101999999999,-17.124102,-2.0824668
-14.941101999999999,-17.124102,-2.0824668
-14.941101999999999,-17.124102,-2.0824668
9.550624000000001,-19.594337,1.3260766000000002
9.550624000000001,-19.594337,1.3260766000000002
9.550624000000001,-19.594337,1.3260766000000002
9.550624000000001,-19.594337,1.3260766000000002
19.594337,-18.675179999999997,-2.513322
19.594337,-18.675179999999997,-2.513322
19.594337,-18.675179999999997,-2.513322
19.594337,-18.675179999999997,-2.513322
18.387943,-0.6845810999999999,-9.64637
18.387943,-0.6845810999999999,-9.64637
18.387943,-0.6845810999999999,-9.64637
18.387943,-0.6845810999999999,-9.64637
9.397431,19.603912,-11.886817
9.397431,19.603912,-11.886817
9.397431,19.603912,-11.886817
9.397431,19.603912,-11.886817
17.124102,7.568689999999999,-4.945260500000001
17.124102,7.568689999999999,-4.945260500000001
17.124102,7.568689999999999,-4.945260500000001
17.124102,7.568689999999999,-4.945260500000001
19.594337,-19.594337,13.610238
19.594337,-19.594337,13.610238
19.594337,-19.594337,13.610238
19.594337,-19.594337,13.610238
2.6186423,-16.444307000000002,0.44521707
2.6186423,-16.444307000000002,0.44521707
2.6186423,-16.444307000000002,0.44521707
2.6186423,-16.444307000000002,0.44521707
-15.103869,-3.2409887000000004,-3.6143966
-15.103869,-3.2409887000000004,-3.6143966
-15.103869,-3.2409887000000004,-3.6143966
-18.751776,-8.727212,-2.905879
-18.751776,-8.727212,-2.905879
-18.751776,-8.727212,-2.905879
-18.751776,-8.727212,-2.905879
-18.751776,-8.727212,-2.905879
-4.0356774,-19.594337,3.9878044000000004
-4.0356774,-19.594337,3.9878044000000004
-4.0356774,-19.594337,3.9878044000000004
14.787908999999999,-19.57519,2.0920415
14.787908999999999,-19.57519,2.0920415
14.787908999999999,-19.57519,2.0920415
14.787908999999999,-19.57519,2.0920415
14.787908999999999,-19.57519,2.0920415
16.674097,-13.600663,-6.170804
16.674097,-13.600663,-6.170804
16.674097,-13.600663,-6.170804
16.674097,-13.600663,-6.170804
13.457045,12.394267999999999,-13.121935
13.457045,12.394267999999999,-13.121935
13.457045,12.394267999999999,-13.121935
13.983645000000001,17.526234,-7.769756
13.983645000000001,17.526234,-7.769756
13.983645000000001,17.526234,-7.769756
13.983645000000001,17.526234,-7.769756
13.983645000000001,17.526234,-7.769756
19.594337,-17.401764,7.961247
19.594337,-17.401764,7.961247
19.594337,-17.401764,7.961247
19.594337,-17.401764,7.961247
10.220842999999999,-19.594337,5.711225499999999
10.220842999999999,-19.594337,5.711225499999999
10.220842999999999,-19.594337,5.711225499999999
10.220842999999999,-19.594337,5.711225499999999
-15.161317000000002,-5.1176023,0.3398969
-15.161317000000002,-5.1176023,0.3398969
-15.161317000000002,-5.1176023,0.3398969
-15.161317000000002,-5.1176023,0.3398969
-19.13476,-2.3505547000000004,-1.3069274
-19.13476,-2.3505547000000004,-1.3069274
-19.13476,-2.3505547000000004,-1.3069274
-19.13476,-2.3505547000000004,-1.3069274
-5.6825019999999995,-19.594337,2.168638
-5.6825019999999995,-19.594337,2.168638
-5.6825019999999995,-19.594337,2.168638
-5.6825019999999995,-19.594337,2.168638
14.424075,-19.594337,2.666515
14.424075,-19.594337,2.666515
14.424075,-19.594337,2.666515
19.09646,-16.233667,-5.0793040000000005
19.09646,-16.233667,-5.0793040000000005
19.09646,-16.233667,-5.0793040000000005
19.09646,-16.233667,-5.0793040000000005
19.09646,-16.233667,-5.0793040000000005
15.190041,7.032514599999999,-12.116607
15.190041,7.032514599999999,-12.116607
15.190041,7.032514599999999,-12.116607
11.771922,19.603912,-9.483603
11.771922,19.603912,-9.483603
11.771922,19.603912,-9.483603
11.771922,19.603912,-9.483603
11.771922,19.603912,-9.483603
19.489017,-6.6016593,2.0441686999999997
19.489017,-6.6016593,2.0441686999999997
19.489017,-6.6016593,2.0441686999999997
19.489017,-6.6016593,2.0441686999999997
16.741120000000002,-19.594337,12.920869
16.741120000000002,-19.594337,12.920869
16.741120000000002,-19.594337,12.920869
-3.8824842000000004,-9.876159,-1.2494801000000002
-3.8824842000000004,-9.876159,-1.2494801000000002
-3.8824842000000004,-9.876159,-1.2494801000000002
-3.8824842000000004,-9.876159,-1.2494801000000002
-3.8824842000000004,-9.876159,-1.2494801000000002
-16.674097,-0.98139244,-6.467615599999999
-16.674097,-0.98139244,-6.467615599999999
-16.674097,-0.98139244,-6.467615599999999
-16.674097,-0.98139244,-6.467615599999999
-18.186878,-13.169807,-2.1877869999999997
-18.186878,-13.169807,-2.1877869999999997
-18.186878,-13.169807,-2.1877869999999997
-18.186878,-13.169807,-2.1877869999999997
-18.186878,-13.169807,-2.1877869999999997
-18.186878,-13.169807,-2.1877869999999997
-18.186878,-13.169807,-2.1877869999999997
19.594337,-18.914545,0.2154276
19.594337,-18.914545,0.2154276
19.594337,-18.914545,0.2154276
19.594337,-18.914545,0.2154276
15.027272,-4.5910015,-8.688913000000001
15.027272,-4.5910015,-8.688913000000001
15.027272,-4.5910015,-8.688913000000001
15.027272,-4.5910015,-8.688913000000001
9.933606,19.192207,-12.394267999999999
9.933606,19.192207,-12.394267999999999
9.933606,19.192207,-12.394267999999999
9.933606,19.192207,-12.394267999999999
16.396435,9.713391,-5.098453500000001
16.396435,9.713391,-5.098453500000001
16.396435,9.713391,-5.098453500000001
16.396435,9.713391,-5.098453500000001
16.396435,9.713391,-5.098453500000001
19.594337,-19.594337,13.3612995
19.594337,-19.594337,13.3612995
19.594337,-19.594337,13.3612995
4.150572,-17.890066,3.4612036
4.150572,-17.890066,3.4612036
4.150572,-17.890066,3.4612036
4.150572,-17.890066,3.4612036
-16.95176,-2.8388572,-1.1058618
-16.95176,-2.8388572,-1.1058618
-16.95176,-2.8388572,-1.1058618
-16.95176,-2.8388572,-1.1058618
-16.95176,-2.8388572,-1.1058618
-19.45072,-6.410168,-1.2590546999999999
-19.45072,-6.410168,-1.2590546999999999
-19.45072,-6.410168,-1.2590546999999999
-4.916537,-19.594337,2.7048132000000003
-4.916537,-19.594337,2.7048132000000003
-4.916537,-19.594337,2.7048132000000003
-4.916537,-19.594337,2.7048132000000003
16.0709,-19.594337,-0.2441513
16.0709,-19.594337,-0.2441513
16.0709,-19.594337,-0.2441513
16.0709,-19.594337,-0.2441513
14.194285,-11.982562,-6.592085000000001
14.194285,-11.982562,-6.592085000000001
14.194285,-11.982562,-6.592085000000001
14.194285,-11.982562,-6.592085000000001
11.570856,10.814466,-12.020861
11.570856,10.814466,-12.020861
11.570856,10.814466,-12.020861
11.570856,10.814466,-12.020861
11.38894,16.664522,-7.4920936000000005
11.38894,16.664522,-7.4920936000000005
11.38894,16.664522,-7.4920936000000005
11.38894,16.664522,-7.4920936000000005
19.594337,-15.362382,8.334655
19.594337,-15.362382,8.334655
19.594337,-15.362382,8.334655
19.594337,-15.362382,8.334655
19.594337,-15.362382,8.334655
10.287866000000001,-19.594337,10.354887
10.287866000000001,-19.594337,10.354887
10.287866000000001,-19.594337,10.354887
-9.426155,-6.391019,0.30159867
-9.426155,-6.391019,0.30159867
-9.426155,-6.391019,0.30159867
-9.426155,-6.391019,0.30159867
-19.603912,3.844186,-3.1643922000000004
-19.603912,3.844186,-3.1643922000000004
-19.603912,3.844186,-3.1643922000000004
-19.603912,3.844186,-3.1643922000000004
-19.603912,3.844186,-3.1643922000000004
-12.279374,-13.830453,-2.9920502
-12.279374,-13.830453,-2.9920502
-12.279374,-13.830453,-2.9920502
9.62722,-19.594337,4.342063
9.62722,-19.594337,4.342063
9.62722,-19.594337,4.342063
9.62722,-19.594337,4.342063
9.62722,-19.594337,4.342063
16.147495000000003,-16.731544,-0.91437054
16.147495000000003,-16.731544,-0.91437054
16.147495000000003,-16.731544,-0.91437054
16.147495000000003,-16.731544,-0.91437054
13.313426000000002,5.108028,-9.914457
13.313426000000002,5.108028,-9.914457
13.313426000000002,5.108028,-9.914457
13.313426000000002,5.108028,-9.914457
10.163396,19.603912,-11.771922
10.163396,19.603912,-11.771922
10.163396,19.603912,-11.771922
19.594337,-8.066567,2.8197080000000003
19.594337,-8.066567,2.8197080000000003
19.594337,-8.066567,2.8197080000000003
19.594337,-8.066567,2.8197080000000003
15.9177065,-19.594337,11.59958
15.9177065,-19.594337,11.59958
15.9177065,-19.594337,11.59958
15.9177065,-19.594337,11.59958
-0.00478728,-10.632549000000001,-1.2303311000000001
-0.00478728,-10.632549000000001,-1.2303311000000001
-0.00478728,-10.632549000000001,-1.2303311000000001
-0.00478728,-10.632549000000001,-1.2303311000000001
-12.135756,-3.844186,-7.329325999999999
-12.135756,-3.844186,-7.329325999999999
-12.135756,-3.844186,-7.329325999999999
-12.135756,-3.844186,-7.329325999999999
-12.135756,-3.844186,-7.329325999999999
-19.603912,-11.666602000000001,-0.18670394
-19.603912,-11.666602000000001,-0.18670394
-19.603912,-11.666602000000001,-0.18670394
-4.0644007,-19.594337,6.946343400000001
-4.0644007,-19.594337,6.946343400000001
-4.0644007,-19.594337,6.946343400000001
-4.0644007,-19.594337,6.946343400000001
18.004960999999998,-19.527314999999998,-0.56968635
18.004960999999998,-19.527314999999998,-0.56968635
18.004960999999998,-19.527314999999998,-0.56968635
18.004960999999998,-19.527314999999998,-0.56968635
18.004960999999998,-19.527314999999998,-0.56968635
18.684755,-9.0814705,-9.368708
18.684755,-9.0814705,-9.368708
18.684755,-9.0814705,-9.368708
13.208105999999999,18.349646,-13.907048999999999
13.208105999999999,18.349646,-13.907048999999999
13.208105999999999,18.349646,-13.907048999999999
13.208105999999999,18.349646,-13.907048999999999
16.549626999999997,16.434732,-7.319751299999999
16.549626999999997,16.434732,-7.319751299999999
16.549626999999997,16.434732,-7.319751299999999
16.549626999999997,16.434732,-7.319751299999999
19.594337,-18.589008,11.025106
19.594337,-18.589008,11.025106
19.594337,-18.589008,11.025106
19.594337,-18.589008,11.025106
9.799562,-19.594337,6.1899533
9.799562,-19.594337,6.1899533
9.799562,-19.594337,6.1899533
9.799562,-19.594337,6.1899533
-12.087883,-4.8973875,2.7048132000000003
-12.087883,-4.8973875,2.7048132000000003
-12.087883,-4.8973875,2.7048132000000003
-12.087883,-4.8973875,2.7048132000000003
-19.603912,-7.597413499999999,1.6516117
-19.603912,-7.597413499999999,1.6516117
-19.603912,-7.597413499999999,1.6516117
-19.603912,-7.597413499999999,1.6516117
-7.9995449999999995,-19.594337,4.6867475999999995
-7.9995449999999995,-19.594337,4.6867475999999995
-7.9995449999999995,-19.594337,4.6867475999999995
-7.9995449999999995,-19.594337,4.6867475999999995
16.473032,-19.594337,2.5899186000000003
16.473032,-19.594337,2.5899186000000003
16.473032,-19.594337,2.5899186000000003
16.473032,-19.594337,2.5899186000000003
18.7805,-13.13151,-4.916537
18.7805,-13.13151,-4.916537
18.7805,-13.13151,-4.916537
18.7805,-13.13151,-4.916537
12.643207,10.048501,-11.168725
12.643207,10.048501,-11.168725
12.643207,10.048501,-11.168725
12.643207,10.048501,-11.168725
11.130426,17.976236,-9.043172
11.130426,17.976236,-9.043172
11.130426,17.976236,-9.043172
11.130426,17.976236,-9.043172
19.594337,-4.715471,0.0718092
19.594337,-4.715471,0.0718092
19.594337,-4.715471,0.0718092
19.594337,-4.715471,0.0718092
18.158154,-19.594337,14.730460999999998
18.158154,-19.594337,14.730460999999998
18.158154,-19.594337,14.730460999999998
18.158154,-19.594337,14.730460999999998
-4.428234,-12.221927,1.9388485
-4.428234,-12.221927,1.9388485
-4.428234,-12.221927,1.9388485
-4.428234,-12.221927,1.9388485
-19.603912,-2.5037475,-0.359046
-19.603912,-2.5037475,-0.359046
-19.603912,-2.5037475,-0.359046
-19.603912,-2.5037475,-0.359046
-13.141085,-16.540052,-0.6271336999999999
-13.141085,-16.540052,-0.6271336999999999
-13.141085,-16.540052,-0.6271336999999999
-13.141085,-16.540052,-0.6271336999999999
7.808053999999999,-19.594337,5.672927
7.808053999999999,-19.594337,5.672927
7.808053999999999,-19.594337,5.672927
19.594337,-19.029438,1.2494801000000002
19.594337,-19.029438,1.2494801000000002
19.594337,-19.029438,1.2494801000000002
19.594337,-19.029438,1.2494801000000002
16.769842,-3.5952474999999997,-9.071896
16.769842,-3.5952474999999997,-9.071896
16.769842,-3.5952474999999997,-9.071896
16.769842,-3.5952474999999997,-9.071896
10.555953,19.603912,-14.443225
10.555953,19.603912,-14.443225
10.555953,19.603912,-14.443225
10.555953,19.603912,-14.443225
17.114527,8.55487,-4.801642
17.114527,8.55487,-4.801642
17.114527,8.55487,-4.801642
17.114527,8.55487,-4.801642
17.114527,8.55487,-4.801642
19.594337,-19.594337,16.128347
19.594337,-19.594337,16.128347
19.594337,-19.594337,16.128347
1.4122477,-16.693247,3.6431203
1.4122477,-16.693247,3.6431203
1.4122477,-16.693247,3.6431203
1.4122477,-16.693247,3.6431203
1.4122477,-16.693247,3.6431203
-14.87408,-2.2739582,0.081383765
-14.87408,-2.2739582,0.081383765
-14.87408,-2.2739582,0.081383765
-14.87408,-2.2739582,0.081383765
-19.000715,-4.6867475999999995,-2.4463003
-19.000715,-4.6867475999999995,-2.4463003
-19.000715,-4.6867475999999995,-2.4463003
-1.5079931999999998,-19.594337,3.8633351
-1.5079931999999998,-19.594337,3.8633351
-1.5079931999999998,-19.594337,3.8633351
-1.5079931999999998,-19.594337,3.8633351
-1.5079931999999998,-19.594337,3.8633351
19.412422,-19.594337,3.078221
19.412422,-19.594337,3.078221
19.412422,-19.594337,3.078221
19.412422,-19.594337,3.078221
18.579435,-13.409172,-4.610151
18.579435,-13.409172,-4.610151
18.579435,-13.409172,-4.610151
16.099623,11.810221,-14.050668
16.099623,11.810221,-14.050668
16.099623,11.810221,-14.050668
16.099623,11.810221,-14.050668
12.557036,19.173057999999997,-10.469782
12.557036,19.173057999999997,-10.469782
12.557036,19.173057999999997,-10.469782
12.557036,19.173057999999997,-10.469782
12.557036,19.173057999999997,-10.469782
19.594337,-13.954922,6.525062999999999
19.594337,-13.954922,6.525062999999999
19.594337,-13.954922,6.525062999999999
19.594337,-13.954922,6.525062999999999
13.332576000000001,-19.594337,14.424075
13.332576000000001,-19.594337,14.424075
13.332576000000001,-19.594337,14.424075
-7.635712,-7.2335806,0.33032233
-7.635712,-7.2335806,0.33032233
-7.635712,-7.2335806,0.33032233
-7.635712,-7.2335806,0.33032233
-7.635712,-7.2335806,0.33032233
-19.517742000000002,-1.4409714,-2.9824755
-19.517742000000002,-1.4409714,-2.9824755
-19.517742000000002,-1.4409714,-2.9824755
-19.517742000000002,-1.4409714,-2.9824755
-15.218764000000002,-16.329411999999998,1.5558661
-15.218764000000002,-16.329411999999998,1.5558661
-15.218764000000002,-16.329411999999998,1.5558661
6.9559183,-19.594337,5.462287
6.9559183,-19.594337,5.462287
6.9559183,-19.594337,5.462287
6.9559183,-19.594337,5.462287
6.9559183,-19.594337,5.462287
19.594337,-17.832619,-1.0101161
19.594337,-17.832619,-1.0101161
19.594337,-17.832619,-1.0101161
19.594337,-17.832619,-1.0101161
16.808142,1.8335283,-11.695326
16.808142,1.8335283,-11.695326
16.808142,1.8335283,-11.695326
16.808142,1.8335283,-11.695326
10.19212,19.603912,-12.001712
10.19212,19.603912,-12.001712
10.19212,19.603912,-12.001712
10.19212,19.603912,-12.001712
19.153907999999998,3.7005677,-5.4431376
19.153907999999998,3.7005677,-5.4431376
19.153907999999998,3.7005677,-5.4431376
19.153907999999998,3.7005677,-5.4431376
19.594337,-19.594337,16.09005
19.594337,-19.594337,16.09005
19.594337,-19.594337,16.09005
19.594337,-19.594337,16.09005
5.4048395,-16.741120000000002,4.8207912
5.4048395,-16.741120000000002,4.8207912
5.4048395,-16.741120000000002,4.8207912
5.4048395,-16.741120000000002,4.8207912
-16.999632000000002,-3.1643922000000004,-0.5218136
-16.999632000000002,-3.1643922000000004,-0.5218136
-16.999632000000002,-3.1643922000000004,-0.5218136
-16.999632000000002,-3.1643922000000004,-0.5218136
-18.35922,-12.662355999999999,-0.32074776
-18.35922,-12.662355999999999,-0.32074776
-18.35922,-12.662355999999999,-0.32074776
-18.35922,-12.662355999999999,-0.32074776
-0.2154276,-19.594337,6.256975
-0.2154276,-19.594337,6.256975
-0.2154276,-19.594337,6.256975
-0.2154276,-19.594337,6.256975
19.594337,-19.316675,2.4750240000000003
19.594337,-19.316675,2.4750240000000003
19.594337,-19.316675,2.4750240000000003
19.594337,-19.316675,2.4750240000000003
12.116607,-7.769756,-8.650616000000001
12.116607,-7.769756,-8.650616000000001
12.116607,-7.769756,-8.650616000000001
12.116607,-7.769756,-8.650616000000001
10.431483,12.624058,-13.926198000000001
10.431483,12.624058,-13.926198000000001
10.431483,12.624058,-13.926198000000001
10.431483,12.624058,-13.926198000000001
12.3463955,16.061325,-7.8846507
12.3463955,16.061325,-7.8846507
12.3463955,16.061325,-7.8846507
12.3463955,16.061325,-7.8846507
19.594337,-14.261307999999998,5.328243
19.594337,-14.261307999999998,5.328243
19.594337,-14.261307999999998,5.328243
19.594337,-14.261307999999998,5.328243
13.945347,-19.594337,12.001712
13.945347,-19.594337,12.001712
13.945347,-19.594337,12.001712
13.945347,-19.594337,12.001712
-9.493176,-6.697405000000001,-0.47394073
-9.493176,-6.697405000000001,-0.47394073
-9.493176,-6.697405000000001,-0.47394073
-9.493176,-6.697405000000001,-0.47394073
-19.46987,-3.2888615,-4.4856815
-19.46987,-3.2888615,-4.4856815
-19.46987,-3.2888615,-4.4856815
-19.46987,-3.2888615,-4.4856815
-13.495343,-18.368793,-1.5750152
-13.495343,-18.368793,-1.5750152
-13.495343,-18.368793,-1.5750152
-13.495343,-18.368793,-1.5750152
9.215514,-19.594337,2.34098
9.215514,-19.594337,2.34098
9.215514,-19.594337,2.34098
9.215514,-19.594337,2.34098
9.215514,-19.594337,2.34098
19.594337,-16.683672,-0.78990126
19.594337,-16.683672,-0.78990126
19.594337,-16.683672,-0.78990126
16.128347,5.481436,-12.8538475
16.128347,5.481436,-12.8538475
16.128347,5.481436,-12.8538475
16.128347,5.481436,-12.8538475
13.13151,19.57519,-11.944264
13.13151,19.57519,-11.944264
13.13151,19.57519,-11.944264
13.13151,19.57519,-11.944264
13.13151,19.57519,-11.944264
19.594337,-5.730374299999999,-1.4888442
19.594337,-5.730374299999999,-1.4888442
19.594337,-5.730374299999999,-1.4888442
18.723053,-19.594337,15.362382
18.723053,-19.594337,15.362382
18.723053,-19.594337,15.362382
18.723053,-19.594337,15.362382
-5.9314404000000005,-15.659194,1.3452256999999999
-5.9314404000000005,-15.659194,1.3452256999999999
-5.9314404000000005,-15.659194,1.3452256999999999
-5.9314404000000005,-15.659194,1.3452256999999999
-5.9314404000000005,-15.659194,1.3452256999999999
-19.43157,-5.979312999999999,3.7675896
-19.43157,-5.979312999999999,3.7675896
-19.43157,-5.979312999999999,3.7675896
-12.911294999999999,-17.612404,3.3271596
-12.911294999999999,-17.612404,3.3271596
-12.911294999999999,-17.612404,3.3271596
-12.911294999999999,-17.612404,3.3271596
4.83994,-19.594337,7.741032000000001
4.83994,-19.594337,7.741032000000001
4.83994,-19.594337,7.741032000000001
4.83994,-19.594337,7.741032000000001
4.83994,-19.594337,7.741032000000001
19.594337,-19.287952,-1.5558661
19.594337,-19.287952,-1.5558661
19.594337,-19.287952,-1.5558661
19.594337,-19.287952,-1.5558661
16.961334,-6.2665496,-11.609155
16.961334,-6.2665496,-11.609155
16.961334,-6.2665496,-11.609155
11.092129,19.297527,-15.888982999999998
11.092129,19.297527,-15.888982999999998
11.092129,19.297527,-15.888982999999998
11.092129,19.297527,-15.888982999999998
11.092129,19.297527,-15.888982999999998
17.047504,12.25065,-6.783575999999999
17.047504,12.25065,-6.783575999999999
17.047504,12.25065,-6.783575999999999
17.047504,12.25065,-6.783575999999999
19.594337,-19.594337,15.190041
19.594337,-19.594337,15.190041
19.594337,-19.594337,15.190041
3.2697124,-17.37304,6.620808599999999
3.2697124,-17.37304,6.620808599999999
3.2697124,-17.37304,6.620808599999999
3.2697124,-17.37304,6.620808599999999
3.2697124,-17.37304,6.620808599999999
-15.84111,-0.8856468000000001,-0.11968201
-15.84111,-0.8856468000000001,-0.11968201
-15.84111,-0.8856468000000001,-0.11968201
-18.033684,-5.1176023,-0.63670826
-18.033684,-5.1176023,-0.63670826
-18.033684,-5.1176023,-0.63670826
-18.033684,-5.1176023,-0.63670826
-6.5346375,-19.594337,4.6867475999999995
-6.5346375,-19.594337,4.6867475999999995
-6.5346375,-19.594337,4.6867475999999995
-6.5346375,-19.594337,4.6867475999999995
-6.5346375,-19.594337,4.6867475999999995
11.752773,-19.594337,5.5580324999999995
11.752773,-19.594337,5.5580324999999995
11.752773,-19.594337,5.5580324999999995
19.594337,-16.86559,-1.7952299999999999
19.594337,-16.86559,-1.7952299999999999
19.594337,-16.86559,-1.7952299999999999
19.594337,-16.86559,-1.7952299999999999
18.42624,5.835694999999999,-13.323001000000001
18.42624,5.835694999999999,-13.323001000000001
18.42624,5.835694999999999,-13.323001000000001
18.42624,5.835694999999999,-13.323001000000001
18.42624,5.835694999999999,-13.323001000000001
12.078308,19.603912,-12.557036
12.078308,19.603912,-12.557036
12.078308,19.603912,-12.557036
19.594337,-5.806971,0.8090504
19.594337,-5.806971,0.8090504
19.594337,-5.806971,0.8090504
19.594337,-5.806971,0.8090504
15.908133,-19.594337,13.907048999999999
15.908133,-19.594337,13.907048999999999
15.908133,-19.594337,13.907048999999999
15.908133,-19.594337,13.907048999999999
-9.2825365,-8.124015,1.862252
-9.2825365,-8.124015,1.862252
-9.2825365,-8.124015,1.862252
-9.2825365,-8.124015,1.862252
-9.2825365,-8.124015,1.862252
-16.023027,-1.6420371999999999,-1.6228879999999999
-16.023027,-1.6420371999999999,-1.6228879999999999
-16.023027,-1.6420371999999999,-1.6228879999999999
-14.021944,-15.036847,1.9675721999999998
-14.021944,-15.036847,1.9675721999999998
-14.021944,-15.036847,1.9675721999999998
-14.021944,-15.036847,1.9675721999999998
-14.021944,-15.036847,1.9675721999999998
4.1409974,-19.594337,8.564445
4.1409974,-19.594337,8.564445
4.1409974,-19.594337,8.564445
4.1409974,-19.594337,8.564445
19.24008,-19.086885000000002,4.169721
19.24008,-19.086885000000002,4.169721
19.24008,-19.086885000000002,4.169721
14.988975,-5.031431700000001,-8.593167999999999
14.988975,-5.031431700000001,-8.593167999999999
14.988975,-5.031431700000001,-8.593167999999999
14.988975,-5.031431700000001,-8.593167999999999
13.246405,19.3071,-18.043259
13.246405,19.3071,-18.043259
13.246405,19.3071,-18.043259
13.246405,19.3071,-18.043259
13.246405,19.3071,-18.043259
18.292198000000003,7.664436,-9.31126
18.292198000000003,7.664436,-9.31126
18.292198000000003,7.664436,-9.31126
18.292198000000003,7.664436,-9.31126
19.546464999999998,-19.594337,16.61665
19.546464999999998,-19.594337,16.61665
19.546464999999998,-19.594337,16.61665
1.4888442,-16.30069,6.620808599999999
1.4888442,-16.30069,6.620808599999999
1.4888442,-16.30069,6.620808599999999
1.4888442,-16.30069,6.620808599999999
1.4888442,-16.30069,6.620808599999999
-18.196451,-0.8186249,4.2080193
-18.196451,-0.8186249,4.2080193
-18.196451,-0.8186249,4.2080193
-18.196451,-0.8186249,4.2080193
-17.899641,-5.3569665,-0.56968635
-17.899641,-5.3569665,-0.56968635
-17.899641,-5.3569665,-0.56968635
0.6271336999999999,-19.594337,8.545295
0.6271336999999999,-19.594337,8.545295
0.6271336999999999,-19.594337,8.545295
0.6271336999999999,-19.594337,8.545295
0.6271336999999999,-19.594337,8.545295
15.036847,-19.594337,7.051664
15.036847,-19.594337,7.051664
15.036847,-19.594337,7.051664
15.036847,-19.594337,7.051664
17.554956,-15.333657999999998,-3.0207740000000003
17.554956,-15.333657999999998,-3.0207740000000003
17.554956,-15.333657999999998,-3.0207740000000003
12.490014,7.300602400000001,-14.510245999999999
12.490014,7.300602400000001,-14.510245999999999
12.490014,7.300602400000001,-14.510245999999999
12.490014,7.300602400000001,-14.510245999999999
12.490014,7.300602400000001,-14.510245999999999
8.315506,19.603912,-12.164479
8.315506,19.603912,-12.164479
8.315506,19.603912,-12.164479
8.315506,19.603912,-12.164479
19.32625,-8.765511,-0.6750065
19.32625,-8.765511,-0.6750065
19.32625,-8.765511,-0.6750065
19.32625,-8.765511,-0.6750065
14.605992,-19.594337,7.693159
14.605992,-19.594337,7.693159
14.605992,-19.594337,7.693159
14.605992,-19.594337,7.693159
-2.321831,-8.688913000000001,2.5899186000000003
-2.321831,-8.688913000000001,2.5899186000000003
-2.321831,-8.688913000000001,2.5899186000000003
-2.321831,-8.688913000000001,2.5899186000000003
-15.486851999999999,1.1537346000000002,0.09095833
-15.486851999999999,1.1537346000000002,0.09095833
-15.486851999999999,1.1537346000000002,0.09095833
-15.486851999999999,1.1537346000000002,0.09095833
-15.285785999999998,-7.4729443,-1.469695
-15.285785999999998,-7.4729443,-1.469695
-15.285785999999998,-7.4729443,-1.469695
-15.285785999999998,-7.4729443,-1.469695
0.8281995000000001,-19.594337,3.9686553
0.8281995000000001,-19.594337,3.9686553
0.8281995000000001,-19.594337,3.9686553
0.8281995000000001,-19.594337,3.9686553
14.20386,-19.354975,1.9101248
14.20386,-19.354975,1.9101248
14.20386,-19.354975,1.9101248
14.20386,-19.354975,1.9101248
10.689997,-7.9420977,-5.2133484
10.689997,-7.9420977,-5.2133484
10.689997,-7.9420977,-5.2133484
10.689997,-7.9420977,-5.2133484
11.360216000000001,12.183628,-11.15915
11.360216000000001,12.183628,-11.15915
11.360216000000001,12.183628,-11.15915
11.360216000000001,12.183628,-11.15915
13.878325,14.357054000000002,-7.9325233
13.878325,14.357054000000002,-7.9325233
13.878325,14.357054000000002,-7.9325233
13.878325,14.357054000000002,-7.9325233
19.594337,-18.732628,10.038927000000001
19.594337,-18.732628,10.038927000000001
19.594337,-18.732628,10.038927000000001
19.594337,-18.732628,10.038927000000001
8.535721,-19.421995000000003,9.119769
8.535721,-19.421995000000003,9.119769
8.535721,-19.421995000000003,9.119769
8.535721,-19.421995000000003,9.119769
-8.947427000000001,-4.658024,-0.11968201
-8.947427000000001,-4.658024,-0.11968201
-8.947427000000001,-4.658024,-0.11968201
-8.947427000000001,-4.658024,-0.11968201
-18.42624,-1.5654407,-1.8431028999999999
-18.42624,-1.5654407,-1.8431028999999999
-18.42624,-1.5654407,-1.8431028999999999
-18.42624,-1.5654407,-1.8431028999999999
-11.7336235,-16.97091,2.88673
-11.7336235,-16.97091,2.88673
-11.7336235,-16.97091,2.88673
-11.7336235,-16.97091,2.88673
3.930357,-19.594337,5.17505
3.930357,-19.594337,5.17505
3.930357,-19.594337,5.17505
3.930357,-19.594337,5.17505
14.452798999999999,-18.684755,1.5845897
14.452798999999999,-18.684755,1.5845897
14.452798999999999,-18.684755,1.5845897
14.452798999999999,-18.684755,1.5845897
14.09854,-0.59841,-7.051664
14.09854,-0.59841,-7.051664
14.09854,-0.59841,-7.051664
14.09854,-0.59841,-7.051664
14.09854,-0.59841,-7.051664
14.290030999999999,19.603912,-13.935773000000001
14.290030999999999,19.603912,-13.935773000000001
14.290030999999999,19.603912,-13.935773000000001
19.364548000000003,-3.7580150000000003,-3.3080106
19.364548000000003,-3.7580150000000003,-3.3080106
19.364548000000003,-3.7580150000000003,-3.3080106
19.364548000000003,-3.7580150000000003,-3.3080106
17.784746,-19.594337,16.923035000000002
17.784746,-19.594337,16.923035000000002
17.784746,-19.594337,16.923035000000002
17.784746,-19.594337,16.923035000000002
17.784746,-19.594337,16.923035000000002
-3.2026904,-15.754939000000002,3.7005677
-3.2026904,-15.754939000000002,3.7005677
-3.2026904,-15.754939000000002,3.7005677
-15.927280999999999,-4.4856815,1.7473572
-15.927280999999999,-4.4856815,1.7473572
-15.927280999999999,-4.4856815,1.7473572
-15.927280999999999,-4.4856815,1.7473572
-17.794321,-7.875075999999999,1.4218222
-17.794321,-7.875075999999999,1.4218222
-17.794321,-7.875075999999999,1.4218222
-17.794321,-7.875075999999999,1.4218222
-17.794321,-7.875075999999999,1.4218222
-1.5462915000000002,-19.594337,7.377198700000001
-1.5462915000000002,-19.594337,7.377198700000001
-1.5462915000000002,-19.594337,7.377198700000001
15.812386499999999,-19.594337,8.11444
15.812386499999999,-19.594337,8.11444
15.812386499999999,-19.594337,8.11444
15.812386499999999,-19.594337,8.11444
18.44539,-13.753855999999999,-5.108028
18.44539,-13.753855999999999,-5.108028
18.44539,-13.753855999999999,-5.108028
18.44539,-13.753855999999999,-5.108028
18.44539,-13.753855999999999,-5.108028
12.202777000000001,11.321918,-13.667685500000001
12.202777000000001,11.321918,-13.667685500000001
12.202777000000001,11.321918,-13.667685500000001
12.202777000000001,11.321918,-13.667685500000001
12.25065,18.694329999999997,-9.435728999999998
12.25065,18.694329999999997,-9.435728999999998
12.25065,18.694329999999997,-9.435728999999998
19.594337,-12.049584,1.4122477
19.594337,-12.049584,1.4122477
19.594337,-12.049584,1.4122477
19.594337,-12.049584,1.4122477
19.594337,-12.049584,1.4122477
15.754939000000002,-19.594337,10.709146
15.754939000000002,-19.594337,10.709146
15.754939000000002,-19.594337,10.709146
15.754939000000002,-19.594337,10.709146
-7.434646000000001,-8.7750845,1.6611862000000002
-7.434646000000001,-8.7750845,1.6611862000000002
-7.434646000000001,-8.7750845,1.6611862000000002
-16.980482000000002,-4.715471,3.1548176
-16.980482000000002,-4.715471,3.1548176
-16.980482000000002,-4.715471,3.1548176
-16.980482000000002,-4.715471,3.1548176
-16.980482000000002,-4.715471,3.1548176
-10.594251,-18.866670000000003,3.9686553
-10.594251,-18.866670000000003,3.9686553
-10.594251,-18.866670000000003,3.9686553
7.741032000000001,-19.594337,5.38569
7.741032000000001,-19.594337,5.38569
7.741032000000001,-19.594337,5.38569
7.741032000000001,-19.594337,5.38569
19.594337,-18.407093,0.16755481
19.594337,-18.407093,0.16755481
19.594337,-18.407093,0.16755481
19.594337,-18.407093,0.16755481
19.594337,-18.407093,0.16755481
11.829369999999999,-3.6622693999999996,-7.310177
11.829369999999999,-3.6622693999999996,-7.310177
11.829369999999999,-3.6622693999999996,-7.310177
9.004874000000001,18.560285999999998,-14.290030999999999
9.004874000000001,18.560285999999998,-14.290030999999999
9.004874000000001,18.560285999999998,-14.290030999999999
9.004874000000001,18.560285999999998,-14.290030999999999
15.668768,13.677259,-7.654861
15.668768,13.677259,-7.654861
15.668768,13.677259,-7.654861
15.668768,13.677259,-7.654861
19.594337,-19.517742000000002,9.41658
19.594337,-19.517742000000002,9.41658
19.594337,-19.517742000000002,9.41658
19.594337,-19.517742000000002,9.41658
11.082554,-19.53689,8.459125
11.082554,-19.53689,8.459125
11.082554,-19.53689,8.459125
11.082554,-19.53689,8.459125
-8.55487,-5.5580324999999995,2.321831
-8.55487,-5.5580324999999995,2.321831
-8.55487,-5.5580324999999995,2.321831
-8.55487,-5.5580324999999995,2.321831
-17.526234,-0.71330476,1.8814011999999998
-17.526234,-0.71330476,1.8814011999999998
-17.526234,-0.71330476,1.8814011999999998
-17.526234,-0.71330476,1.8814011999999998
-17.526234,-0.71330476,1.8814011999999998
-10.92936,-16.540052,1.8335283
-10.92936,-16.540052,1.8335283
-10.92936,-16.540052,1.8335283
12.193203,-19.594337,7.4442205
12.193203,-19.594337,7.4442205
12.193203,-19.594337,7.4442205
12.193203,-19.594337,7.4442205
19.594337,-18.589008,2.7622607000000006
19.594337,-18.589008,2.7622607000000006
19.594337,-18.589008,2.7622607000000006
19.594337,-18.589008,2.7622607000000006
19.594337,-18.589008,2.7622607000000006
14.223009,-4.8973875,-4.5718527
14.223009,-4.8973875,-4.5718527
14.223009,-4.8973875,-4.5718527
10.211267999999999,16.147495000000003,-14.002794
10.211267999999999,16.147495000000003,-14.002794
10.211267999999999,16.147495000000003,-14.002794
10.211267999999999,16.147495000000003,-14.002794
13.7730055,18.454966,-8.995299000000001
13.7730055,18.454966,-8.995299000000001
13.7730055,18.454966,-8.995299000000001
13.7730055,18.454966,-8.995299000000001
13.7730055,18.454966,-8.995299000000001
19.594337,-16.473032,6.3431463
19.594337,-16.473032,6.3431463
19.594337,-16.473032,6.3431463
19.594337,-16.473032,6.3431463
16.099623,-19.594337,16.319838
16.099623,-19.594337,16.319838
16.099623,-19.594337,16.319838
-5.6154795,-9.330409,6.391019
-5.6154795,-9.330409,6.391019
-5.6154795,-9.330409,6.391019
-5.6154795,-9.330409,6.391019
-5.6154795,-9.330409,6.391019
-9.5889225,-4.466532,1.2111819
-9.5889225,-4.466532,1.2111819
-9.5889225,-4.466532,1.2111819
-9.5889225,-4.466532,1.2111819
-10.881488000000001,-11.905966000000001,0.0
-10.881488000000001,-11.905966000000001,0.0
-10.881488000000001,-11.905966000000001,0.0
2.7622607000000006,-19.594337,5.28037
2.7622607000000006,-19.594337,5.28037
2.7622607000000006,-19.594337,5.28037
2.7622607000000006,-19.594337,5.28037
2.7622607000000006,-19.594337,5.28037
19.594337,-19.402847,7.846352
19.594337,-19.402847,7.846352
19.594337,-19.402847,7.846352
19.594337,-19.402847,7.846352
15.496426000000001,-6.5633610000000004,0.25372586
15.496426000000001,-6.5633610000000004,0.25372586
15.496426000000001,-6.5633610000000004,0.25372586
11.05383,15.774088,-9.703816999999999
11.05383,15.774088,-9.703816999999999
11.05383,15.774088,-9.703816999999999
11.05383,15.774088,-9.703816999999999
11.05383,15.774088,-9.703816999999999
15.649619,18.598582999999998,-10.460207
15.649619,18.598582999999998,-10.460207
15.649619,18.598582999999998,-10.460207
15.649619,18.598582999999998,-10.460207
19.594337,-2.5803439999999997,-7.875075999999999
19.594337,-2.5803439999999997,-7.875075999999999
19.594337,-2.5803439999999997,-7.875075999999999
19.594337,-2.5803439999999997,-7.875075999999999
19.546464999999998,-13.064487,-0.0718092
19.546464999999998,-13.064487,-0.0718092
19.546464999999998,-13.064487,-0.0718092
19.546464999999998,-13.064487,-0.0718092
19.489017,-7.693159,-2.0537431
19.489017,-7.693159,-2.0537431
19.489017,-7.693159,-2.0537431
19.489017,-7.693159,-2.0537431
11.005958,-10.881488000000001,-2.0633178
11.005958,-10.881488000000001,-2.0633178
11.005958,-10.881488000000001,-2.0633178
11.005958,-10.881488000000001,-2.0633178
6.8601727,-19.364548000000003,1.6899098999999997
6.8601727,-19.364548000000003,1.6899098999999997
6.8601727,-19.364548000000003,1.6899098999999997
6.8601727,-19.364548000000003,1.6899098999999997
8.7750845,-19.594337,5.299519
8.7750845,-19.594337,5.299519
8.7750845,-19.594337,5.299519
8.7750845,-19.594337,5.299519
19.594337,-7.7793303,-0.27287498
19.594337,-7.7793303,-0.27287498
19.594337,-7.7793303,-0.27287498
19.594337,-7.7793303,-0.27287498
19.594337,-2.1111906000000005,-5.9697385
19.594337,-2.1111906000000005,-5.9697385
19.594337,-2.1111906000000005,-5.9697385
19.594337,-2.1111906000000005,-5.9697385
19.57519,1.8909756999999998,-11.522984
19.57519,1.8909756999999998,-11.522984
19.57519,1.8909756999999998,-11.522984
19.57519,1.8909756999999998,-11.522984
14.414501000000001,19.603912,-18.876245
14.414501000000001,19.603912,-18.876245
14.414501000000001,19.603912,-18.876245
14.414501000000001,19.603912,-18.876245
12.107032,18.79965,-13.725132
12.107032,18.79965,-13.725132
12.107032,18.79965,-13.725132
12.107032,18.79965,-13.725132
19.594337,3.4803526,-5.4431376
19.594337,3.4803526,-5.4431376
19.594337,3.4803526,-5.4431376
19.594337,3.4803526,-5.4431376
19.57519,-4.8303657,-0.7994758000000001
19.57519,-4.8303657,-0.7994758000000001
19.57519,-4.8303657,-0.7994758000000001
19.57519,-4.8303657,-0.7994758000000001
18.02411,-10.996383,-2.3984275
18.02411,-10.996383,-2.3984275
18.02411,-10.996383,-2.3984275
18.02411,-10.996383,-2.3984275
10.163396,-6.1612295999999995,3.6335455999999997
10.163396,-6.1612295999999995,3.6335455999999997
10.163396,-6.1612295999999995,3.6335455999999997
10.163396,-6.1612295999999995,3.6335455999999997
7.731457700000001,-15.831535,1.3260766000000002
7.731457700000001,-15.831535,1.3260766000000002
7.731457700000001,-15.831535,1.3260766000000002
7.731457700000001,-15.831535,1.3260766000000002
11.570856,-17.459211,5.6154795
11.570856,-17.459211,5.6154795
11.570856,-17.459211,5.6154795
11.570856,-17.459211,5.6154795
19.594337,-8.258059,-0.3398969
19.594337,-8.258059,-0.3398969
19.594337,-8.258059,-0.3398969
19.594337,-8.258059,-0.3398969
19.584763,-4.4186597,-4.169721
19.584763,-4.4186597,-4.169721
19.584763,-4.4186597,-4.169721
19.584763,-4.4186597,-4.169721
19.584763,-1.7665064,-5.261221
19.584763,-1.7665064,-5.261221
19.584763,-1.7665064,-5.261221
19.584763,-1.7665064,-5.261221
19.594337,0.69415563,-3.0973704
19.594337,0.69415563,-3.0973704
19.594337,0.69415563,-3.0973704
19.594337,0.69415563,-3.0973704
19.594337,0.69415563,-3.0973704
19.594337,-1.1345854,-0.8186249
19.594337,-1.1345854,-0.8186249
19.594337,-1.1345854,-0.8186249
19.249653,1.5941644,-1.7569318999999999
19.249653,1.5941644,-1.7569318999999999
19.249653,1.5941644,-1.7569318999999999
19.249653,1.5941644,-1.7569318999999999
11.714475,1.6994845,-3.3080106
11.714475,1.6994845,-3.3080106
11.714475,1.6994845,-3.3080106
11.714475,1.6994845,-3.3080106
11.714475,1.6994845,-3.3080106
-0.78032666,2.7431116,3.193116
-0.78032666,2.7431116,3.193116
-0.78032666,2.7431116,3.193116
-2.8388572,7.1474094,1.8526775000000002
-2.8388572,7.1474094,1.8526775000000002
-2.8388572,7.1474094,1.8526775000000002
-2.8388572,7.1474094,1.8526775000000002
5.8165455,5.5580324999999995,-0.28244954
5.8165455,5.5580324999999995,-0.28244954
5.8165455,5.5580324999999995,-0.28244954
5.8165455,5.5580324999999995,-0.28244954
5.8165455,5.5580324999999995,-0.28244954
16.358137,-0.49308985,-3.2888615
16.358137,-0.49308985,-3.2888615
16.358137,-0.49308985,-3.2888615
16.358137,-0.49308985,-3.2888615
19.594337,-10.450633,-3.3558834
19.594337,-10.450633,-3.3558834
19.594337,-10.450633,-3.3558834
19.460295000000002,-13.696407999999998,0.11968201
19.460295000000002,-13.696407999999998,0.11968201
19.460295000000002,-13.696407999999998,0.11968201
19.460295000000002,-13.696407999999998,0.11968201
19.460295000000002,-13.696407999999998,0.11968201
16.683672,-1.7952299999999999,1.383524
16.683672,-1.7952299999999999,1.383524
16.683672,-1.7952299999999999,1.383524
16.683672,-1.7952299999999999,1.383524
8.018694,-3.0877957,4.9069624
8.018694,-3.0877957,4.9069624
8.018694,-3.0877957,4.9069624
8.104865,-4.811217,1.3165021000000001
8.104865,-4.811217,1.3165021000000001
8.104865,-4.811217,1.3165021000000001
8.104865,-4.811217,1.3165021000000001
8.104865,-4.811217,1.3165021000000001
10.766592999999999,-4.782493,0.42606795
10.766592999999999,-4.782493,0.42606795
10.766592999999999,-4.782493,0.42606795
10.766592999999999,-4.782493,0.42606795
12.595334,-1.5175678999999997,0.014361841
12.595334,-1.5175678999999997,0.014361841
12.595334,-1.5175678999999997,0.014361841
13.150659,-1.6707608,-0.665432
13.150659,-1.6707608,-0.665432
13.150659,-1.6707608,-0.665432
13.150659,-1.6707608,-0.665432
13.150659,-1.6707608,-0.665432
13.7730055,-2.2356597999999996,-0.83777404
13.7730055,-2.2356597999999996,-0.83777404
13.7730055,-2.2356597999999996,-0.83777404
13.7730055,-2.2356597999999996,-0.83777404
10.239991999999999,-1.383524,-0.42606795
10.239991999999999,-1.383524,-0.42606795
10.239991999999999,-1.383524,-0.42606795
10.239991999999999,-1.383524,-0.42606795
8.2676325,-1.5367169,-0.8664976999999999
8.2676325,-1.5367169,-0.8664976999999999
8.2676325,-1.5367169,-0.8664976999999999
8.2676325,-1.5367169,-0.8664976999999999
7.894225,-1.8814011999999998,-0.69415563
7.894225,-1.8814011999999998,-0.69415563
7.894225,-1.8814011999999998,-0.69415563
7.894225,-1.8814011999999998,-0.69415563
7.195282000000001,-1.9005502,0.6079846
7.195282000000001,-1.9005502,0.6079846
7.195282000000001,-1.9005502,0.6079846
7.195282000000001,-1.9005502,0.6079846
7.6452865999999995,-2.6282167000000003,1.0292653
7.6452865999999995,-2.6282167000000003,1.0292653
7.6452865999999995,-2.6282167000000003,1.0292653
7.6452865999999995,-2.6282167000000003,1.0292653
9.062322,-2.4750240000000003,2.666515
9.062322,-2.4750240000000003,2.666515
9.062322,-2.4750240000000003,2.666515
9.062322,-2.4750240000000003,2.666515
11.321918,-2.8484317999999997,2.4558747000000003
11.321918,-2.8484317999999997,2.4558747000000003
11.321918,-2.8484317999999997,2.4558747000000003
11.321918,-2.8484317999999997,2.4558747000000003
12.135756,-3.6143966,2.0920415
12.135756,-3.6143966,2.0920415
12.135756,-3.6143966,2.0920415
12.135756,-3.6143966,2.0920415
11.26447,-3.3367343000000003,1.7282081999999999
11.26447,-3.3367343000000003,1.7282081999999999
11.26447,-3.3367343000000003,1.7282081999999999
11.26447,-3.3367343000000003,1.7282081999999999
10.220842999999999,-3.6622693999999996,1.0292653
10.220842999999999,-3.6622693999999996,1.0292653
10.220842999999999,-3.6622693999999996,1.0292653
10.220842999999999,-3.6622693999999996,1.0292653
9.904882,-3.6431203,0.5888355
9.904882,-3.6431203,0.5888355
9.904882,-3.6431203,0.5888355
9.904882,-3.6431203,0.5888355
10.527229,-3.2026904,0.47394073
10.527229,-3.2026904,0.47394073
10.527229,-3.2026904,0.47394073
10.527229,-3.2026904,0.47394073
10.182545,-2.254809,0.71330476
10.182545,-2.254809,0.71330476
10.182545,-2.254809,0.71330476
10.182545,-2.254809,0.71330476
9.943181,-1.4505458999999998,0.61755913
9.943181,-1.4505458999999998,0.61755913
9.943181,-1.4505458999999998,0.61755913
9.943181,-1.4505458999999998,0.61755913
10.06765,-1.1824582000000001,0.5792609000000001
10.06765,-1.1824582000000001,0.5792609000000001
10.06765,-1.1824582000000001,0.5792609000000001
10.06765,-1.1824582000000001,0.5792609000000001
9.493176,-1.3260766000000002,0.56011176
9.493176,-1.3260766000000002,0.56011176
9.493176,-1.3260766000000002,0.56011176
9.493176,-1.3260766000000002,0.56011176
9.215514,-1.6611862000000002,0.2920241
9.215514,-1.6611862000000002,0.2920241
9.215514,-1.6611862000000002,0.2920241
9.215514,-1.6611862000000002,0.2920241
9.560199,-1.5654407,0.64628285
9.560199,-1.5654407,0.64628285
9.560199,-1.5654407,0.64628285
9.560199,-1.5654407,0.64628285
9.560199,-1.5654407,0.64628285
9.742115,-1.6037389,0.9622433000000001
9.742115,-1.6037389,0.9622433000000001
9.742115,-1.6037389,0.9622433000000001
9.866585,-1.9579976000000003,1.0484143
9.866585,-1.9579976000000003,1.0484143
9.866585,-1.9579976000000003,1.0484143
9.866585,-1.9579976000000003,1.0484143
10.019777000000001,-2.2356597999999996,0.99096704
10.019777000000001,-2.2356597999999996,0.99096704
10.019777000000001,-2.2356597999999996,0.99096704
10.019777000000001,-2.2356597999999996,0.99096704
10.019777000000001,-2.2356597999999996,0.99096704
10.249566999999999,-2.4367256,0.8952214
10.249566999999999,-2.4367256,0.8952214
10.249566999999999,-2.4367256,0.8952214
10.019777000000001,-2.561195,0.56968635
10.019777000000001,-2.561195,0.56968635
10.019777000000001,-2.561195,0.56968635
10.019777000000001,-2.561195,0.56968635
9.876159,-2.5899186000000003,0.359046
9.876159,-2.5899186000000003,0.359046
9.876159,-2.5899186000000003,0.359046
9.876159,-2.5899186000000003,0.359046
9.837861,-2.4845984,0.36862057
9.837861,-2.4845984,0.36862057
9.837861,-2.4845984,0.36862057
9.837861,-2.4845984,0.36862057
9.761265,-2.2835326,0.37819514
9.761265,-2.2835326,0.37819514
9.761265,-2.2835326,0.37819514
9.761265,-2.2835326,0.37819514
9.732541000000001,-2.2069361,0.34947145
9.732541000000001,-2.2069361,0.34947145
9.732541000000001,-2.2069361,0.34947145
9.732541000000001,-2.2069361,0.34947145
9.809137,-2.0824668,0.49308985
9.809137,-2.0824668,0.49308985
9.809137,-2.0824668,0.49308985
9.809137,-2.0824668,0.49308985
9.809137,-2.0824668,0.49308985
9.799562,-2.015445,0.63670826
9.799562,-2.015445,0.63670826
9.799562,-2.015445,0.63670826
9.742115,-2.101616,0.63670826
9.742115,-2.101616,0.63670826
9.742115,-2.101616,0.63670826
9.742115,-2.101616,0.63670826
9.770839,-2.254809,0.5505372
9.770839,-2.254809,0.5505372
9.770839,-2.254809,0.5505372
9.770839,-2.254809,0.5505372
9.770839,-2.254809,0.5505372
9.847435,-2.3505547000000004,0.45479164
9.847435,-2.3505547000000004,0.45479164
9.847435,-2.3505547000000004,0.45479164
9.876159,-2.3505547000000004,0.56011176
9.876159,-2.3505547000000004,0.56011176
9.876159,-2.3505547000000004,0.56011176
9.876159,-2.3505547000000004,0.56011176
9.876159,-2.3505547000000004,0.56011176
9.885734,-2.2356597999999996,0.6750065
9.885734,-2.2356597999999996,0.6750065
9.885734,-2.2356597999999996,0.6750065
9.885734,-2.2356597999999996,0.6750065
9.732541000000001,-2.168638,0.6271336999999999
9.732541000000001,-2.168638,0.6271336999999999
9.732541000000001,-2.168638,0.6271336999999999
9.770839,-2.2260852000000004,0.48351530000000004
9.770839,-2.2260852000000004,0.48351530000000004
9.770839,-2.2260852000000004,0.48351530000000004
9.770839,-2.2260852000000004,0.48351530000000004
9.770839,-2.2260852000000004,0.48351530000000004
9.818711,-2.360129,0.40691882
9.818711,-2.360129,0.40691882
9.818711,-2.360129,0.40691882
9.818711,-2.360129,0.40691882
9.818711,-2.3122563,0.61755913
9.818711,-2.3122563,0.61755913
9.818711,-2.3122563,0.61755913
9.818711,-2.3122563,0.61755913
9.933606,-2.2452345,0.7420284
9.933606,-2.2452345,0.7420284
9.933606,-2.2452345,0.7420284
9.933606,-2.2452345,0.7420284
9.742115,-2.168638,0.7994758000000001
9.742115,-2.168638,0.7994758000000001
9.742115,-2.168638,0.7994758000000001
9.742115,-2.168638,0.7994758000000001
9.85701,-2.149489,0.6750065
9.85701,-2.149489,0.6750065
9.85701,-2.149489,0.6750065
9.85701,-2.149489,0.6750065
9.75169,-2.1590632999999997,0.5313880999999999
9.75169,-2.1590632999999997,0.5313880999999999
9.75169,-2.1590632999999997,0.5313880999999999
9.75169,-2.1590632999999997,0.5313880999999999
9.531475,-2.1973617,0.50266445
9.531475,-2.1973617,0.50266445
9.531475,-2.1973617,0.50266445
9.531475,-2.1973617,0.50266445
9.732541000000001,-2.2069361,0.56011176
9.732541000000001,-2.2069361,0.56011176
9.732541000000001,-2.2069361,0.56011176
9.732541000000001,-2.2069361,0.56011176
9.770839,-2.2069361,0.6271336999999999
9.770839,-2.2069361,0.6271336999999999
9.770839,-2.2069361,0.6271336999999999
9.770839,-2.2069361,0.6271336999999999
9.75169,-2.2069361,0.76117754
9.75169,-2.2069361,0.76117754
9.75169,-2.2069361,0.76117754
9.75169,-2.2069361,0.76117754
9.713391,-2.34098,0.78032666
9.713391,-2.34098,0.78032666
9.713391,-2.34098,0.78032666
9.713391,-2.34098,0.78032666
9.847435,-2.427151,0.8090504
9.847435,-2.427151,0.8090504
9.847435,-2.427151,0.8090504
9.847435,-2.427151,0.8090504
9.809137,-2.427151,0.8664976999999999
9.809137,-2.427151,0.8664976999999999
9.809137,-2.427151,0.8664976999999999
9.809137,-2.427151,0.8664976999999999
9.770839,-2.4367256,0.71330476
9.770839,-2.4367256,0.71330476
9.770839,-2.4367256,0.71330476
9.770839,-2.4367256,0.71330476
9.770839,-2.4367256,0.71330476
9.770839,-2.4367256,0.71330476
9.770839,-2.4367256,0.71330476
9.655944,-2.254809,0.5218136
9.655944,-2.254809,0.5218136
9.655944,-2.254809,0.5218136
9.655944,-2.254809,0.5218136
9.6942425,-2.3026817000000004,0.59841
9.6942425,-2.3026817000000004,0.59841
9.6942425,-2.3026817000000004,0.59841
9.6942425,-2.3026817000000004,0.59841
10.010203,-2.3792782000000003,0.6845810999999999
10.010203,-2.3792782000000003,0.6845810999999999
10.010203,-2.3792782000000003,0.6845810999999999
9.924032,-2.3888528,0.6750065
9.924032,-2.3888528,0.6750065
9.924032,-2.3888528,0.6750065
9.924032,-2.3888528,0.6750065
9.876159,-2.3792782000000003,0.5888355
9.876159,-2.3792782000000003,0.5888355
9.876159,-2.3792782000000003,0.5888355
9.876159,-2.3792782000000003,0.5888355
9.665519,-2.2165107999999996,0.50266445
9.665519,-2.2165107999999996,0.50266445
9.665519,-2.2165107999999996,0.50266445
9.665519,-2.2165107999999996,0.50266445
9.8953085,-2.1207652,0.50266445
9.8953085,-2.1207652,0.50266445
9.8953085,-2.1207652,0.50266445
9.8953085,-2.1207652,0.50266445
9.933606,-1.9867213,0.71330476
9.933606,-1.9867213,0.71330476
9.933606,-1.9867213,0.71330476
9.933606,-1.9867213,0.71330476
9.655944,-2.1973617,0.59841
9.655944,-2.1973617,0.59841
9.655944,-2.1973617,0.59841
9.655944,-2.1973617,0.59841
9.876159,-2.4463003,0.5792609000000001
9.876159,-2.4463003,0.5792609000000001
9.876159,-2.4463003,0.5792609000000001
9.876159,-2.4463003,0.5792609000000001
9.914457,-2.4750240000000003,0.63670826
9.914457,-2.4750240000000003,0.63670826
9.914457,-2.4750240000000003,0.63670826
9.914457,-2.4750240000000003,0.63670826
9.675094,-2.4367256,0.59841
9.675094,-2.4367256,0.59841
9.675094,-2.4367256,0.59841
9.675094,-2.4367256,0.59841
9.722966,-2.5803439999999997,0.56011176
9.722966,-2.5803439999999997,0.56011176
9.722966,-2.5803439999999997,0.56011176
9.722966,-2.5803439999999997,0.56011176
9.971905,-2.9250283,1.0962871
9.971905,-2.9250283,1.0962871
9.971905,-2.9250283,1.0962871
9.971905,-2.9250283,1.0962871
9.971905,-2.9250283,1.0962871
9.742115,-4.0548263,2.2739582
9.742115,-4.0548263,2.2739582
9.742115,-4.0548263,2.2739582
9.636795,-4.8590894,3.039923
9.636795,-4.8590894,3.039923
9.636795,-4.8590894,3.039923
9.636795,-4.8590894,3.039923
10.096374,-5.4239883,2.7909843999999997
10.096374,-5.4239883,2.7909843999999997
10.096374,-5.4239883,2.7909843999999997
10.096374,-5.4239883,2.7909843999999997
10.096374,-5.4239883,2.7909843999999997
9.684667999999999,-4.5910015,2.7622607000000006
9.684667999999999,-4.5910015,2.7622607000000006
9.684667999999999,-4.5910015,2.7622607000000006
8.928278,-4.150572,3.4803526
8.928278,-4.150572,3.4803526
8.928278,-4.150572,3.4803526
8.928278,-4.150572,3.4803526
8.928278,-4.150572,3.4803526
8.34423,-4.3995104000000005,4.3612123
8.34423,-4.3995104000000005,4.3612123
8.34423,-4.3995104000000005,4.3612123
8.34423,-4.3995104000000005,4.3612123
8.047417999999999,-5.1176023,5.0793040000000005
8.047417999999999,-5.1176023,5.0793040000000005
8.047417999999999,-5.1176023,5.0793040000000005
7.875075999999999,-5.2516465,6.7931504
7.875075999999999,-5.2516465,6.7931504
7.875075999999999,-5.2516465,6.7931504
7.875075999999999,-5.2516465,6.7931504
7.875075999999999,-5.2516465,6.7931504
7.846352,-6.2282515,7.3676243
7.846352,-6.2282515,7.3676243
7.846352,-6.2282515,7.3676243
7.1186857,-6.0176110000000005,7.156984
7.1186857,-6.0176110000000005,7.156984
7.1186857,-6.0176110000000005,7.156984
7.1186857,-6.0176110000000005,7.156984
7.1186857,-6.0176110000000005,7.156984
5.4048395,-7.195282000000001,6.113357
5.4048395,-7.195282000000001,6.113357
5.4048395,-7.195282000000001,6.113357
5.4048395,-7.195282000000001,6.113357
3.8824842000000004,-7.4729443,5.6250544
3.8824842000000004,-7.4729443,5.6250544
3.8824842000000004,-7.4729443,5.6250544
3.8824842000000004,-7.4729443,5.6250544
2.3505547000000004,-7.3676243,5.912291000000001
2.3505547000000004,-7.3676243,5.912291000000001
2.3505547000000004,-7.3676243,5.912291000000001
2.3505547000000004,-7.3676243,5.912291000000001
1.0101161,-8.44955,5.1367517
1.0101161,-8.44955,5.1367517
1.0101161,-8.44955,5.1367517
1.0101161,-8.44955,5.1367517
-0.7324539000000001,-6.218677,5.9218655
-0.7324539000000001,-6.218677,5.9218655
-0.7324539000000001,-6.218677,5.9218655
-0.7324539000000001,-6.218677,5.9218655
-3.0207740000000003,-4.715471,5.4431376
-3.0207740000000003,-4.715471,5.4431376
-3.0207740000000003,-4.715471,5.4431376
-3.0207740000000003,-4.715471,5.4431376
-2.0250196,-0.8856468000000001,4.409085299999999
-2.0250196,-0.8856468000000001,4.409085299999999
-2.0250196,-0.8856468000000001,4.409085299999999
-2.0250196,-0.8856468000000001,4.409085299999999
-2.9346027,8.5740185,7.405922400000001
-2.9346027,8.5740185,7.405922400000001
-2.9346027,8.5740185,7.405922400000001
-2.9346027,8.5740185,7.405922400000001
-2.905879,9.560199,10.546378
-2.905879,9.560199,10.546378
-2.905879,9.560199,10.546378
-2.905879,9.560199,10.546378
-1.4984187,1.8431028999999999,7.271878699999999
-1.4984187,1.8431028999999999,7.271878699999999
-1.4984187,1.8431028999999999,7.271878699999999
-1.4984187,1.8431028999999999,7.271878699999999
-2.7239625,-9.349558,-1.6037389
-2.7239625,-9.349558,-1.6037389
-2.7239625,-9.349558,-1.6037389
-2.7239625,-9.349558,-1.6037389
-2.9920502,-10.287866000000001,-2.666515
-2.9920502,-10.287866000000001,-2.666515
-2.9920502,-10.287866000000001,-2.666515
-2.9920502,-10.287866000000001,-2.666515
-6.3431463,1.2303311000000001,4.0739756
-6.3431463,1.2303311000000001,4.0739756
-6.3431463,1.2303311000000001,4.0739756
-6.3431463,1.2303311000000001,4.0739756
-7.2623043,6.9559183,8.229335
-7.2623043,6.9559183,8.229335
-7.2623043,6.9559183,8.229335
-7.2623043,6.9559183,8.229335
-6.438892,9.569773,7.6069884000000005
-6.438892,9.569773,7.6069884000000005
-6.438892,9.569773,7.6069884000000005
-6.438892,9.569773,7.6069884000000005
-5.988887999999999,4.3516379999999995,3.3271596
-5.988887999999999,4.3516379999999995,3.3271596
-5.988887999999999,4.3516379999999995,3.3271596
-5.988887999999999,4.3516379999999995,3.3271596
-6.2091026,-5.4048395,-2.6856642
-6.2091026,-5.4048395,-2.6856642
-6.2091026,-5.4048395,-2.6856642
-6.2091026,-5.4048395,-2.6856642
-7.8367777,-10.010203,-5.6633525
-7.8367777,-10.010203,-5.6633525
-7.8367777,-10.010203,-5.6633525
-7.8367777,-10.010203,-5.6633525
-9.062322,11.465536,0.34947145
-9.062322,11.465536,0.34947145
-9.062322,11.465536,0.34947145
-9.062322,11.465536,0.34947145
-7.5303917,3.6239712,5.0505805
-7.5303917,3.6239712,5.0505805
-7.5303917,3.6239712,5.0505805
-7.5303917,3.6239712,5.0505805
-6.0846334,-1.3069274,2.2356597999999996
-6.0846334,-1.3069274,2.2356597999999996
-6.0846334,-1.3069274,2.2356597999999996
-6.0846334,-1.3069274,2.2356597999999996
-4.0548263,-1.5367169,-0.56968635
-4.0548263,-1.5367169,-0.56968635
-4.0548263,-1.5367169,-0.56968635
-4.0548263,-1.5367169,-0.56968635
-3.5282254,0.12925656,0.91437054
-3.5282254,0.12925656,0.91437054
-3.5282254,0.12925656,0.91437054
-3.5282254,0.12925656,0.91437054
-7.980396300000001,9.837861,0.48351530000000004
-7.980396300000001,9.837861,0.48351530000000004
-7.980396300000001,9.837861,0.48351530000000004
-7.980396300000001,9.837861,0.48351530000000004
-9.742115,11.178299,-2.408002
-9.742115,11.178299,-2.408002
-9.742115,11.178299,-2.408002
-9.742115,11.178299,-2.408002
-5.7016506,9.177217,-0.50266445
-5.7016506,9.177217,-0.50266445
-5.7016506,9.177217,-0.50266445
-5.7016506,9.177217,-0.50266445
-4.409085299999999,8.794233,0.2441513
-4.409085299999999,8.794233,0.2441513
-4.409085299999999,8.794233,0.2441513
-4.409085299999999,8.794233,0.2441513
-5.395264599999999,9.96233,1.0005416
-5.395264599999999,9.96233,1.0005416
-5.395264599999999,9.96233,1.0005416
-5.395264599999999,9.96233,1.0005416
-5.4239883,9.5219,3.384607
-5.4239883,9.5219,3.384607
-5.4239883,9.5219,3.384607
-5.4239883,9.5219,3.384607
-5.4239883,9.5219,3.384607
-3.451629,8.037844,3.3941817000000003
-3.451629,8.037844,3.3941817000000003
-3.451629,8.037844,3.3941817000000003
-3.5952474999999997,6.5633610000000004,4.3516379999999995
-3.5952474999999997,6.5633610000000004,4.3516379999999995
-3.5952474999999997,6.5633610000000004,4.3516379999999995
-3.5952474999999997,6.5633610000000004,4.3516379999999995
-5.1654754,8.2676325,4.1792955
-5.1654754,8.2676325,4.1792955
-5.1654754,8.2676325,4.1792955
-5.1654754,8.2676325,4.1792955
-5.1654754,8.2676325,4.1792955
-4.763344,7.7506065,6.5633610000000004
-4.763344,7.7506065,6.5633610000000004
-4.763344,7.7506065,6.5633610000000004
-3.5473747,-0.32074776,2.6760897999999997
-3.5473747,-0.32074776,2.6760897999999997
-3.5473747,-0.32074776,2.6760897999999997
-3.5473747,-0.32074776,2.6760897999999997
-3.5473747,-0.32074776,2.6760897999999997
-0.2920241,-1.9675721999999998,4.73462
-0.2920241,-1.9675721999999998,4.73462
-0.2920241,-1.9675721999999998,4.73462
-1.0867126,12.576185,4.581427
-1.0867126,12.576185,4.581427
-1.0867126,12.576185,4.581427
-1.0867126,12.576185,4.581427
2.2356597999999996,16.099623,10.488931
2.2356597999999996,16.099623,10.488931
2.2356597999999996,16.099623,10.488931
2.2356597999999996,16.099623,10.488931
2.2356597999999996,16.099623,10.488931
-0.56968635,9.85701,6.9271946
-0.56968635,9.85701,6.9271946
-0.56968635,9.85701,6.9271946
-3.930357,8.401677000000001,5.2037735000000005
-3.930357,8.401677000000001,5.2037735000000005
-3.930357,8.401677000000001,5.2037735000000005
-3.930357,8.401677000000001,5.2037735000000005
-3.930357,8.401677000000001,5.2037735000000005
-4.6388745,3.9782297999999994,4.0069537
-4.6388745,3.9782297999999994,4.0069537
-4.6388745,3.9782297999999994,4.0069537
-4.6388745,3.9782297999999994,4.0069537
-4.715471,6.333572,4.658024
-4.715471,6.333572,4.658024
-4.715471,6.333572,4.658024
-2.494173,7.4537954,5.2707953000000005
-2.494173,7.4537954,5.2707953000000005
-2.494173,7.4537954,5.2707953000000005
-2.494173,7.4537954,5.2707953000000005
-2.494173,7.4537954,5.2707953000000005
-0.71330476,7.7793303,7.922949000000001
-0.71330476,7.7793303,7.922949000000001
-0.71330476,7.7793303,7.922949000000001
-0.71330476,7.7793303,7.922949000000001
-0.18670394,6.1420803,7.463369999999999
-0.18670394,6.1420803,7.463369999999999
-0.18670394,6.1420803,7.463369999999999
-0.18670394,6.1420803,7.463369999999999
-0.15798025,6.8888964999999995,6.3718699999999995
-0.15798025,6.8888964999999995,6.3718699999999995
-0.15798025,6.8888964999999995,6.3718699999999995
-0.15798025,6.8888964999999995,6.3718699999999995
-0.40691882,5.567607,6.745278
-0.40691882,5.567607,6.745278
-0.40691882,5.567607,6.745278
-0.40691882,5.567607,6.745278
0.0718092,7.8846507,6.8122997000000005
0.0718092,7.8846507,6.8122997000000005
0.0718092,7.8846507,6.8122997000000005
0.0718092,7.8846507,6.8122997000000005
0.9718179,6.1899533,8.047417999999999
0.9718179,6.1899533,8.047417999999999
0.9718179,6.1899533,8.047417999999999
0.9718179,6.1899533,8.047417999999999
0.043085523,5.7208,8.037844
0.043085523,5.7208,8.037844
0.043085523,5.7208,8.037844
0.043085523,5.7208,8.037844
-0.03351096,4.9356860000000005,7.2335806
-0.03351096,4.9356860000000005,7.2335806
-0.03351096,4.9356860000000005,7.2335806
-0.03351096,4.9356860000000005,7.2335806
0.062234644000000006,4.121848,6.2282515
0.062234644000000006,4.121848,6.2282515
0.062234644000000006,4.121848,6.2282515
0.062234644000000006,4.121848,6.2282515
0.6750065,6.113357,5.9697385
0.6750065,6.113357,5.9697385
0.6750065,6.113357,5.9697385
0.6750065,6.113357,5.9697385
1.4792696,7.8846507,7.4537954
1.4792696,7.8846507,7.4537954
1.4792696,7.8846507,7.4537954
1.4792696,7.8846507,7.4537954
2.1590632999999997,6.8027253,7.195282000000001
2.1590632999999997,6.8027253,7.195282000000001
2.1590632999999997,6.8027253,7.195282000000001
2.1590632999999997,6.8027253,7.195282000000001
1.9579976000000003,8.047417999999999,6.9559183
1.9579976000000003,8.047417999999999,6.9559183
1.9579976000000003,8.047417999999999,6.9559183
1.9579976000000003,8.047417999999999,6.9559183
1.9675721999999998,5.988887999999999,6.4197426
1.9675721999999998,5.988887999999999,6.4197426
1.9675721999999998,5.988887999999999,6.4197426
1.9675721999999998,5.988887999999999,6.4197426
2.6569404999999997,8.708063000000001,8.813383
2.6569404999999997,8.708063000000001,8.813383
2.6569404999999997,8.708063000000001,8.813383
2.6569404999999997,8.708063000000001,8.813383
2.7718353,5.7495236,8.363379
2.7718353,5.7495236,8.363379
2.7718353,5.7495236,8.363379
2.7718353,5.7495236,8.363379
3.3271596,5.309094,8.593167999999999
3.3271596,5.309094,8.593167999999999
3.3271596,5.309094,8.593167999999999
3.3271596,5.309094,8.593167999999999
2.494173,6.936769,9.177217
2.494173,6.936769,9.177217
2.494173,6.936769,9.177217
2.494173,6.936769,9.177217
1.469695,3.690993,7.8846507
1.469695,3.690993,7.8846507
1.469695,3.690993,7.8846507
1.469695,3.690993,7.8846507
1.0484143,-2.5803439999999997,6.697405000000001
1.0484143,-2.5803439999999997,6.697405000000001
1.0484143,-2.5803439999999997,6.697405000000001
1.0484143,-2.5803439999999997,6.697405000000001
1.0675635,-1.1345854,7.042089
1.0675635,-1.1345854,7.042089
1.0675635,-1.1345854,7.042089
1.0675635,-1.1345854,7.042089
1.0962871,6.47719,9.330409
1.6707608,7.7601814,3.2792869
1.6707608,7.7601814,3.2792869
1.6707608,7.7601814,3.2792869
1.709059,5.941015,2.3697037999999995
1.709059,5.941015,2.3697037999999995
1.709059,5.941015,2.3697037999999995
1.9292740000000002,6.5537868,1.2303311000000001
1.9292740000000002,6.5537868,1.2303311000000001
1.9292740000000002,6.5537868,1.2303311000000001
1.9292740000000002,6.5537868,1.2303311000000001
1.9292740000000002,6.5537868,1.2303311000000001
1.4313968000000001,1.1633091,-0.6271336999999999
1.4313968000000001,1.1633091,-0.6271336999999999
1.4313968000000001,1.1633091,-0.6271336999999999
1.4313968000000001,1.1633091,-0.6271336999999999
3.7675896,-3.8633351,2.34098
3.7675896,-3.8633351,2.34098
3.7675896,-3.8633351,2.34098
13.169807,-7.0612383,4.4856815
13.169807,-7.0612383,4.4856815
13.169807,-7.0612383,4.4856815
13.169807,-7.0612383,4.4856815
13.169807,-7.0612383,4.4856815
18.206026,-7.2240057,2.254809
18.206026,-7.2240057,2.254809
18.206026,-7.2240057,2.254809
18.206026,-7.2240057,2.254809
19.259228,-9.330409,0.59841
19.259228,-9.330409,0.59841
19.259228,-9.330409,0.59841
13.485767999999998,-10.048501,-2.2452345
13.485767999999998,-10.048501,-2.2452345
13.485767999999998,-10.048501,-2.2452345
13.485767999999998,-10.048501,-2.2452345
13.485767999999998,-10.048501,-2.2452345
11.025106,-4.6388745,0.27287498
11.025106,-4.6388745,0.27287498
11.025106,-4.6388745,0.27287498
11.025106,-4.6388745,0.27287498
9.665519,-3.0016246,2.408002
9.665519,-3.0016246,2.408002
9.665519,-3.0016246,2.408002
9.665519,-3.0016246,2.408002
9.761265,-3.5569491,-0.19627848
9.761265,-3.5569491,-0.19627848
9.761265,-3.5569491,-0.19627848
9.761265,-3.5569491,-0.19627848
10.958084,-3.3367343000000003,-1.3356511999999998
10.958084,-3.3367343000000003,-1.3356511999999998
10.958084,-3.3367343000000003,-1.3356511999999998
10.958084,-3.3367343000000003,-1.3356511999999998
9.991054,1.7377827000000001,1.3548003
9.991054,1.7377827000000001,1.3548003
9.991054,1.7377827000000001,1.3548003
9.991054,1.7377827000000001,1.3548003
10.019777000000001,-0.7420284,-0.9622433000000001
10.019777000000001,-0.7420284,-0.9622433000000001
10.019777000000001,-0.7420284,-0.9622433000000001
10.019777000000001,-0.7420284,-0.9622433000000001
10.096374,-0.44521707,-0.69415563
10.096374,-0.44521707,-0.69415563
10.096374,-0.44521707,-0.69415563
10.096374,-0.44521707,-0.69415563
10.077225,0.46436617,0.751603
10.077225,0.46436617,0.751603
10.077225,0.46436617,0.751603
10.077225,0.46436617,0.751603
10.105948,-0.99096704,-0.3111732
10.105948,-0.99096704,-0.3111732
10.105948,-0.99096704,-0.3111732
10.105948,-0.99096704,-0.3111732
10.010203,-1.2877783999999999,-0.359046
10.010203,-1.2877783999999999,-0.359046
10.010203,-1.2877783999999999,-0.359046
10.010203,-1.2877783999999999,-0.359046
10.010203,-0.8281995000000001,0.023936402000000002
10.010203,-0.8281995000000001,0.023936402000000002
10.010203,-0.8281995000000001,0.023936402000000002
10.010203,-0.8281995000000001,0.023936402000000002
9.991054,-0.92394507,-0.014361841
9.991054,-0.92394507,-0.014361841
9.991054,-0.92394507,-0.014361841
9.991054,-0.92394507,-0.014361841
10.06765,-0.93351966,-0.014361841
10.06765,-0.93351966,-0.014361841
10.06765,-0.93351966,-0.014361841
10.06765,-0.93351966,-0.014361841
10.134672,-0.7420284,0.09095833
10.134672,-0.7420284,0.09095833
10.134672,-0.7420284,0.09095833
10.134672,-0.7420284,0.09095833
9.904882,-0.71330476,-0.10053288
9.904882,-0.71330476,-0.10053288
9.904882,-0.71330476,-0.10053288
9.904882,-0.71330476,-0.10053288
10.316589,-0.56968635,-0.33032233
10.316589,-0.56968635,-0.33032233
10.316589,-0.56968635,-0.33032233
10.316589,-0.56968635,-0.33032233
10.153821,-0.512239,0.3111732
10.153821,-0.512239,0.3111732
10.153821,-0.512239,0.3111732
10.153821,-0.512239,0.3111732
9.876159,-1.6803354,0.15798025
9.876159,-1.6803354,0.15798025
9.876159,-1.6803354,0.15798025
9.876159,-1.6803354,0.15798025
10.125097,-1.2590546999999999,-0.081383765
10.125097,-1.2590546999999999,-0.081383765
10.125097,-1.2590546999999999,-0.081383765
10.125097,-1.2590546999999999,-0.081383765
10.125097,-1.2590546999999999,-0.081383765
10.029352000000001,-0.22500217,0.0
10.029352000000001,-0.22500217,0.0
10.029352000000001,-0.22500217,0.0
9.952755999999999,-0.17712937,0.043085523
9.952755999999999,-0.17712937,0.043085523
9.952755999999999,-0.17712937,0.043085523
9.952755999999999,-0.17712937,0.043085523
10.096374,-0.512239,0.17712937
10.096374,-0.512239,0.17712937
10.096374,-0.512239,0.17712937
10.096374,-0.512239,0.17712937
10.096374,-0.512239,0.17712937
10.354887,-0.71330476,0.3877697
10.354887,-0.71330476,0.3877697
10.354887,-0.71330476,0.3877697
10.220842999999999,-0.77075213,0.43564250000000004
10.220842999999999,-0.77075213,0.43564250000000004
10.220842999999999,-0.77075213,0.43564250000000004
10.220842999999999,-0.77075213,0.43564250000000004
10.220842999999999,-0.77075213,0.43564250000000004
10.220842999999999,-0.77075213,0.43564250000000004
10.220842999999999,-0.77075213,0.43564250000000004
10.220842999999999,-0.77075213,0.43564250000000004
10.019777000000001,-0.8856468000000001,0.0718092
10.019777000000001,-0.8856468000000001,0.0718092
10.019777000000001,-0.8856468000000001,0.0718092
10.019777000000001,-0.8856468000000001,0.0718092
10.115523,-0.64628285,0.33032233
10.115523,-0.64628285,0.33032233
10.115523,-0.64628285,0.33032233
10.115523,-0.64628285,0.33032233
9.98148,-0.9526688,0.12925656
9.98148,-0.9526688,0.12925656
9.98148,-0.9526688,0.12925656
9.98148,-0.9526688,0.12925656
9.866585,-0.78990126,0.043085523
9.866585,-0.78990126,0.043085523
9.866585,-0.78990126,0.043085523
9.866585,-0.78990126,0.043085523
9.914457,-0.61755913,0.3877697
9.914457,-0.61755913,0.3877697
9.914457,-0.61755913,0.3877697
9.914457,-0.61755913,0.3877697
10.019777000000001,-0.9718179,0.37819514
10.019777000000001,-0.9718179,0.37819514
10.019777000000001,-0.9718179,0.37819514
10.019777000000001,-0.9718179,0.37819514
9.885734,-1.5367169,0.19627848
9.885734,-1.5367169,0.19627848
9.885734,-1.5367169,0.19627848
9.885734,-1.5367169,0.19627848
9.876159,-1.4888442,0.16755481
9.876159,-1.4888442,0.16755481
9.876159,-1.4888442,0.16755481
9.876159,-1.4888442,0.16755481
10.0868,-1.3930986,0.2441513
10.0868,-1.3930986,0.2441513
10.0868,-1.3930986,0.2441513
10.0868,-1.3930986,0.2441513
10.0868,-1.3930986,0.2441513
9.952755999999999,-1.1633091,0.44521707
9.952755999999999,-1.1633091,0.44521707
9.952755999999999,-1.1633091,0.44521707
10.048501,-1.2016073,0.4164934
10.048501,-1.2016073,0.4164934
10.048501,-1.2016073,0.4164934
10.048501,-1.2016073,0.4164934
9.933606,-1.3643749,0.3398969
9.933606,-1.3643749,0.3398969
9.933606,-1.3643749,0.3398969
9.933606,-1.3643749,0.3398969
9.933606,-1.3643749,0.3398969
9.952755999999999,-1.4505458999999998,0.23457673
9.952755999999999,-1.4505458999999998,0.23457673
9.952755999999999,-1.4505458999999998,0.23457673
9.837861,-1.3260766000000002,0.26330042
9.837861,-1.3260766000000002,0.26330042
9.837861,-1.3260766000000002,0.26330042
9.837861,-1.3260766000000002,0.26330042
9.933606,-1.2877783999999999,0.30159867
9.933606,-1.2877783999999999,0.30159867
9.933606,-1.2877783999999999,0.30159867
9.933606,-1.2877783999999999,0.30159867
9.933606,-1.2877783999999999,0.30159867
10.06765,-1.3260766000000002,0.48351530000000004
10.06765,-1.3260766000000002,0.48351530000000004
10.06765,-1.3260766000000002,0.48351530000000004
10.000628,-1.4888442,0.40691882
10.000628,-1.4888442,0.40691882
10.000628,-1.4888442,0.40691882
10.000628,-1.4888442,0.40691882
9.8953085,-1.5558661,0.26330042
9.8953085,-1.5558661,0.26330042
9.8953085,-1.5558661,0.26330042
9.8953085,-1.5558661,0.26330042
9.971905,-1.5558661,0.33032233
9.971905,-1.5558661,0.33032233
9.971905,-1.5558661,0.33032233
9.971905,-1.5558661,0.33032233
9.971905,-1.5558661,0.33032233
10.019777000000001,-1.5558661,0.42606795
10.019777000000001,-1.5558661,0.42606795
10.019777000000001,-1.5558661,0.42606795
9.991054,-1.469695,0.37819514
9.991054,-1.469695,0.37819514
9.991054,-1.469695,0.37819514
9.991054,-1.469695,0.37819514
10.010203,-1.5271424,0.27287498
10.010203,-1.5271424,0.27287498
10.010203,-1.5271424,0.27287498
10.010203,-1.5271424,0.27287498
10.010203,-1.5271424,0.27287498
9.8953085,-1.3930986,0.28244954
9.8953085,-1.3930986,0.28244954
9.8953085,-1.3930986,0.28244954
9.952755999999999,-1.3452256999999999,0.27287498
9.952755999999999,-1.3452256999999999,0.27287498
9.952755999999999,-1.3452256999999999,0.27287498
9.952755999999999,-1.3452256999999999,0.27287498
9.96233,-1.3739493999999999,0.39734426
9.96233,-1.3739493999999999,0.39734426
9.96233,-1.3739493999999999,0.39734426
9.96233,-1.3739493999999999,0.39734426
9.96233,-1.3739493999999999,0.39734426
9.924032,-1.4313968000000001,0.42606795
9.924032,-1.4313968000000001,0.42606795
9.924032,-1.4313968000000001,0.42606795
9.924032,-1.4888442,0.3398969
9.924032,-1.4888442,0.3398969
9.924032,-1.4888442,0.3398969
9.924032,-1.4888442,0.3398969
9.971905,-1.4601203999999999,0.37819514
9.971905,-1.4601203999999999,0.37819514
9.971905,-1.4601203999999999,0.37819514
9.971905,-1.4601203999999999,0.37819514
9.943181,-1.4409714,0.45479164
9.943181,-1.4409714,0.45479164
9.943181,-1.4409714,0.45479164
9.943181,-1.4409714,0.45479164
9.952755999999999,-1.4313968000000001,0.45479164
9.952755999999999,-1.4313968000000001,0.45479164
9.952755999999999,-1.4313968000000001,0.45479164
9.952755999999999,-1.4313968000000001,0.45479164
10.096374,-1.383524,0.43564250000000004
10.096374,-1.383524,0.43564250000000004
10.096374,-1.383524,0.43564250000000004
10.096374,-1.383524,0.43564250000000004
10.096374,-1.383524,0.43564250000000004
9.933606,-1.2973529,0.46436617
9.933606,-1.2973529,0.46436617
9.933606,-1.2973529,0.46436617
9.952755999999999,-1.2303311000000001,0.44521707
9.952755999999999,-1.2303311000000001,0.44521707
