accx,accy,accz
12.576185,-7.396348,5.5580324999999995
12.576185,-7.396348,5.5580324999999995
10.833615,-5.692076,5.2037735000000005
10.833615,-5.692076,5.2037735000000005
10.833615,-5.692076,5.2037735000000005
10.833615,-5.692076,5.2037735000000005
9.464453,-5.49101,4.121848
9.464453,-5.49101,4.121848
9.464453,-5.49101,4.121848
9.464453,-5.49101,4.121848
9.397431,-5.1176023,2.9824755
9.397431,-5.1176023,2.9824755
9.397431,-5.1176023,2.9824755
9.397431,-5.1176023,2.9824755
9.138917999999999,-2.867581,2.8101335
9.138917999999999,-2.867581,2.8101335
9.138917999999999,-2.867581,2.8101335
9.138917999999999,-2.867581,2.8101335
9.368708,-1.9771467,2.7622607000000006
9.368708,-1.9771467,2.7622607000000006
9.368708,-1.9771467,2.7622607000000006
9.368708,-1.9771467,2.7622607000000006
10.019777000000001,-1.6899098999999997,2.6282167000000003
10.019777000000001,-1.6899098999999997,2.6282167000000003
10.019777000000001,-1.6899098999999997,2.6282167000000003
9.349558,-2.1877869999999997,1.9867213
9.349558,-2.1877869999999997,1.9867213
9.349558,-2.1877869999999997,1.9867213
9.349558,-2.1877869999999997,1.9867213
9.349558,-2.1877869999999997,1.9867213
9.368708,-2.7239625,1.9962958
9.368708,-2.7239625,1.9962958
9.368708,-2.7239625,1.9962958
9.445304,-2.4367256,2.0824668
9.445304,-2.4367256,2.0824668
9.445304,-2.4367256,2.0824668
9.445304,-2.4367256,2.0824668
9.435728999999998,-2.149489,2.149489
9.435728999999998,-2.149489,2.149489
9.435728999999998,-2.149489,2.149489
9.435728999999998,-2.149489,2.149489
9.62722,-2.2165107999999996,2.2452345
9.62722,-2.2165107999999996,2.2452345
9.62722,-2.2165107999999996,2.2452345
9.62722,-2.2165107999999996,2.2452345
9.665519,-2.4654493,2.0920415
9.665519,-2.4654493,2.0920415
9.665519,-2.4654493,2.0920415
9.665519,-2.4654493,2.0920415
9.397431,-2.168638,1.6994845
9.397431,-2.168638,1.6994845
9.397431,-2.168638,1.6994845
9.397431,-2.168638,1.6994845
9.608071,-1.9292740000000002,2.015445
9.608071,-1.9292740000000002,2.015445
9.608071,-1.9292740000000002,2.015445
9.608071,-1.9292740000000002,2.015445
9.531475,-2.1782124,2.0441686999999997
9.531475,-2.1782124,2.0441686999999997
9.531475,-2.1782124,2.0441686999999997
9.435728999999998,-2.4750240000000003,1.9005502
9.435728999999998,-2.4750240000000003,1.9005502
9.435728999999998,-2.4750240000000003,1.9005502
9.435728999999998,-2.4750240000000003,1.9005502
9.435728999999998,-2.4750240000000003,1.9005502
9.579348,-1.9388485,2.254809
9.579348,-1.9388485,2.254809
9.579348,-1.9388485,2.254809
9.54105,-1.9962958,1.9579976000000003
9.54105,-1.9962958,1.9579976000000003
9.54105,-1.9962958,1.9579976000000003
9.54105,-1.9962958,1.9579976000000003
9.579348,-2.0058703,2.2165107999999996
9.579348,-2.0058703,2.2165107999999996
9.579348,-2.0058703,2.2165107999999996
9.579348,-2.0058703,2.2165107999999996
9.445304,-2.1782124,2.321831
9.445304,-2.1782124,2.321831
9.445304,-2.1782124,2.321831
9.445304,-2.1782124,2.321831
9.483603,-2.1782124,2.168638
9.483603,-2.1782124,2.168638
9.483603,-2.1782124,2.168638
9.483603,-2.1782124,2.168638
9.560199,-2.0058703,2.2356597999999996
9.560199,-2.0058703,2.2356597999999996
9.560199,-2.0058703,2.2356597999999996
9.560199,-2.0058703,2.2356597999999996
9.579348,-2.0633178,2.1399142999999996
9.579348,-2.0633178,2.1399142999999996
9.579348,-2.0633178,2.1399142999999996
9.483603,-2.0250196,2.015445
9.483603,-2.0250196,2.015445
9.483603,-2.0250196,2.015445
9.483603,-2.0250196,2.015445
9.54105,-1.9962958,2.1877869999999997
9.54105,-1.9962958,2.1877869999999997
9.54105,-1.9962958,2.1877869999999997
9.54105,-1.9962958,2.1877869999999997
9.5889225,-2.2260852000000004,2.2739582
9.5889225,-2.2260852000000004,2.2739582
9.5889225,-2.2260852000000004,2.2739582
9.5889225,-2.2260852000000004,2.2739582
9.454879,-1.9675721999999998,2.1303396
9.454879,-1.9675721999999998,2.1303396
9.454879,-1.9675721999999998,2.1303396
9.454879,-1.9675721999999998,2.1303396
9.483603,-2.2069361,2.4367256
9.483603,-2.2069361,2.4367256
9.483603,-2.2069361,2.4367256
9.483603,-2.2069361,2.4367256
9.435728999999998,-2.321831,2.3314054
9.435728999999998,-2.321831,2.3314054
9.435728999999998,-2.321831,2.3314054
9.435728999999998,-2.321831,2.3314054
9.368708,-2.3122563,2.2452345
9.368708,-2.3122563,2.2452345
9.368708,-2.3122563,2.2452345
9.464453,-2.015445,2.0920415
9.464453,-2.015445,2.0920415
9.464453,-2.015445,2.0920415
9.464453,-2.015445,2.0920415
9.464453,-2.015445,2.0920415
9.675094,-1.8909756999999998,2.1877869999999997
9.675094,-1.8909756999999998,2.1877869999999997
9.675094,-1.8909756999999998,2.1877869999999997
9.512326,-2.0441686999999997,2.1207652
9.512326,-2.0441686999999997,2.1207652
9.512326,-2.0441686999999997,2.1207652
9.512326,-2.0441686999999997,2.1207652
9.550624000000001,-2.1111906000000005,2.2356597999999996
9.550624000000001,-2.1111906000000005,2.2356597999999996
9.550624000000001,-2.1111906000000005,2.2356597999999996
9.550624000000001,-2.1111906000000005,2.2356597999999996
9.608071,-2.0250196,2.254809
9.608071,-2.0250196,2.254809
9.608071,-2.0250196,2.254809
9.608071,-2.0250196,2.254809
9.474028,-2.0441686999999997,2.1782124
9.474028,-2.0441686999999997,2.1782124
9.474028,-2.0441686999999997,2.1782124
9.474028,-2.0441686999999997,2.1782124
9.483603,-2.015445,2.0250196
9.483603,-2.015445,2.0250196
9.483603,-2.015445,2.0250196
9.483603,-2.015445,2.0250196
9.368708,-2.2835326,2.427151
9.368708,-2.2835326,2.427151
9.368708,-2.2835326,2.427151
9.368708,-2.2835326,2.427151
9.598496,-2.360129,2.4654493
9.598496,-2.360129,2.4654493
9.598496,-2.360129,2.4654493
9.483603,-1.8909756999999998,2.1973617
9.483603,-1.8909756999999998,2.1973617
9.483603,-1.8909756999999998,2.1973617
9.483603,-1.8909756999999998,2.1973617
9.483603,-1.8718264999999998,2.1303396
9.483603,-1.8718264999999998,2.1303396
9.483603,-1.8718264999999998,2.1303396
9.483603,-1.8718264999999998,2.1303396
9.569773,-1.8909756999999998,2.149489
9.569773,-1.8909756999999998,2.149489
9.569773,-1.8909756999999998,2.149489
9.569773,-1.8909756999999998,2.149489
9.474028,-1.7856555,2.0728923999999997
9.474028,-1.7856555,2.0728923999999997
9.474028,-1.7856555,2.0728923999999997
9.474028,-1.7856555,2.0728923999999997
9.474028,-1.862252,2.2165107999999996
9.474028,-1.862252,2.2165107999999996
9.474028,-1.862252,2.2165107999999996
9.474028,-1.862252,2.2165107999999996
9.502751,-1.948423,2.2739582
9.502751,-1.948423,2.2739582
9.502751,-1.948423,2.2739582
9.502751,-1.948423,2.2739582
9.675094,-2.0441686999999997,2.2356597999999996
9.675094,-2.0441686999999997,2.2356597999999996
9.675094,-2.0441686999999997,2.2356597999999996
9.54105,-1.8143792,1.9962958
9.54105,-1.8143792,1.9962958
9.54105,-1.8143792,1.9962958
9.54105,-1.8143792,1.9962958
9.550624000000001,-1.8335283,1.9962958
9.550624000000001,-1.8335283,1.9962958
9.550624000000001,-1.8335283,1.9962958
9.550624000000001,-1.8335283,1.9962958
9.608071,-1.9579976000000003,2.1111906000000005
9.608071,-1.9579976000000003,2.1111906000000005
9.608071,-1.9579976000000003,2.1111906000000005
9.608071,-1.9579976000000003,2.1111906000000005
9.579348,-2.0058703,2.1399142999999996
9.579348,-2.0058703,2.1399142999999996
9.579348,-2.0058703,2.1399142999999996
9.579348,-2.0058703,2.1399142999999996
9.54105,-1.8431028999999999,2.0441686999999997
9.54105,-1.8431028999999999,2.0441686999999997
9.54105,-1.8431028999999999,2.0441686999999997
9.54105,-1.8431028999999999,2.0441686999999997
9.54105,-1.709059,1.9388485
9.54105,-1.709059,1.9388485
9.54105,-1.709059,1.9388485
9.62722,-2.034594,2.1303396
9.62722,-2.034594,2.1303396
9.62722,-2.034594,2.1303396
9.62722,-2.034594,2.1303396
9.62722,-2.034594,2.1303396
9.5889225,-1.8718264999999998,2.2069361
9.5889225,-1.8718264999999998,2.2069361
9.5889225,-1.8718264999999998,2.2069361
9.617646,-1.9771467,2.0824668
9.617646,-1.9771467,2.0824668
9.617646,-1.9771467,2.0824668
9.617646,-1.9771467,2.0824668
9.550624000000001,-1.8718264999999998,2.0633178
9.550624000000001,-1.8718264999999998,2.0633178
9.550624000000001,-1.8718264999999998,2.0633178
9.550624000000001,-1.8718264999999998,2.0633178
9.560199,-1.8718264999999998,2.0441686999999997
9.560199,-1.8718264999999998,2.0441686999999997
9.560199,-1.8718264999999998,2.0441686999999997
9.560199,-1.8718264999999998,2.0441686999999997
9.54105,-1.9196993000000002,2.1111906000000005
9.54105,-1.9196993000000002,2.1111906000000005
9.54105,-1.9196993000000002,2.1111906000000005
9.54105,-1.9196993000000002,2.1111906000000005
9.512326,-1.8143792,2.2835326
9.512326,-1.8143792,2.2835326
9.512326,-1.8143792,2.2835326
9.512326,-1.8143792,2.2835326
9.512326,-2.0824668,2.3984275
9.512326,-2.0824668,2.3984275
9.512326,-2.0824668,2.3984275
9.512326,-2.0824668,2.3984275
9.320834,-1.9962958,2.4750240000000003
9.320834,-1.9962958,2.4750240000000003
9.320834,-1.9962958,2.4750240000000003
9.41658,-1.9196993000000002,2.3505547000000004
9.41658,-1.9196993000000002,2.3505547000000004
9.41658,-1.9196993000000002,2.3505547000000004
9.41658,-1.9196993000000002,2.3505547000000004
9.41658,-1.9196993000000002,2.3505547000000004
9.483603,-1.5654407,1.8335283
9.483603,-1.5654407,1.8335283
9.483603,-1.5654407,1.8335283
9.474028,-1.5175678999999997,1.9388485
9.474028,-1.5175678999999997,1.9388485
9.474028,-1.5175678999999997,1.9388485
9.474028,-1.5175678999999997,1.9388485
9.474028,-1.7665064,2.2643836
9.474028,-1.7665064,2.2643836
9.474028,-1.7665064,2.2643836
9.474028,-1.7665064,2.2643836
9.215514,-2.1973617,2.1399142999999996
9.215514,-2.1973617,2.1399142999999996
9.215514,-2.1973617,2.1399142999999996
9.215514,-2.1973617,2.1399142999999996
8.5740185,-2.1973617,1.8718264999999998
8.5740185,-2.1973617,1.8718264999999998
8.5740185,-2.1973617,1.8718264999999998
8.5740185,-2.1973617,1.8718264999999998
9.952755999999999,-3.0494976,2.5994933
9.952755999999999,-3.0494976,2.5994933
9.952755999999999,-3.0494976,2.5994933
9.952755999999999,-3.0494976,2.5994933
9.971905,-2.9346027,3.2218397000000003
9.971905,-2.9346027,3.2218397000000003
9.971905,-2.9346027,3.2218397000000003
9.196365,-2.34098,3.3463089999999998
9.196365,-2.34098,3.3463089999999998
9.196365,-2.34098,3.3463089999999998
9.196365,-2.34098,3.3463089999999998
8.583592999999999,-2.321831,3.3271596
8.583592999999999,-2.321831,3.3271596
8.583592999999999,-2.321831,3.3271596
8.583592999999999,-2.321831,3.3271596
8.516571,-2.1111906000000005,2.88673
8.516571,-2.1111906000000005,2.88673
8.516571,-2.1111906000000005,2.88673
8.516571,-2.1111906000000005,2.88673
9.493176,-2.6282167000000003,2.5994933
9.493176,-2.6282167000000003,2.5994933
9.493176,-2.6282167000000003,2.5994933
9.493176,-2.6282167000000003,2.5994933
10.153821,-2.800559,2.4750240000000003
10.153821,-2.800559,2.4750240000000003
10.153821,-2.800559,2.4750240000000003
10.153821,-2.800559,2.4750240000000003
10.153821,-2.800559,2.4750240000000003
10.153821,-2.800559,2.4750240000000003
10.153821,-2.800559,2.4750240000000003
13.294277,-1.9962958,1.3260766000000002
13.294277,-1.9962958,1.3260766000000002
13.294277,-1.9962958,1.3260766000000002
13.294277,-1.9962958,1.3260766000000002
11.609155,-0.5888355,0.49308985
11.609155,-0.5888355,0.49308985
11.609155,-0.5888355,0.49308985
11.609155,-0.5888355,0.49308985
9.426155,-0.92394507,0.17712937
9.426155,-0.92394507,0.17712937
9.426155,-0.92394507,0.17712937
9.426155,-0.92394507,0.17712937
9.033598,-1.0675635,0.6750065
9.033598,-1.0675635,0.6750065
9.033598,-1.0675635,0.6750065
9.033598,-1.0675635,0.6750065
5.002708,-1.1058618,0.6558574
5.002708,-1.1058618,0.6558574
5.002708,-1.1058618,0.6558574
6.1420803,-1.5750152,1.776081
6.1420803,-1.5750152,1.776081
6.1420803,-1.5750152,1.776081
6.1420803,-1.5750152,1.776081
9.052747,-2.2069361,2.666515
9.052747,-2.2069361,2.666515
9.052747,-2.2069361,2.666515
9.052747,-2.2069361,2.666515
11.111278,-2.3314054,2.7814097
11.111278,-2.3314054,2.7814097
11.111278,-2.3314054,2.7814097
11.111278,-2.3314054,2.7814097
11.408089,-2.733537,2.3792782000000003
11.408089,-2.733537,2.3792782000000003
11.408089,-2.733537,2.3792782000000003
11.408089,-2.733537,2.3792782000000003
14.481523000000001,-3.5665237999999997,1.862252
14.481523000000001,-3.5665237999999997,1.862252
14.481523000000001,-3.5665237999999997,1.862252
14.481523000000001,-3.5665237999999997,1.862252
13.34215,-2.5707695,0.91437054
13.34215,-2.5707695,0.91437054
13.34215,-2.5707695,0.91437054
11.111278,-2.9920502,0.7228793
11.111278,-2.9920502,0.7228793
11.111278,-2.9920502,0.7228793
11.111278,-2.9920502,0.7228793
11.111278,-2.9920502,0.7228793
6.2474008,-1.3260766000000002,0.5313880999999999
6.2474008,-1.3260766000000002,0.5313880999999999
6.2474008,-1.3260766000000002,0.5313880999999999
4.4856815,-0.3398969,0.83777404
4.4856815,-0.3398969,0.83777404
4.4856815,-0.3398969,0.83777404
4.4856815,-0.3398969,0.83777404
6.132505999999999,-0.8186249,1.14416
6.132505999999999,-0.8186249,1.14416
6.132505999999999,-0.8186249,1.14416
6.132505999999999,-0.8186249,1.14416
10.5080805,-1.9005502,0.6845810999999999
10.5080805,-1.9005502,0.6845810999999999
10.5080805,-1.9005502,0.6845810999999999
10.5080805,-1.9005502,0.6845810999999999
14.136839000000002,-1.948423,0.4164934
14.136839000000002,-1.948423,0.4164934
14.136839000000002,-1.948423,0.4164934
14.136839000000002,-1.948423,0.4164934
14.682589000000002,-1.5750152,-0.40691882
14.682589000000002,-1.5750152,-0.40691882
14.682589000000002,-1.5750152,-0.40691882
14.682589000000002,-1.5750152,-0.40691882
10.038927000000001,-3.6622693999999996,0.71330476
10.038927000000001,-3.6622693999999996,0.71330476
10.038927000000001,-3.6622693999999996,0.71330476
10.038927000000001,-3.6622693999999996,0.71330476
11.187874,-1.9005502,1.9005502
11.187874,-1.9005502,1.9005502
11.187874,-1.9005502,1.9005502
6.0750585,1.5941644,2.7622607000000006
6.0750585,1.5941644,2.7622607000000006
6.0750585,1.5941644,2.7622607000000006
6.0750585,1.5941644,2.7622607000000006
6.0750585,1.5941644,2.7622607000000006
3.8920587999999996,-0.39734426,1.4984187
3.8920587999999996,-0.39734426,1.4984187
3.8920587999999996,-0.39734426,1.4984187
6.47719,-1.709059,2.1590632999999997
6.47719,-1.709059,2.1590632999999997
6.47719,-1.709059,2.1590632999999997
6.47719,-1.709059,2.1590632999999997
10.536804,-2.427151,2.3888528
10.536804,-2.427151,2.3888528
10.536804,-2.427151,2.3888528
10.536804,-2.427151,2.3888528
14.184710999999998,-3.0303482999999996,3.4420545
14.184710999999998,-3.0303482999999996,3.4420545
14.184710999999998,-3.0303482999999996,3.4420545
14.184710999999998,-3.0303482999999996,3.4420545
14.673014000000002,-2.4750240000000003,4.0069537
14.673014000000002,-2.4750240000000003,4.0069537
14.673014000000002,-2.4750240000000003,4.0069537
14.673014000000002,-2.4750240000000003,4.0069537
13.533641000000001,-2.9250283,1.3548003
13.533641000000001,-2.9250283,1.3548003
13.533641000000001,-2.9250283,1.3548003
13.533641000000001,-2.9250283,1.3548003
12.375119,-3.384607,1.1824582000000001
12.375119,-3.384607,1.1824582000000001
12.375119,-3.384607,1.1824582000000001
12.375119,-3.384607,1.1824582000000001
12.375119,-3.384607,1.1824582000000001
12.375119,-3.384607,1.1824582000000001
12.375119,-3.384607,1.1824582000000001
5.9027166,-2.2452345,1.5654407
5.9027166,-2.2452345,1.5654407
5.9027166,-2.2452345,1.5654407
5.9027166,-2.2452345,1.5654407
8.372953,-0.8281995000000001,1.6994845
8.372953,-0.8281995000000001,1.6994845
8.372953,-0.8281995000000001,1.6994845
8.372953,-0.8281995000000001,1.6994845
10.527229,-1.2111819,0.7420284
10.527229,-1.2111819,0.7420284
10.527229,-1.2111819,0.7420284
10.996383,-2.1590632999999997,0.2441513
10.996383,-2.1590632999999997,0.2441513
10.996383,-2.1590632999999997,0.2441513
10.996383,-2.1590632999999997,0.2441513
10.996383,-2.1590632999999997,0.2441513
10.996383,-2.1590632999999997,0.2441513
10.996383,-2.1590632999999997,0.2441513
10.996383,-2.1590632999999997,0.2441513
10.40276,-3.7292912000000005,2.7239625
10.40276,-3.7292912000000005,2.7239625
10.40276,-3.7292912000000005,2.7239625
9.64637,-1.3165021000000001,3.7005677
9.64637,-1.3165021000000001,3.7005677
9.64637,-1.3165021000000001,3.7005677
9.64637,-1.3165021000000001,3.7005677
4.9739842,2.1303396,2.9824755
4.9739842,2.1303396,2.9824755
4.9739842,2.1303396,2.9824755
4.9739842,2.1303396,2.9824755
3.7197167999999996,-1.4984187,1.8909756999999998
3.7197167999999996,-1.4984187,1.8909756999999998
3.7197167999999996,-1.4984187,1.8909756999999998
3.7197167999999996,-1.4984187,1.8909756999999998
5.7208,-3.8729098,3.9686553
5.7208,-3.8729098,3.9686553
5.7208,-3.8729098,3.9686553
5.7208,-3.8729098,3.9686553
11.743198,-5.1846247000000005,5.2037735000000005
11.743198,-5.1846247000000005,5.2037735000000005
11.743198,-5.1846247000000005,5.2037735000000005
11.743198,-5.1846247000000005,5.2037735000000005
13.399597,-6.391019,4.6388745
13.399597,-6.391019,4.6388745
13.399597,-6.391019,4.6388745
13.399597,-6.391019,4.6388745
15.08472,-6.0750585,3.8729098
15.08472,-6.0750585,3.8729098
15.08472,-6.0750585,3.8729098
13.907048999999999,-4.6293,1.0962871
13.907048999999999,-4.6293,1.0962871
13.907048999999999,-4.6293,1.0962871
13.907048999999999,-4.6293,1.0962871
13.907048999999999,-4.6293,1.0962871
9.550624000000001,-3.5856729,1.2686293
9.550624000000001,-3.5856729,1.2686293
9.550624000000001,-3.5856729,1.2686293
5.2133484,-2.2931072999999995,0.8090504
5.2133484,-2.2931072999999995,0.8090504
5.2133484,-2.2931072999999995,0.8090504
5.2133484,-2.2931072999999995,0.8090504
5.9027166,-1.9101248,0.062234644000000006
5.9027166,-1.9101248,0.062234644000000006
5.9027166,-1.9101248,0.062234644000000006
5.9027166,-1.9101248,0.062234644000000006
7.329325999999999,-1.4409714,0.3398969
7.329325999999999,-1.4409714,0.3398969
7.329325999999999,-1.4409714,0.3398969
7.329325999999999,-1.4409714,0.3398969
9.119769,-1.9388485,0.59841
9.119769,-1.9388485,0.59841
9.119769,-1.9388485,0.59841
9.119769,-1.9388485,0.59841
11.925115,-2.408002,1.3165021000000001
11.925115,-2.408002,1.3165021000000001
11.925115,-2.408002,1.3165021000000001
11.925115,-2.408002,1.3165021000000001
12.748528,-1.8526775000000002,1.8431028999999999
12.748528,-1.8526775000000002,1.8431028999999999
12.748528,-1.8526775000000002,1.8431028999999999
12.748528,-1.8526775000000002,1.8431028999999999
12.767676,-3.4324798999999997,3.9878044000000004
12.767676,-3.4324798999999997,3.9878044000000004
12.767676,-3.4324798999999997,3.9878044000000004
9.483603,-0.56968635,3.518651
9.483603,-0.56968635,3.518651
9.483603,-0.56968635,3.518651
9.483603,-0.56968635,3.518651
3.9590807,1.1633091,2.647366
3.9590807,1.1633091,2.647366
3.9590807,1.1633091,2.647366
3.9590807,1.1633091,2.647366
4.916537,-2.1782124,1.7473572
4.916537,-2.1782124,1.7473572
4.916537,-2.1782124,1.7473572
4.916537,-2.1782124,1.7473572
8.258059,-3.2697124,2.101616
8.258059,-3.2697124,2.101616
8.258059,-3.2697124,2.101616
8.258059,-3.2697124,2.101616
10.536804,-3.6143966,3.1643922000000004
10.536804,-3.6143966,3.1643922000000004
10.536804,-3.6143966,3.1643922000000004
10.536804,-3.6143966,3.1643922000000004
15.161317000000002,-3.384607,4.0931244
15.161317000000002,-3.384607,4.0931244
15.161317000000002,-3.384607,4.0931244
15.458128,-1.6707608,2.5707695
15.458128,-1.6707608,2.5707695
15.458128,-1.6707608,2.5707695
15.458128,-1.6707608,2.5707695
15.362382,-3.5282254,0.90479594
15.362382,-3.5282254,0.90479594
15.362382,-3.5282254,0.90479594
15.362382,-3.5282254,0.90479594
7.080387599999999,-3.078221,2.3122563
7.080387599999999,-3.078221,2.3122563
7.080387599999999,-3.078221,2.3122563
7.080387599999999,-3.078221,2.3122563
4.6388745,-2.2452345,0.98139244
4.6388745,-2.2452345,0.98139244
4.6388745,-2.2452345,0.98139244
4.6388745,-2.2452345,0.98139244
6.467615599999999,-1.6516117,0.63670826
6.467615599999999,-1.6516117,0.63670826
6.467615599999999,-1.6516117,0.63670826
6.467615599999999,-1.6516117,0.63670826
11.025106,-0.9622433000000001,0.85692316
11.025106,-0.9622433000000001,0.85692316
11.025106,-0.9622433000000001,0.85692316
11.025106,-0.9622433000000001,0.85692316
12.892146,-1.6516117,-0.110107444
12.892146,-1.6516117,-0.110107444
12.892146,-1.6516117,-0.110107444
12.892146,-1.6516117,-0.110107444
13.150659,-2.4175766,-0.9622433000000001
13.150659,-2.4175766,-0.9622433000000001
13.150659,-2.4175766,-0.9622433000000001
13.150659,-2.4175766,-0.9622433000000001
9.636795,-4.3707867,1.7282081999999999
9.636795,-4.3707867,1.7282081999999999
9.636795,-4.3707867,1.7282081999999999
11.187874,-2.4750240000000003,2.3026817000000004
11.187874,-2.4750240000000003,2.3026817000000004
11.187874,-2.4750240000000003,2.3026817000000004
11.187874,-2.4750240000000003,2.3026817000000004
5.500585,0.9430941999999999,2.1399142999999996
5.500585,0.9430941999999999,2.1399142999999996
5.500585,0.9430941999999999,2.1399142999999996
5.500585,0.9430941999999999,2.1399142999999996
3.7197167999999996,-0.33032233,1.7186337
3.7197167999999996,-0.33032233,1.7186337
3.7197167999999996,-0.33032233,1.7186337
3.7197167999999996,-0.33032233,1.7186337
5.242071599999999,-2.408002,1.3739493999999999
5.242071599999999,-2.408002,1.3739493999999999
5.242071599999999,-2.408002,1.3739493999999999
5.242071599999999,-2.408002,1.3739493999999999
9.138917999999999,-3.1165195,3.3271596
9.138917999999999,-3.1165195,3.3271596
9.138917999999999,-3.1165195,3.3271596
9.138917999999999,-3.1165195,3.3271596
14.558119,-2.168638,4.275041000000001
14.558119,-2.168638,4.275041000000001
14.558119,-2.168638,4.275041000000001
14.558119,-2.168638,4.275041000000001
18.368793,-1.1633091,4.294190400000001
18.368793,-1.1633091,4.294190400000001
18.368793,-1.1633091,4.294190400000001
18.368793,-1.1633091,4.294190400000001
15.448553,-1.8431028999999999,0.8952214
15.448553,-1.8431028999999999,0.8952214
15.448553,-1.8431028999999999,0.8952214
15.448553,-1.8431028999999999,0.8952214
10.670848,-4.294190400000001,1.5462915000000002
10.670848,-4.294190400000001,1.5462915000000002
10.670848,-4.294190400000001,1.5462915000000002
10.670848,-4.294190400000001,1.5462915000000002
5.098453500000001,-2.9633265,0.98139244
5.098453500000001,-2.9633265,0.98139244
5.098453500000001,-2.9633265,0.98139244
5.1654754,-1.2399056,0.78032666
5.1654754,-1.2399056,0.78032666
5.1654754,-1.2399056,0.78032666
5.1654754,-1.2399056,0.78032666
5.1654754,-1.2399056,0.78032666
8.028269,-1.2207563999999997,0.6271336999999999
8.028269,-1.2207563999999997,0.6271336999999999
8.028269,-1.2207563999999997,0.6271336999999999
10.94851,-1.6420371999999999,0.5505372
10.94851,-1.6420371999999999,0.5505372
10.94851,-1.6420371999999999,0.5505372
10.94851,-1.6420371999999999,0.5505372
10.94851,-1.6420371999999999,0.5505372
11.618729,-1.8048046999999998,-0.56968635
11.618729,-1.8048046999999998,-0.56968635
11.618729,-1.8048046999999998,-0.56968635
11.618729,-1.8048046999999998,-0.56968635
12.413418,-2.8388572,-0.8281995000000001
12.413418,-2.8388572,-0.8281995000000001
12.413418,-2.8388572,-0.8281995000000001
11.111278,-4.1792955,3.212265
11.111278,-4.1792955,3.212265
11.111278,-4.1792955,3.212265
11.111278,-4.1792955,3.212265
9.033598,-0.2920241,3.059072
9.033598,-0.2920241,3.059072
9.033598,-0.2920241,3.059072
9.033598,-0.2920241,3.059072
4.543129,1.0388398,2.6952388
4.543129,1.0388398,2.6952388
4.543129,1.0388398,2.6952388
4.543129,1.0388398,2.6952388
4.3612123,-2.3984275,1.6324625
4.3612123,-2.3984275,1.6324625
4.3612123,-2.3984275,1.6324625
4.3612123,-2.3984275,1.6324625
8.698488000000001,-4.3995104000000005,2.6952388
8.698488000000001,-4.3995104000000005,2.6952388
8.698488000000001,-4.3995104000000005,2.6952388
8.698488000000001,-4.3995104000000005,2.6952388
12.930444,-3.604822,4.3707867
12.930444,-3.604822,4.3707867
12.930444,-3.604822,4.3707867
12.930444,-3.604822,4.3707867
13.859176999999999,-2.1877869999999997,3.8346114
13.859176999999999,-2.1877869999999997,3.8346114
13.859176999999999,-2.1877869999999997,3.8346114
13.859176999999999,-2.1877869999999997,3.8346114
14.941101999999999,-3.7867386,2.666515
14.941101999999999,-3.7867386,2.666515
14.941101999999999,-3.7867386,2.666515
14.941101999999999,-3.7867386,2.666515
14.596417,-4.1888704,0.8281995000000001
14.596417,-4.1888704,0.8281995000000001
14.596417,-4.1888704,0.8281995000000001
14.596417,-4.1888704,0.8281995000000001
8.305931,-3.4133307999999998,1.4409714
8.305931,-3.4133307999999998,1.4409714
8.305931,-3.4133307999999998,1.4409714
8.305931,-3.4133307999999998,1.4409714
5.711225499999999,-2.2069361,1.2782038
5.711225499999999,-2.2069361,1.2782038
5.711225499999999,-2.2069361,1.2782038
5.711225499999999,-2.2069361,1.2782038
7.137835000000001,-1.4409714,0.64628285
7.137835000000001,-1.4409714,0.64628285
7.137835000000001,-1.4409714,0.64628285
9.426155,-1.3260766000000002,0.665432
9.426155,-1.3260766000000002,0.665432
9.426155,-1.3260766000000002,0.665432
9.426155,-1.3260766000000002,0.665432
9.426155,-1.3260766000000002,0.665432
11.178299,-1.469695,0.2920241
11.178299,-1.469695,0.2920241
11.178299,-1.469695,0.2920241
11.178299,-1.469695,0.2920241
13.323001000000001,-1.0962871,-0.751603
13.323001000000001,-1.0962871,-0.751603
13.323001000000001,-1.0962871,-0.751603
13.323001000000001,-1.0962871,-0.751603
12.5474615,-2.6186423,0.00478728
12.5474615,-2.6186423,0.00478728
12.5474615,-2.6186423,0.00478728
11.36979,-2.5707695,2.0920415
11.36979,-2.5707695,2.0920415
11.36979,-2.5707695,2.0920415
11.36979,-2.5707695,2.0920415
5.146326,-0.36862057,2.1303396
5.146326,-0.36862057,2.1303396
5.146326,-0.36862057,2.1303396
5.146326,-0.36862057,2.1303396
4.131423000000001,-0.85692316,2.1782124
4.131423000000001,-0.85692316,2.1782124
4.131423000000001,-0.85692316,2.1782124
4.131423000000001,-0.85692316,2.1782124
6.783575999999999,-1.5750152,2.6186423
6.783575999999999,-1.5750152,2.6186423
6.783575999999999,-1.5750152,2.6186423
6.783575999999999,-1.5750152,2.6186423
11.484685,-1.5175678999999997,3.1260939999999997
11.484685,-1.5175678999999997,3.1260939999999997
11.484685,-1.5175678999999997,3.1260939999999997
11.484685,-1.5175678999999997,3.1260939999999997
14.835780999999999,-3.384607,3.7197167999999996
14.835780999999999,-3.384607,3.7197167999999996
14.835780999999999,-3.384607,3.7197167999999996
14.835780999999999,-3.384607,3.7197167999999996
15.611320499999998,-4.322914,4.83994
15.611320499999998,-4.322914,4.83994
15.611320499999998,-4.322914,4.83994
15.611320499999998,-4.322914,4.83994
15.956005,-3.2984362000000003,3.2888615
15.956005,-3.2984362000000003,3.2888615
15.956005,-3.2984362000000003,3.2888615
15.956005,-3.2984362000000003,3.2888615
12.288948,-3.1643922000000004,2.0824668
12.288948,-3.1643922000000004,2.0824668
12.288948,-3.1643922000000004,2.0824668
12.288948,-3.1643922000000004,2.0824668
6.592085000000001,-2.2643836,1.0962871
6.592085000000001,-2.2643836,1.0962871
6.592085000000001,-2.2643836,1.0962871
6.027186,-1.5271424,0.5313880999999999
6.027186,-1.5271424,0.5313880999999999
6.027186,-1.5271424,0.5313880999999999
6.027186,-1.5271424,0.5313880999999999
6.027186,-1.5271424,0.5313880999999999
7.348475,-1.3739493999999999,0.23457673
7.348475,-1.3739493999999999,0.23457673
7.348475,-1.3739493999999999,0.23457673
9.301685,-1.0771381000000002,-0.12925656
9.301685,-1.0771381000000002,-0.12925656
9.301685,-1.0771381000000002,-0.12925656
9.301685,-1.0771381000000002,-0.12925656
11.436812,-1.4505458999999998,-0.56968635
11.436812,-1.4505458999999998,-0.56968635
11.436812,-1.4505458999999998,-0.56968635
11.436812,-1.4505458999999998,-0.56968635
11.436812,-1.4505458999999998,-0.56968635
12.90172,-1.8239537000000001,-1.0101161
12.90172,-1.8239537000000001,-1.0101161
12.90172,-1.8239537000000001,-1.0101161
12.758101,-2.972901,0.6271336999999999
12.758101,-2.972901,0.6271336999999999
12.758101,-2.972901,0.6271336999999999
12.758101,-2.972901,0.6271336999999999
10.326163000000001,-1.6611862000000002,2.2356597999999996
10.326163000000001,-1.6611862000000002,2.2356597999999996
10.326163000000001,-1.6611862000000002,2.2356597999999996
10.326163000000001,-1.6611862000000002,2.2356597999999996
4.6771727,-0.14840569,3.059072
4.6771727,-0.14840569,3.059072
4.6771727,-0.14840569,3.059072
4.6771727,-0.14840569,3.059072
4.8590894,-1.7856555,1.6420371999999999
4.8590894,-1.7856555,1.6420371999999999
4.8590894,-1.7856555,1.6420371999999999
4.8590894,-1.7856555,1.6420371999999999
8.976150500000001,-2.9824755,2.321831
8.976150500000001,-2.9824755,2.321831
8.976150500000001,-2.9824755,2.321831
8.976150500000001,-2.9824755,2.321831
14.117689000000002,-4.016528,3.8537605000000004
14.117689000000002,-4.016528,3.8537605000000004
14.117689000000002,-4.016528,3.8537605000000004
14.117689000000002,-4.016528,3.8537605000000004
14.462373999999999,-4.303765,4.3612123
14.462373999999999,-4.303765,4.3612123
14.462373999999999,-4.303765,4.3612123
14.462373999999999,-4.303765,4.3612123
13.859176999999999,-4.5622783,3.671844
13.859176999999999,-4.5622783,3.671844
13.859176999999999,-4.5622783,3.671844
13.859176999999999,-4.5622783,3.671844
15.257062,-3.8920587999999996,2.3888528
15.257062,-3.8920587999999996,2.3888528
15.257062,-3.8920587999999996,2.3888528
15.257062,-3.8920587999999996,2.3888528
10.555953,-3.231414,1.6516117
10.555953,-3.231414,1.6516117
10.555953,-3.231414,1.6516117
6.7931504,-2.254809,0.8473485999999999
6.7931504,-2.254809,0.8473485999999999
6.7931504,-2.254809,0.8473485999999999
6.7931504,-2.254809,0.8473485999999999
6.7931504,-2.254809,0.8473485999999999
7.051664,-1.3165021000000001,0.25372586
7.051664,-1.3165021000000001,0.25372586
7.051664,-1.3165021000000001,0.25372586
7.9133744,-1.1633091,0.3877697
7.9133744,-1.1633091,0.3877697
7.9133744,-1.1633091,0.3877697
7.9133744,-1.1633091,0.3877697
7.9133744,-1.1633091,0.3877697
9.502751,-1.1728836,0.28244954
9.502751,-1.1728836,0.28244954
9.502751,-1.1728836,0.28244954
9.502751,-1.1728836,0.28244954
10.766592999999999,-1.8143792,-0.40691882
10.766592999999999,-1.8143792,-0.40691882
10.766592999999999,-1.8143792,-0.40691882
12.643207,-2.561195,-0.36862057
12.643207,-2.561195,-0.36862057
12.643207,-2.561195,-0.36862057
12.643207,-2.561195,-0.36862057
11.618729,-2.9154537,0.76117754
11.618729,-2.9154537,0.76117754
11.618729,-2.9154537,0.76117754
11.618729,-2.9154537,0.76117754
10.354887,-1.5271424,2.2835326
10.354887,-1.5271424,2.2835326
10.354887,-1.5271424,2.2835326
10.354887,-1.5271424,2.2835326
5.309094,-0.26330042,3.2505634
5.309094,-0.26330042,3.2505634
5.309094,-0.26330042,3.2505634
5.309094,-0.26330042,3.2505634
5.9697385,-1.9388485,1.9005502
5.9697385,-1.9388485,1.9005502
5.9697385,-1.9388485,1.9005502
5.9697385,-1.9388485,1.9005502
9.18679,-3.0207740000000003,2.6952388
9.18679,-3.0207740000000003,2.6952388
9.18679,-3.0207740000000003,2.6952388
9.18679,-3.0207740000000003,2.6952388
12.968742,-3.5856729,4.696322
12.968742,-3.5856729,4.696322
12.968742,-3.5856729,4.696322
12.968742,-3.5856729,4.696322
16.329411999999998,-3.2792869,5.538883
16.329411999999998,-3.2792869,5.538883
16.329411999999998,-3.2792869,5.538883
16.329411999999998,-3.2792869,5.538883
15.017698000000001,-3.6814184,3.518651
15.017698000000001,-3.6814184,3.518651
15.017698000000001,-3.6814184,3.518651
15.017698000000001,-3.6814184,3.518651
14.366628,-3.997379,1.2399056
14.366628,-3.997379,1.2399056
14.366628,-3.997379,1.2399056
14.366628,-3.997379,1.2399056
8.612317,-3.2697124,0.7420284
8.612317,-3.2697124,0.7420284
8.612317,-3.2697124,0.7420284
6.400593799999999,-1.9962958,0.8090504
6.400593799999999,-1.9962958,0.8090504
6.400593799999999,-1.9962958,0.8090504
6.400593799999999,-1.9962958,0.8090504
7.2240057,-1.2973529,0.50266445
7.2240057,-1.2973529,0.50266445
7.2240057,-1.2973529,0.50266445
7.2240057,-1.2973529,0.50266445
9.033598,-1.3452256999999999,0.18670394
9.033598,-1.3452256999999999,0.18670394
9.033598,-1.3452256999999999,0.18670394
9.033598,-1.3452256999999999,0.18670394
9.780414,-1.5654407,-0.359046
9.780414,-1.5654407,-0.359046
9.780414,-1.5654407,-0.359046
9.780414,-1.5654407,-0.359046
9.780414,-1.5654407,-0.359046
11.207023,-1.8909756999999998,-0.14840569
11.207023,-1.8909756999999998,-0.14840569
11.207023,-1.8909756999999998,-0.14840569
12.193203,-2.149489,0.17712937
12.193203,-2.149489,0.17712937
12.193203,-2.149489,0.17712937
12.193203,-2.149489,0.17712937
12.729378,-3.2218397000000003,1.3260766000000002
12.729378,-3.2218397000000003,1.3260766000000002
12.729378,-3.2218397000000003,1.3260766000000002
12.729378,-3.2218397000000003,1.3260766000000002
7.894225,-1.2207563999999997,3.1643922000000004
7.894225,-1.2207563999999997,3.1643922000000004
7.894225,-1.2207563999999997,3.1643922000000004
7.894225,-1.2207563999999997,3.1643922000000004
4.6293,-0.023936402000000002,2.7048132000000003
4.6293,-0.023936402000000002,2.7048132000000003
4.6293,-0.023936402000000002,2.7048132000000003
4.6293,-0.023936402000000002,2.7048132000000003
6.639958,-2.4654493,1.948423
6.639958,-2.4654493,1.948423
6.639958,-2.4654493,1.948423
6.639958,-2.4654493,1.948423
11.15915,-3.3654580000000003,3.3558834
11.15915,-3.3654580000000003,3.3558834
11.15915,-3.3654580000000003,3.3558834
11.15915,-3.3654580000000003,3.3558834
14.596417,-4.0548263,5.2133484
14.596417,-4.0548263,5.2133484
14.596417,-4.0548263,5.2133484
14.596417,-4.0548263,5.2133484
15.774088,-3.5952474999999997,5.4335629999999995
15.774088,-3.5952474999999997,5.4335629999999995
15.774088,-3.5952474999999997,5.4335629999999995
15.774088,-3.5952474999999997,5.4335629999999995
13.907048999999999,-3.7005677,2.714388
13.907048999999999,-3.7005677,2.714388
13.907048999999999,-3.7005677,2.714388
13.907048999999999,-3.7005677,2.714388
12.997466000000001,-4.294190400000001,1.5367169
12.997466000000001,-4.294190400000001,1.5367169
12.997466000000001,-4.294190400000001,1.5367169
7.4442205,-2.5420458,1.1728836
7.4442205,-2.5420458,1.1728836
7.4442205,-2.5420458,1.1728836
7.4442205,-2.5420458,1.1728836
7.4442205,-2.5420458,1.1728836
6.9080452999999995,-1.9101248,0.3877697
6.9080452999999995,-1.9101248,0.3877697
6.9080452999999995,-1.9101248,0.3877697
8.296356,-1.3643749,0.46436617
8.296356,-1.3643749,0.46436617
8.296356,-1.3643749,0.46436617
8.296356,-1.3643749,0.46436617
10.469782,-1.2494801000000002,0.23457673
10.469782,-1.2494801000000002,0.23457673
10.469782,-1.2494801000000002,0.23457673
10.469782,-1.2494801000000002,0.23457673
10.747444,-1.8335283,-1.0771381000000002
10.747444,-1.8335283,-1.0771381000000002
10.747444,-1.8335283,-1.0771381000000002
10.747444,-1.8335283,-1.0771381000000002
11.082554,-2.168638,-1.0579889
11.082554,-2.168638,-1.0579889
11.082554,-2.168638,-1.0579889
11.082554,-2.168638,-1.0579889
11.130426,-2.5516202,1.2686293
11.130426,-2.5516202,1.2686293
11.130426,-2.5516202,1.2686293
11.130426,-2.5516202,1.2686293
11.398514,-0.9526688,2.5516202
11.398514,-0.9526688,2.5516202
11.398514,-0.9526688,2.5516202
11.398514,-0.9526688,2.5516202
6.3527207,0.10053288,3.1069447999999995
6.3527207,0.10053288,3.1069447999999995
6.3527207,0.10053288,3.1069447999999995
6.3527207,0.10053288,3.1069447999999995
5.519734,-1.6324625,1.5079931999999998
5.519734,-1.6324625,1.5079931999999998
5.519734,-1.6324625,1.5079931999999998
5.519734,-1.6324625,1.5079931999999998
8.056992999999999,-3.0877957,1.6803354
8.056992999999999,-3.0877957,1.6803354
8.056992999999999,-3.0877957,1.6803354
8.056992999999999,-3.0877957,1.6803354
12.422992,-4.456958,3.384607
12.422992,-4.456958,3.384607
12.422992,-4.456958,3.384607
12.422992,-4.456958,3.384607
14.519820999999999,-5.6154795,5.5101595
14.519820999999999,-5.6154795,5.5101595
14.519820999999999,-5.6154795,5.5101595
14.519820999999999,-5.6154795,5.5101595
18.004960999999998,-4.2175937,4.9069624
18.004960999999998,-4.2175937,4.9069624
18.004960999999998,-4.2175937,4.9069624
18.004960999999998,-4.2175937,4.9069624
17.047504,-3.5952474999999997,1.5079931999999998
17.047504,-3.5952474999999997,1.5079931999999998
17.047504,-3.5952474999999997,1.5079931999999998
10.6134,-3.8154623999999995,0.8090504
10.6134,-3.8154623999999995,0.8090504
10.6134,-3.8154623999999995,0.8090504
10.6134,-3.8154623999999995,0.8090504
7.271878699999999,-2.149489,0.20585304
7.271878699999999,-2.149489,0.20585304
7.271878699999999,-2.149489,0.20585304
7.271878699999999,-2.149489,0.20585304
7.6069884000000005,-0.9622433000000001,-0.00478728
7.6069884000000005,-0.9622433000000001,-0.00478728
7.6069884000000005,-0.9622433000000001,-0.00478728
7.6069884000000005,-0.9622433000000001,-0.00478728
8.717637,-1.0005416,0.062234644000000006
8.717637,-1.0005416,0.062234644000000006
8.717637,-1.0005416,0.062234644000000006
8.717637,-1.0005416,0.062234644000000006
10.058076,-1.7186337,-0.63670826
10.058076,-1.7186337,-0.63670826
10.058076,-1.7186337,-0.63670826
10.058076,-1.7186337,-0.63670826
10.469782,-1.7856555,-0.93351966
10.469782,-1.7856555,-0.93351966
10.469782,-1.7856555,-0.93351966
10.469782,-1.7856555,-0.93351966
10.852764,-1.8814011999999998,-1.1154363
10.852764,-1.8814011999999998,-1.1154363
10.852764,-1.8814011999999998,-1.1154363
10.852764,-1.8814011999999998,-1.1154363
12.872996,-2.9346027,-0.014361841
12.872996,-2.9346027,-0.014361841
12.872996,-2.9346027,-0.014361841
12.872996,-2.9346027,-0.014361841
9.531475,-1.2973529,2.2931072999999995
9.531475,-1.2973529,2.2931072999999995
9.531475,-1.2973529,2.2931072999999995
9.531475,-1.2973529,2.2931072999999995
5.7016506,0.062234644000000006,3.3654580000000003
5.7016506,0.062234644000000006,3.3654580000000003
5.7016506,0.062234644000000006,3.3654580000000003
5.7016506,0.062234644000000006,3.3654580000000003
6.946343400000001,-2.1590632999999997,1.6899098999999997
6.946343400000001,-2.1590632999999997,1.6899098999999997
6.946343400000001,-2.1590632999999997,1.6899098999999997
6.946343400000001,-2.1590632999999997,1.6899098999999997
11.905966000000001,-3.5856729,3.3080106
11.905966000000001,-3.5856729,3.3080106
11.905966000000001,-3.5856729,3.3080106
11.905966000000001,-3.5856729,3.3080106
14.76876,-3.518651,5.845269
14.76876,-3.518651,5.845269
14.76876,-3.518651,5.845269
14.76876,-3.518651,5.845269
15.96558,-3.0973704,6.3718699999999995
15.96558,-3.0973704,6.3718699999999995
15.96558,-3.0973704,6.3718699999999995
15.96558,-3.0973704,6.3718699999999995
16.568776999999997,-3.604822,3.0686467
16.568776999999997,-3.604822,3.0686467
16.568776999999997,-3.604822,3.0686467
16.568776999999997,-3.604822,3.0686467
15.553873000000001,-4.428234,0.665432
15.553873000000001,-4.428234,0.665432
15.553873000000001,-4.428234,0.665432
8.1623125,-3.0877957,0.2154276
8.1623125,-3.0877957,0.2154276
8.1623125,-3.0877957,0.2154276
8.1623125,-3.0877957,0.2154276
7.4920936000000005,-2.1877869999999997,-0.37819514
7.4920936000000005,-2.1877869999999997,-0.37819514
7.4920936000000005,-2.1877869999999997,-0.37819514
7.4920936000000005,-2.1877869999999997,-0.37819514
8.535721,-1.2494801000000002,0.2920241
8.535721,-1.2494801000000002,0.2920241
8.535721,-1.2494801000000002,0.2920241
8.535721,-1.2494801000000002,0.2920241
10.450633,-0.83777404,0.13883112
10.450633,-0.83777404,0.13883112
10.450633,-0.83777404,0.13883112
10.450633,-0.83777404,0.13883112
9.732541000000001,0.12925656,-1.5271424
9.732541000000001,0.12925656,-1.5271424
9.732541000000001,0.12925656,-1.5271424
9.732541000000001,0.12925656,-1.5271424
11.101703,-1.776081,-2.34098
11.101703,-1.776081,-2.34098
11.101703,-1.776081,-2.34098
11.886817,-3.1356685,-0.69415563
11.886817,-3.1356685,-0.69415563
11.886817,-3.1356685,-0.69415563
11.886817,-3.1356685,-0.69415563
11.886817,-3.1356685,-0.69415563
12.193203,-2.4750240000000003,2.0633178
12.193203,-2.4750240000000003,2.0633178
12.193203,-2.4750240000000003,2.0633178
6.9559183,0.7324539000000001,3.2505634
6.9559183,0.7324539000000001,3.2505634
6.9559183,0.7324539000000001,3.2505634
6.9559183,0.7324539000000001,3.2505634
6.391019,-0.7994758000000001,2.6186423
6.391019,-0.7994758000000001,2.6186423
6.391019,-0.7994758000000001,2.6186423
6.391019,-0.7994758000000001,2.6186423
8.813383,-2.9824755,2.3505547000000004
8.813383,-2.9824755,2.3505547000000004
8.813383,-2.9824755,2.3505547000000004
8.813383,-2.9824755,2.3505547000000004
12.643207,-3.039923,4.3133397
12.643207,-3.039923,4.3133397
12.643207,-3.039923,4.3133397
12.643207,-3.039923,4.3133397
14.87408,-3.6526947,5.376116000000001
14.87408,-3.6526947,5.376116000000001
14.87408,-3.6526947,5.376116000000001
14.87408,-3.6526947,5.376116000000001
16.798567000000002,-4.1122737,4.993133
16.798567000000002,-4.1122737,4.993133
16.798567000000002,-4.1122737,4.993133
16.798567000000002,-4.1122737,4.993133
16.923035000000002,-4.3516379999999995,1.8239537000000001
16.923035000000002,-4.3516379999999995,1.8239537000000001
16.923035000000002,-4.3516379999999995,1.8239537000000001
12.001712,-3.690993,0.90479594
12.001712,-3.690993,0.90479594
12.001712,-3.690993,0.90479594
12.001712,-3.690993,0.90479594
7.520817299999999,-2.0250196,0.50266445
7.520817299999999,-2.0250196,0.50266445
7.520817299999999,-2.0250196,0.50266445
7.520817299999999,-2.0250196,0.50266445
7.5495410000000005,-1.383524,-0.19627848
7.5495410000000005,-1.383524,-0.19627848
7.5495410000000005,-1.383524,-0.19627848
7.5495410000000005,-1.383524,-0.19627848
8.727212,-1.4888442,0.0718092
8.727212,-1.4888442,0.0718092
8.727212,-1.4888442,0.0718092
8.727212,-1.4888442,0.0718092
9.5889225,-1.4026731000000001,-0.7420284
9.5889225,-1.4026731000000001,-0.7420284
9.5889225,-1.4026731000000001,-0.7420284
9.5889225,-1.4026731000000001,-0.7420284
9.952755999999999,-1.1728836,-1.1633091
9.952755999999999,-1.1728836,-1.1633091
9.952755999999999,-1.1728836,-1.1633091
9.952755999999999,-1.1728836,-1.1633091
12.221927,-2.0824668,-1.4026731000000001
12.221927,-2.0824668,-1.4026731000000001
12.221927,-2.0824668,-1.4026731000000001
12.6527815,-3.0973704,-0.0718092
12.6527815,-3.0973704,-0.0718092
12.6527815,-3.0973704,-0.0718092
12.6527815,-3.0973704,-0.0718092
10.431483,-0.69415563,1.8909756999999998
10.431483,-0.69415563,1.8909756999999998
10.431483,-0.69415563,1.8909756999999998
10.431483,-0.69415563,1.8909756999999998
5.261221,0.09095833,2.88673
5.261221,0.09095833,2.88673
5.261221,0.09095833,2.88673
5.261221,0.09095833,2.88673
6.3527207,-2.149489,2.3984275
6.3527207,-2.149489,2.3984275
6.3527207,-2.149489,2.3984275
6.3527207,-2.149489,2.3984275
10.220842999999999,-2.6377914000000002,3.1356685
10.220842999999999,-2.6377914000000002,3.1356685
10.220842999999999,-2.6377914000000002,3.1356685
10.220842999999999,-2.6377914000000002,3.1356685
15.209189000000002,-3.3080106,5.031431700000001
15.209189000000002,-3.3080106,5.031431700000001
15.209189000000002,-3.3080106,5.031431700000001
15.209189000000002,-3.3080106,5.031431700000001
14.577269,-3.8920587999999996,5.0793040000000005
14.577269,-3.8920587999999996,5.0793040000000005
14.577269,-3.8920587999999996,5.0793040000000005
14.577269,-3.8920587999999996,5.0793040000000005
16.721970000000002,-4.5144053,4.1888704
16.721970000000002,-4.5144053,4.1888704
16.721970000000002,-4.5144053,4.1888704
14.902803,-4.2080193,2.1782124
14.902803,-4.2080193,2.1782124
14.902803,-4.2080193,2.1782124
14.902803,-4.2080193,2.1782124
10.689997,-2.8484317999999997,1.2016073
10.689997,-2.8484317999999997,1.2016073
10.689997,-2.8484317999999997,1.2016073
10.689997,-2.8484317999999997,1.2016073
7.4537954,-1.6611862000000002,0.5313880999999999
7.4537954,-1.6611862000000002,0.5313880999999999
7.4537954,-1.6611862000000002,0.5313880999999999
7.4537954,-1.6611862000000002,0.5313880999999999
8.018694,-1.8909756999999998,-0.09095833
8.018694,-1.8909756999999998,-0.09095833
8.018694,-1.8909756999999998,-0.09095833
8.018694,-1.8909756999999998,-0.09095833
9.062322,-2.034594,-1.7952299999999999
9.062322,-2.034594,-1.7952299999999999
9.062322,-2.034594,-1.7952299999999999
9.062322,-2.034594,-1.7952299999999999
9.129342999999999,0.00478728,-2.1590632999999997
9.129342999999999,0.00478728,-2.1590632999999997
9.129342999999999,0.00478728,-2.1590632999999997
9.129342999999999,0.00478728,-2.1590632999999997
11.207023,0.5313880999999999,-3.5665237999999997
11.207023,0.5313880999999999,-3.5665237999999997
11.207023,0.5313880999999999,-3.5665237999999997
14.471948000000001,-1.6037389,-3.4229053999999994
14.471948000000001,-1.6037389,-3.4229053999999994
14.471948000000001,-1.6037389,-3.4229053999999994
14.471948000000001,-1.6037389,-3.4229053999999994
14.471948000000001,-1.6037389,-3.4229053999999994
14.500670999999999,-2.0537431,-1.1633091
14.500670999999999,-2.0537431,-1.1633091
14.500670999999999,-2.0537431,-1.1633091
8.143164,-0.043085523,1.0962871
8.143164,-0.043085523,1.0962871
8.143164,-0.043085523,1.0962871
8.143164,-0.043085523,1.0962871
5.17505,-1.3260766000000002,1.5079931999999998
5.17505,-1.3260766000000002,1.5079931999999998
5.17505,-1.3260766000000002,1.5079931999999998
5.17505,-1.3260766000000002,1.5079931999999998
8.650616000000001,-1.9962958,1.8526775000000002
8.650616000000001,-1.9962958,1.8526775000000002
8.650616000000001,-1.9962958,1.8526775000000002
8.650616000000001,-1.9962958,1.8526775000000002
11.858092999999998,-2.4175766,3.212265
11.858092999999998,-2.4175766,3.212265
11.858092999999998,-2.4175766,3.212265
11.858092999999998,-2.4175766,3.212265
14.625141000000001,-4.2271686,5.653778
14.625141000000001,-4.2271686,5.653778
14.625141000000001,-4.2271686,5.653778
14.625141000000001,-4.2271686,5.653778
17.382614,-5.232497,7.348475
17.382614,-5.232497,7.348475
17.382614,-5.232497,7.348475
17.382614,-5.232497,7.348475
17.612404,-1.9292740000000002,3.8154623999999995
17.612404,-1.9292740000000002,3.8154623999999995
17.612404,-1.9292740000000002,3.8154623999999995
15.956005,-5.098453500000001,0.15798025
15.956005,-5.098453500000001,0.15798025
15.956005,-5.098453500000001,0.15798025
15.956005,-5.098453500000001,0.15798025
10.038927000000001,-3.2601378,-0.56968635
10.038927000000001,-3.2601378,-0.56968635
10.038927000000001,-3.2601378,-0.56968635
10.038927000000001,-3.2601378,-0.56968635
8.909127999999999,-1.4984187,-0.93351966
8.909127999999999,-1.4984187,-0.93351966
8.909127999999999,-1.4984187,-0.93351966
8.909127999999999,-1.4984187,-0.93351966
8.976150500000001,-1.1920328000000002,-0.33032233
8.976150500000001,-1.1920328000000002,-0.33032233
8.976150500000001,-1.1920328000000002,-0.33032233
8.976150500000001,-1.1920328000000002,-0.33032233
9.5889225,-1.1728836,-1.2877783999999999
9.5889225,-1.1728836,-1.2877783999999999
9.5889225,-1.1728836,-1.2877783999999999
9.5889225,-1.1728836,-1.2877783999999999
8.736787,-0.8952214,-2.0250196
8.736787,-0.8952214,-2.0250196
8.736787,-0.8952214,-2.0250196
11.484685,-1.1633091,-1.9005502
11.484685,-1.1633091,-1.9005502
11.484685,-1.1633091,-1.9005502
11.484685,-1.1633091,-1.9005502
12.949593,-2.1111906000000005,-1.0292653
12.949593,-2.1111906000000005,-1.0292653
12.949593,-2.1111906000000005,-1.0292653
12.949593,-2.1111906000000005,-1.0292653
11.695326,-2.8388572,0.5218136
11.695326,-2.8388572,0.5218136
11.695326,-2.8388572,0.5218136
11.695326,-2.8388572,0.5218136
7.2240057,-1.9005502,1.4313968000000001
7.2240057,-1.9005502,1.4313968000000001
7.2240057,-1.9005502,1.4313968000000001
7.2240057,-1.9005502,1.4313968000000001
7.664436,-1.8048046999999998,2.1399142999999996
7.664436,-1.8048046999999998,2.1399142999999996
7.664436,-1.8048046999999998,2.1399142999999996
7.664436,-1.8048046999999998,2.1399142999999996
10.211267999999999,-2.2260852000000004,3.0973704
10.211267999999999,-2.2260852000000004,3.0973704
10.211267999999999,-2.2260852000000004,3.0973704
10.211267999999999,-2.2260852000000004,3.0973704
15.170891000000001,-2.5228968,5.041005999999999
15.170891000000001,-2.5228968,5.041005999999999
15.170891000000001,-2.5228968,5.041005999999999
15.247487,-2.8197080000000003,6.285699
15.247487,-2.8197080000000003,6.285699
15.247487,-2.8197080000000003,6.285699
15.247487,-2.8197080000000003,6.285699
15.247487,-2.8197080000000003,6.285699
16.568776999999997,-3.7101421,5.7208
16.568776999999997,-3.7101421,5.7208
16.568776999999997,-3.7101421,5.7208
16.741120000000002,-3.3175852,3.3080106
16.741120000000002,-3.3175852,3.3080106
16.741120000000002,-3.3175852,3.3080106
16.741120000000002,-3.3175852,3.3080106
12.403843,-3.6526947,1.1728836
12.403843,-3.6526947,1.1728836
12.403843,-3.6526947,1.1728836
12.403843,-3.6526947,1.1728836
8.755936,-2.1399142999999996,0.512239
8.755936,-2.1399142999999996,0.512239
8.755936,-2.1399142999999996,0.512239
8.755936,-2.1399142999999996,0.512239
9.579348,-2.0920415,-0.37819514
9.579348,-2.0920415,-0.37819514
9.579348,-2.0920415,-0.37819514
9.579348,-2.0920415,-0.37819514
10.71872,-2.1111906000000005,-0.49308985
10.71872,-2.1111906000000005,-0.49308985
10.71872,-2.1111906000000005,-0.49308985
10.71872,-2.1111906000000005,-0.49308985
10.833615,-0.16755481,-1.6899098999999997
10.833615,-0.16755481,-1.6899098999999997
10.833615,-0.16755481,-1.6899098999999997
10.833615,-0.16755481,-1.6899098999999997
8.296356,-0.5505372,-2.4750240000000003
8.296356,-0.5505372,-2.4750240000000003
8.296356,-0.5505372,-2.4750240000000003
10.469782,0.11968201,-2.513322
10.469782,0.11968201,-2.513322
10.469782,0.11968201,-2.513322
10.469782,0.11968201,-2.513322
10.469782,0.11968201,-2.513322
13.00704,-2.149489,-0.14840569
13.00704,-2.149489,-0.14840569
13.00704,-2.149489,-0.14840569
10.211267999999999,-1.8526775000000002,2.0441686999999997
10.211267999999999,-1.8526775000000002,2.0441686999999997
10.211267999999999,-1.8526775000000002,2.0441686999999997
10.211267999999999,-1.8526775000000002,2.0441686999999997
6.2474008,-0.665432,1.9292740000000002
6.2474008,-0.665432,1.9292740000000002
6.2474008,-0.665432,1.9292740000000002
6.2474008,-0.665432,1.9292740000000002
8.593167999999999,-2.2931072999999995,1.8431028999999999
8.593167999999999,-2.2931072999999995,1.8431028999999999
8.593167999999999,-2.2931072999999995,1.8431028999999999
8.593167999999999,-2.2931072999999995,1.8431028999999999
11.465536,-2.5994933,3.6143966
11.465536,-2.5994933,3.6143966
11.465536,-2.5994933,3.6143966
11.465536,-2.5994933,3.6143966
16.788992,-2.4750240000000003,6.458041000000001
16.788992,-2.4750240000000003,6.458041000000001
16.788992,-2.4750240000000003,6.458041000000001
16.788992,-2.4750240000000003,6.458041000000001
16.042175,-1.14416,5.605905
16.042175,-1.14416,5.605905
16.042175,-1.14416,5.605905
16.530479999999997,-4.045252,4.2175937
16.530479999999997,-4.045252,4.2175937
16.530479999999997,-4.045252,4.2175937
16.530479999999997,-4.045252,4.2175937
15.678343,-3.4420545,2.1877869999999997
15.678343,-3.4420545,2.1877869999999997
15.678343,-3.4420545,2.1877869999999997
15.678343,-3.4420545,2.1877869999999997
10.441058,-2.2356597999999996,1.5750152
10.441058,-2.2356597999999996,1.5750152
10.441058,-2.2356597999999996,1.5750152
10.441058,-2.2356597999999996,1.5750152
8.813383,-1.3643749,0.5792609000000001
8.813383,-1.3643749,0.5792609000000001
8.813383,-1.3643749,0.5792609000000001
8.813383,-1.3643749,0.5792609000000001
10.699572,-2.1303396,-0.40691882
10.699572,-2.1303396,-0.40691882
10.699572,-2.1303396,-0.40691882
10.699572,-2.1303396,-0.40691882
11.216598,-1.5367169,-1.7473572
11.216598,-1.5367169,-1.7473572
11.216598,-1.5367169,-1.7473572
11.216598,-1.5367169,-1.7473572
8.736787,-1.0388398,-2.9441773999999996
8.736787,-1.0388398,-2.9441773999999996
8.736787,-1.0388398,-2.9441773999999996
10.527229,-0.8856468000000001,-2.9154537
10.527229,-0.8856468000000001,-2.9154537
10.527229,-0.8856468000000001,-2.9154537
10.527229,-0.8856468000000001,-2.9154537
11.49426,-1.0388398,-1.7282081999999999
11.49426,-1.0388398,-1.7282081999999999
11.49426,-1.0388398,-1.7282081999999999
11.49426,-1.0388398,-1.7282081999999999
13.02619,-2.3888528,0.081383765
13.02619,-2.3888528,0.081383765
13.02619,-2.3888528,0.081383765
13.02619,-2.3888528,0.081383765
8.191036,-1.5462915000000002,1.8239537000000001
8.191036,-1.5462915000000002,1.8239537000000001
8.191036,-1.5462915000000002,1.8239537000000001
8.191036,-1.5462915000000002,1.8239537000000001
6.4963393,-1.5367169,2.1590632999999997
6.4963393,-1.5367169,2.1590632999999997
6.4963393,-1.5367169,2.1590632999999997
6.4963393,-1.5367169,2.1590632999999997
9.368708,-1.8143792,2.5228968
9.368708,-1.8143792,2.5228968
9.368708,-1.8143792,2.5228968
9.368708,-1.8143792,2.5228968
13.782579,-2.5899186000000003,4.466532
13.782579,-2.5899186000000003,4.466532
13.782579,-2.5899186000000003,4.466532
16.903887,-0.56968635,7.7984796
16.903887,-0.56968635,7.7984796
16.903887,-0.56968635,7.7984796
16.903887,-0.56968635,7.7984796
16.903887,-0.56968635,7.7984796
17.03793,0.22500217,8.143164
17.03793,0.22500217,8.143164
17.03793,0.22500217,8.143164
17.708149,-3.5473747,3.2026904
17.708149,-3.5473747,3.2026904
17.708149,-3.5473747,3.2026904
17.708149,-3.5473747,3.2026904
15.391106,-4.5527034,0.11968201
15.391106,-4.5527034,0.11968201
15.391106,-4.5527034,0.11968201
15.391106,-4.5527034,0.11968201
9.167641999999999,-3.1260939999999997,-0.7994758000000001
9.167641999999999,-3.1260939999999997,-0.7994758000000001
9.167641999999999,-3.1260939999999997,-0.7994758000000001
9.167641999999999,-3.1260939999999997,-0.7994758000000001
8.621891999999999,-2.254809,-1.1824582000000001
8.621891999999999,-2.254809,-1.1824582000000001
8.621891999999999,-2.254809,-1.1824582000000001
8.621891999999999,-2.254809,-1.1824582000000001
8.727212,-1.2973529,-0.2154276
8.727212,-1.2973529,-0.2154276
8.727212,-1.2973529,-0.2154276
8.727212,-1.2973529,-0.2154276
9.062322,-0.61755913,-1.3356511999999998
9.062322,-0.61755913,-1.3356511999999998
9.062322,-0.61755913,-1.3356511999999998
9.062322,-0.61755913,-1.3356511999999998
8.4686985,-1.0962871,-1.6899098999999997
8.4686985,-1.0962871,-1.6899098999999997
8.4686985,-1.0962871,-1.6899098999999997
10.833615,-1.1345854,-1.4505458999999998
10.833615,-1.1345854,-1.4505458999999998
10.833615,-1.1345854,-1.4505458999999998
10.833615,-1.1345854,-1.4505458999999998
11.992137,-2.3792782000000003,-0.27287498
11.992137,-2.3792782000000003,-0.27287498
11.992137,-2.3792782000000003,-0.27287498
11.992137,-2.3792782000000003,-0.27287498
13.150659,-2.5994933,1.6037389
13.150659,-2.5994933,1.6037389
13.150659,-2.5994933,1.6037389
13.150659,-2.5994933,1.6037389
8.124015,-0.512239,2.6090677
8.124015,-0.512239,2.6090677
8.124015,-0.512239,2.6090677
8.124015,-0.512239,2.6090677
7.7506065,-0.98139244,3.0303482999999996
7.7506065,-0.98139244,3.0303482999999996
7.7506065,-0.98139244,3.0303482999999996
7.7506065,-0.98139244,3.0303482999999996
10.92936,-2.015445,3.9207826
10.92936,-2.015445,3.9207826
10.92936,-2.015445,3.9207826
14.471948000000001,-2.800559,6.8793216
14.471948000000001,-2.800559,6.8793216
14.471948000000001,-2.800559,6.8793216
14.471948000000001,-2.800559,6.8793216
14.471948000000001,-2.800559,6.8793216
15.027272,-2.3792782000000003,6.486765
15.027272,-2.3792782000000003,6.486765
15.027272,-2.3792782000000003,6.486765
15.027272,-3.4324798999999997,4.1122737
15.027272,-3.4324798999999997,4.1122737
15.027272,-3.4324798999999997,4.1122737
15.027272,-3.4324798999999997,4.1122737
15.075145999999998,-3.6526947,1.4026731000000001
15.075145999999998,-3.6526947,1.4026731000000001
15.075145999999998,-3.6526947,1.4026731000000001
15.075145999999998,-3.6526947,1.4026731000000001
13.514492,-3.9495062999999995,0.2920241
13.514492,-3.9495062999999995,0.2920241
13.514492,-3.9495062999999995,0.2920241
13.514492,-3.9495062999999995,0.2920241
9.062322,-2.5516202,0.09095833
9.062322,-2.5516202,0.09095833
9.062322,-2.5516202,0.09095833
9.062322,-2.5516202,0.09095833
8.497422,-2.1877869999999997,-0.512239
8.497422,-2.1877869999999997,-0.512239
8.497422,-2.1877869999999997,-0.512239
8.497422,-2.1877869999999997,-0.512239
8.085716,-0.7994758000000001,-0.9430941999999999
8.085716,-0.7994758000000001,-0.9430941999999999
8.085716,-0.7994758000000001,-0.9430941999999999
8.085716,-0.7994758000000001,-0.9430941999999999
7.568689999999999,-0.48351530000000004,-1.4122477
7.568689999999999,-0.48351530000000004,-1.4122477
7.568689999999999,-0.48351530000000004,-1.4122477
9.18679,-0.64628285,-1.1058618
9.18679,-0.64628285,-1.1058618
9.18679,-0.64628285,-1.1058618
9.18679,-0.64628285,-1.1058618
9.18679,-0.64628285,-1.1058618
13.00704,-1.0484143,-0.5313880999999999
13.00704,-1.0484143,-0.5313880999999999
13.00704,-1.0484143,-0.5313880999999999
13.00704,-1.0484143,-0.5313880999999999
12.633633,-2.1207652,1.2590546999999999
12.633633,-2.1207652,1.2590546999999999
12.633633,-2.1207652,1.2590546999999999
11.101703,-1.9771467,2.2260852000000004
11.101703,-1.9771467,2.2260852000000004
11.101703,-1.9771467,2.2260852000000004
11.101703,-1.9771467,2.2260852000000004
6.218677,-0.6558574,3.384607
6.218677,-0.6558574,3.384607
6.218677,-0.6558574,3.384607
6.218677,-0.6558574,3.384607
6.218677,-0.6558574,3.384607
6.8793216,-1.3260766000000002,3.212265
6.8793216,-1.3260766000000002,3.212265
6.8793216,-1.3260766000000002,3.212265
6.8793216,-1.3260766000000002,3.212265
9.684667999999999,-2.149489,4.275041000000001
9.684667999999999,-2.149489,4.275041000000001
9.684667999999999,-2.149489,4.275041000000001
13.734707,-2.6186423,5.376116000000001
13.734707,-2.6186423,5.376116000000001
13.734707,-2.6186423,5.376116000000001
13.734707,-2.6186423,5.376116000000001
13.859176999999999,-1.9771467,4.811217
13.859176999999999,-1.9771467,4.811217
13.859176999999999,-1.9771467,4.811217
13.859176999999999,-1.9771467,4.811217
14.66344,-4.2271686,3.5856729
14.66344,-4.2271686,3.5856729
14.66344,-4.2271686,3.5856729
14.66344,-4.2271686,3.5856729
15.649619,-4.169721,1.9005502
15.649619,-4.169721,1.9005502
15.649619,-4.169721,1.9005502
15.649619,-4.169721,1.9005502
10.230417999999998,-3.7292912000000005,1.5750152
10.230417999999998,-3.7292912000000005,1.5750152
10.230417999999998,-3.7292912000000005,1.5750152
10.230417999999998,-3.7292912000000005,1.5750152
7.626137299999999,-2.1207652,0.5505372
7.626137299999999,-2.1207652,0.5505372
7.626137299999999,-2.1207652,0.5505372
7.626137299999999,-2.1207652,0.5505372
7.683584700000001,0.85692316,-0.043085523
7.683584700000001,0.85692316,-0.043085523
7.683584700000001,0.85692316,-0.043085523
7.683584700000001,0.85692316,-0.043085523
8.191036,-0.12925656,-1.7569318999999999
8.191036,-0.12925656,-1.7569318999999999
8.191036,-0.12925656,-1.7569318999999999
10.460207,-0.3398969,-2.2739582
10.460207,-0.3398969,-2.2739582
10.460207,-0.3398969,-2.2739582
10.460207,-0.3398969,-2.2739582
11.886817,-0.6845810999999999,-1.4888442
11.886817,-0.6845810999999999,-1.4888442
11.886817,-0.6845810999999999,-1.4888442
11.886817,-0.6845810999999999,-1.4888442
11.886817,-0.6845810999999999,-1.4888442
15.103869,0.40691882,-1.1250108
15.103869,0.40691882,-1.1250108
15.103869,0.40691882,-1.1250108
15.103869,0.40691882,-1.1250108
12.059159,-3.604822,1.5941644
12.059159,-3.604822,1.5941644
12.059159,-3.604822,1.5941644
7.0995364,1.8909756999999998,3.4229053999999994
7.0995364,1.8909756999999998,3.4229053999999994
7.0995364,1.8909756999999998,3.4229053999999994
7.0995364,1.8909756999999998,3.4229053999999994
7.0995364,1.8909756999999998,3.4229053999999994
3.7388659,1.7186337,2.4463003
3.7388659,1.7186337,2.4463003
3.7388659,1.7186337,2.4463003
3.7388659,1.7186337,2.4463003
6.9271946,-3.0111992,0.8186249
6.9271946,-3.0111992,0.8186249
6.9271946,-3.0111992,0.8186249
10.632549000000001,-3.5282254,1.9771467
10.632549000000001,-3.5282254,1.9771467
10.632549000000001,-3.5282254,1.9771467
10.632549000000001,-3.5282254,1.9771467
10.632549000000001,-3.5282254,1.9771467
12.442142,-3.7388659,3.9686553
12.442142,-3.7388659,3.9686553
12.442142,-3.7388659,3.9686553
17.554956,-4.1792955,4.437809
17.554956,-4.1792955,4.437809
17.554956,-4.1792955,4.437809
17.554956,-4.1792955,4.437809
17.784746,-4.0261025,1.709059
17.784746,-4.0261025,1.709059
17.784746,-4.0261025,1.709059
17.784746,-4.0261025,1.709059
12.6527815,-4.0356774,0.665432
12.6527815,-4.0356774,0.665432
12.6527815,-4.0356774,0.665432
12.6527815,-4.0356774,0.665432
6.9271946,-2.7622607000000006,0.30159867
6.9271946,-2.7622607000000006,0.30159867
6.9271946,-2.7622607000000006,0.30159867
6.9271946,-2.7622607000000006,0.30159867
6.486765,-0.76117754,0.36862057
6.486765,-0.76117754,0.36862057
6.486765,-0.76117754,0.36862057
6.486765,-0.76117754,0.36862057
7.8272033,-0.7420284,0.6271336999999999
7.8272033,-0.7420284,0.6271336999999999
7.8272033,-0.7420284,0.6271336999999999
7.8272033,-0.7420284,0.6271336999999999
8.995299000000001,-1.2973529,-0.20585304
8.995299000000001,-1.2973529,-0.20585304
8.995299000000001,-1.2973529,-0.20585304
9.732541000000001,-2.1207652,-0.665432
9.732541000000001,-2.1207652,-0.665432
9.732541000000001,-2.1207652,-0.665432
9.732541000000001,-2.1207652,-0.665432
12.269799,-1.862252,-0.91437054
12.269799,-1.862252,-0.91437054
12.269799,-1.862252,-0.91437054
12.269799,-1.862252,-0.91437054
12.269799,-1.862252,-0.91437054
12.059159,-3.078221,0.5792609000000001
12.059159,-3.078221,0.5792609000000001
12.059159,-3.078221,0.5792609000000001
12.499589,-2.666515,2.666515
12.499589,-2.666515,2.666515
12.499589,-2.666515,2.666515
12.499589,-2.666515,2.666515
12.499589,-2.666515,2.666515
6.726128599999999,0.6079846,2.88673
6.726128599999999,0.6079846,2.88673
6.726128599999999,0.6079846,2.88673
6.726128599999999,0.6079846,2.88673
4.993133,-1.4122477,2.101616
4.993133,-1.4122477,2.101616
4.993133,-1.4122477,2.101616
7.1186857,-3.0494976,1.8048046999999998
7.1186857,-3.0494976,1.8048046999999998
7.1186857,-3.0494976,1.8048046999999998
7.1186857,-3.0494976,1.8048046999999998
10.6134,-2.8101335,3.3175852
10.6134,-2.8101335,3.3175852
10.6134,-2.8101335,3.3175852
10.6134,-2.8101335,3.3175852
14.242159,-2.1877869999999997,4.456958
14.242159,-2.1877869999999997,4.456958
14.242159,-2.1877869999999997,4.456958
14.242159,-2.1877869999999997,4.456958
15.525148999999999,-1.6803354,4.428234
15.525148999999999,-1.6803354,4.428234
15.525148999999999,-1.6803354,4.428234
14.797482999999998,-3.604822,1.4218222
14.797482999999998,-3.604822,1.4218222
14.797482999999998,-3.604822,1.4218222
14.797482999999998,-3.604822,1.4218222
14.797482999999998,-3.604822,1.4218222
16.185795000000002,-4.322914,0.15798025
16.185795000000002,-4.322914,0.15798025
16.185795000000002,-4.322914,0.15798025
8.842107,-2.494173,0.6558574
8.842107,-2.494173,0.6558574
8.842107,-2.494173,0.6558574
8.842107,-2.494173,0.6558574
7.137835000000001,-1.8909756999999998,0.03351096
7.137835000000001,-1.8909756999999998,0.03351096
7.137835000000001,-1.8909756999999998,0.03351096
7.137835000000001,-1.8909756999999998,0.03351096
8.420826,-1.2590546999999999,-0.2441513
8.420826,-1.2590546999999999,-0.2441513
8.420826,-1.2590546999999999,-0.2441513
8.420826,-1.2590546999999999,-0.2441513
8.258059,0.043085523,-0.4164934
8.258059,0.043085523,-0.4164934
8.258059,0.043085523,-0.4164934
8.258059,0.043085523,-0.4164934
7.501668,-1.2111819,-0.54096264
7.501668,-1.2111819,-0.54096264
7.501668,-1.2111819,-0.54096264
7.501668,-1.2111819,-0.54096264
11.925115,-1.4122477,-1.3548003
11.925115,-1.4122477,-1.3548003
11.925115,-1.4122477,-1.3548003
11.925115,-1.4122477,-1.3548003
12.633633,-2.666515,-0.081383765
12.633633,-2.666515,-0.081383765
12.633633,-2.666515,-0.081383765
12.633633,-2.666515,-0.081383765
15.017698000000001,-3.6239712,2.3122563
15.017698000000001,-3.6239712,2.3122563
15.017698000000001,-3.6239712,2.3122563
15.017698000000001,-3.6239712,2.3122563
8.631466,-0.12925656,4.4473834000000005
8.631466,-0.12925656,4.4473834000000005
8.631466,-0.12925656,4.4473834000000005
8.631466,-0.12925656,4.4473834000000005
6.0846334,0.30159867,3.4229053999999994
6.0846334,0.30159867,3.4229053999999994
6.0846334,0.30159867,3.4229053999999994
6.0846334,0.30159867,3.4229053999999994
7.1665583,-3.1835412999999995,1.4409714
7.1665583,-3.1835412999999995,1.4409714
7.1665583,-3.1835412999999995,1.4409714
7.1665583,-3.1835412999999995,1.4409714
9.2825365,-3.8633351,2.8388572
9.2825365,-3.8633351,2.8388572
9.2825365,-3.8633351,2.8388572
9.2825365,-3.8633351,2.8388572
13.294277,-4.121848,3.4995019999999997
13.294277,-4.121848,3.4995019999999997
13.294277,-4.121848,3.4995019999999997
17.392189000000002,-5.1176023,3.5856729
17.392189000000002,-5.1176023,3.5856729
17.392189000000002,-5.1176023,3.5856729
17.392189000000002,-5.1176023,3.5856729
17.392189000000002,-5.1176023,3.5856729
16.434732,-4.169721,0.92394507
16.434732,-4.169721,0.92394507
16.434732,-4.169721,0.92394507
12.576185,-3.930357,0.63670826
12.576185,-3.930357,0.63670826
12.576185,-3.930357,0.63670826
12.576185,-3.930357,0.63670826
7.271878699999999,-2.1877869999999997,1.0867126
7.271878699999999,-2.1877869999999997,1.0867126
7.271878699999999,-2.1877869999999997,1.0867126
7.271878699999999,-2.1877869999999997,1.0867126
7.2048570000000005,-1.1728836,0.37819514
7.2048570000000005,-1.1728836,0.37819514
7.2048570000000005,-1.1728836,0.37819514
7.2048570000000005,-1.1728836,0.37819514
8.095291,-0.83777404,0.28244954
8.095291,-0.83777404,0.28244954
8.095291,-0.83777404,0.28244954
8.095291,-0.83777404,0.28244954
8.813383,-1.1920328000000002,-0.09095833
8.813383,-1.1920328000000002,-0.09095833
8.813383,-1.1920328000000002,-0.09095833
8.813383,-1.1920328000000002,-0.09095833
9.96233,-1.9292740000000002,-0.47394073
9.96233,-1.9292740000000002,-0.47394073
9.96233,-1.9292740000000002,-0.47394073
9.96233,-1.9292740000000002,-0.47394073
12.020861,-1.7473572,-0.91437054
12.020861,-1.7473572,-0.91437054
12.020861,-1.7473572,-0.91437054
12.020861,-1.7473572,-0.91437054
12.164479,-3.0207740000000003,0.36862057
12.164479,-3.0207740000000003,0.36862057
12.164479,-3.0207740000000003,0.36862057
12.164479,-3.0207740000000003,0.36862057
12.518738,-2.666515,1.776081
12.518738,-2.666515,1.776081
12.518738,-2.666515,1.776081
12.518738,-2.666515,1.776081
6.764427,-0.22500217,3.1739669999999998
6.764427,-0.22500217,3.1739669999999998
6.764427,-0.22500217,3.1739669999999998
5.4335629999999995,-1.3069274,2.0824668
5.4335629999999995,-1.3069274,2.0824668
5.4335629999999995,-1.3069274,2.0824668
5.4335629999999995,-1.3069274,2.0824668
5.4335629999999995,-1.3069274,2.0824668
5.4335629999999995,-1.3069274,2.0824668
5.4335629999999995,-1.3069274,2.0824668
5.4335629999999995,-1.3069274,2.0824668
10.345312,-2.905879,4.045252
10.345312,-2.905879,4.045252
10.345312,-2.905879,4.045252
10.345312,-2.905879,4.045252
13.0549135,-1.4984187,4.696322
13.0549135,-1.4984187,4.696322
13.0549135,-1.4984187,4.696322
13.0549135,-1.4984187,4.696322
15.247487,-2.1111906000000005,3.7101421
15.247487,-2.1111906000000005,3.7101421
15.247487,-2.1111906000000005,3.7101421
15.247487,-2.1111906000000005,3.7101421
16.252817,-4.236743,1.1920328000000002
16.252817,-4.236743,1.1920328000000002
16.252817,-4.236743,1.1920328000000002
16.252817,-4.236743,1.1920328000000002
15.046422,-4.8973875,0.081383765
15.046422,-4.8973875,0.081383765
15.046422,-4.8973875,0.081383765
9.138917999999999,-2.714388,0.50266445
9.138917999999999,-2.714388,0.50266445
9.138917999999999,-2.714388,0.50266445
9.138917999999999,-2.714388,0.50266445
9.138917999999999,-2.714388,0.50266445
7.128260000000001,-1.4792696,0.83777404
7.128260000000001,-1.4792696,0.83777404
7.128260000000001,-1.4792696,0.83777404
6.869747,-1.2877783999999999,0.42606795
6.869747,-1.2877783999999999,0.42606795
6.869747,-1.2877783999999999,0.42606795
6.869747,-1.2877783999999999,0.42606795
7.4920936000000005,-1.1920328000000002,0.03351096
7.4920936000000005,-1.1920328000000002,0.03351096
7.4920936000000005,-1.1920328000000002,0.03351096
7.4920936000000005,-1.1920328000000002,0.03351096
8.420826,-1.469695,-0.05266008
8.420826,-1.469695,-0.05266008
8.420826,-1.469695,-0.05266008
8.420826,-1.469695,-0.05266008
10.19212,-2.3697037999999995,0.11968201
10.19212,-2.3697037999999995,0.11968201
10.19212,-2.3697037999999995,0.11968201
10.19212,-2.3697037999999995,0.11968201
11.034680999999999,-3.6143966,1.4122477
11.034680999999999,-3.6143966,1.4122477
11.034680999999999,-3.6143966,1.4122477
11.034680999999999,-3.6143966,1.4122477
12.643207,-3.9112080000000002,3.1548176
12.643207,-3.9112080000000002,3.1548176
12.643207,-3.9112080000000002,3.1548176
12.643207,-3.9112080000000002,3.1548176
9.904882,-1.5079931999999998,3.9590807
9.904882,-1.5079931999999998,3.9590807
9.904882,-1.5079931999999998,3.9590807
9.904882,-1.5079931999999998,3.9590807
5.395264599999999,-0.9718179,2.8963046
5.395264599999999,-0.9718179,2.8963046
5.395264599999999,-0.9718179,2.8963046
5.395264599999999,-0.9718179,2.8963046
6.6591067,-3.384607,1.9101248
6.6591067,-3.384607,1.9101248
6.6591067,-3.384607,1.9101248
6.6591067,-3.384607,1.9101248
9.41658,-3.193116,3.193116
9.41658,-3.193116,3.193116
9.41658,-3.193116,3.193116
9.41658,-3.193116,3.193116
12.69108,-2.9250283,4.275041000000001
12.69108,-2.9250283,4.275041000000001
12.69108,-2.9250283,4.275041000000001
12.69108,-2.9250283,4.275041000000001
17.928364000000002,-2.6186423,3.6526947
17.928364000000002,-2.6186423,3.6526947
17.928364000000002,-2.6186423,3.6526947
17.928364000000002,-2.6186423,3.6526947
16.252817,-3.2026904,1.1728836
16.252817,-3.2026904,1.1728836
16.252817,-3.2026904,1.1728836
14.060242,-3.997379,-0.03351096
14.060242,-3.997379,-0.03351096
14.060242,-3.997379,-0.03351096
14.060242,-3.997379,-0.03351096
14.060242,-3.997379,-0.03351096
7.8367777,-2.8292825,0.59841
7.8367777,-2.8292825,0.59841
7.8367777,-2.8292825,0.59841
6.323997,-1.3930986,0.70373017
6.323997,-1.3930986,0.70373017
6.323997,-1.3930986,0.70373017
6.323997,-1.3930986,0.70373017
5.988887999999999,-1.1345854,0.23457673
5.988887999999999,-1.1345854,0.23457673
5.988887999999999,-1.1345854,0.23457673
5.988887999999999,-1.1345854,0.23457673
7.5495410000000005,-1.0292653,0.27287498
7.5495410000000005,-1.0292653,0.27287498
7.5495410000000005,-1.0292653,0.27287498
7.5495410000000005,-1.0292653,0.27287498
8.545295,-1.7569318999999999,0.13883112
8.545295,-1.7569318999999999,0.13883112
8.545295,-1.7569318999999999,0.13883112
8.545295,-1.7569318999999999,0.13883112
11.800646,-2.1782124,0.13883112
11.800646,-2.1782124,0.13883112
11.800646,-2.1782124,0.13883112
11.800646,-2.1782124,0.13883112
12.67193,-2.2356597999999996,0.2441513
12.67193,-2.2356597999999996,0.2441513
12.67193,-2.2356597999999996,0.2441513
12.67193,-2.2356597999999996,0.2441513
13.323001000000001,-3.5282254,1.4601203999999999
13.323001000000001,-3.5282254,1.4601203999999999
13.323001000000001,-3.5282254,1.4601203999999999
13.323001000000001,-3.5282254,1.4601203999999999
8.909127999999999,-1.5750152,2.7718353
8.909127999999999,-1.5750152,2.7718353
8.909127999999999,-1.5750152,2.7718353
8.909127999999999,-1.5750152,2.7718353
5.1367517,-0.32074776,2.561195
5.1367517,-0.32074776,2.561195
5.1367517,-0.32074776,2.561195
5.1367517,-0.32074776,2.561195
6.8601727,-2.3697037999999995,2.666515
6.8601727,-2.3697037999999995,2.666515
6.8601727,-2.3697037999999995,2.666515
6.8601727,-2.3697037999999995,2.666515
9.8953085,-2.0250196,3.7963133
9.8953085,-2.0250196,3.7963133
9.8953085,-2.0250196,3.7963133
9.8953085,-2.0250196,3.7963133
12.729378,-2.5420458,4.303765
12.729378,-2.5420458,4.303765
12.729378,-2.5420458,4.303765
12.729378,-2.5420458,4.303765
15.994304000000001,-3.3463089999999998,4.1984449999999995
15.994304000000001,-3.3463089999999998,4.1984449999999995
15.994304000000001,-3.3463089999999998,4.1984449999999995
15.994304000000001,-3.3463089999999998,4.1984449999999995
17.545382,-4.08355,1.6803354
17.545382,-4.08355,1.6803354
17.545382,-4.08355,1.6803354
15.534723999999999,-3.4037561000000003,0.34947145
15.534723999999999,-3.4037561000000003,0.34947145
15.534723999999999,-3.4037561000000003,0.34947145
15.534723999999999,-3.4037561000000003,0.34947145
9.292110000000001,-2.5324712000000003,0.59841
9.292110000000001,-2.5324712000000003,0.59841
9.292110000000001,-2.5324712000000003,0.59841
9.292110000000001,-2.5324712000000003,0.59841
7.291027499999999,-1.6420371999999999,1.0771381000000002
7.291027499999999,-1.6420371999999999,1.0771381000000002
7.291027499999999,-1.6420371999999999,1.0771381000000002
7.291027499999999,-1.6420371999999999,1.0771381000000002
7.377198700000001,-1.3643749,0.3398969
7.377198700000001,-1.3643749,0.3398969
7.377198700000001,-1.3643749,0.3398969
7.377198700000001,-1.3643749,0.3398969
8.746361,-1.2016073,-0.20585304
8.746361,-1.2016073,-0.20585304
8.746361,-1.2016073,-0.20585304
8.746361,-1.2016073,-0.20585304
8.688913000000001,-2.0058703,-0.22500217
8.688913000000001,-2.0058703,-0.22500217
8.688913000000001,-2.0058703,-0.22500217
8.688913000000001,-2.0058703,-0.22500217
9.8953085,-1.9962958,-0.8281995000000001
9.8953085,-1.9962958,-0.8281995000000001
9.8953085,-1.9962958,-0.8281995000000001
9.8953085,-1.9962958,-0.8281995000000001
11.15915,-1.8718264999999998,0.2441513
11.15915,-1.8718264999999998,0.2441513
11.15915,-1.8718264999999998,0.2441513
11.15915,-1.8718264999999998,0.2441513
12.815549,-2.254809,2.015445
12.815549,-2.254809,2.015445
12.815549,-2.254809,2.015445
12.815549,-2.254809,2.015445
9.138917999999999,-0.6558574,2.5420458
9.138917999999999,-0.6558574,2.5420458
9.138917999999999,-0.6558574,2.5420458
9.138917999999999,-0.6558574,2.5420458
5.797396,-1.4601203999999999,3.5282254
5.797396,-1.4601203999999999,3.5282254
5.797396,-1.4601203999999999,3.5282254
5.797396,-1.4601203999999999,3.5282254
7.922949000000001,-2.2260852000000004,4.016528
7.922949000000001,-2.2260852000000004,4.016528
7.922949000000001,-2.2260852000000004,4.016528
7.922949000000001,-2.2260852000000004,4.016528
12.384694,-1.3548003,4.849515
12.384694,-1.3548003,4.849515
12.384694,-1.3548003,4.849515
12.384694,-1.3548003,4.849515
14.74961,-2.4654493,5.28037
14.74961,-2.4654493,5.28037
14.74961,-2.4654493,5.28037
14.74961,-2.4654493,5.28037
15.410255,-3.3367343000000003,4.1792955
15.410255,-3.3367343000000003,4.1792955
15.410255,-3.3367343000000003,4.1792955
15.113443,-2.5803439999999997,2.0537431
15.113443,-2.5803439999999997,2.0537431
15.113443,-2.5803439999999997,2.0537431
15.113443,-2.5803439999999997,2.0537431
15.113443,-2.5803439999999997,2.0537431
14.376203,-3.5665237999999997,0.78990126
14.376203,-3.5665237999999997,0.78990126
14.376203,-3.5665237999999997,0.78990126
7.808053999999999,-2.867581,0.8186249
7.808053999999999,-2.867581,0.8186249
7.808053999999999,-2.867581,0.8186249
7.808053999999999,-2.867581,0.8186249
6.5154879999999995,-2.0728923999999997,0.19627848
6.5154879999999995,-2.0728923999999997,0.19627848
6.5154879999999995,-2.0728923999999997,0.19627848
6.5154879999999995,-2.0728923999999997,0.19627848
7.693159,-1.6228879999999999,-0.12925656
7.693159,-1.6228879999999999,-0.12925656
7.693159,-1.6228879999999999,-0.12925656
7.693159,-1.6228879999999999,-0.12925656
9.41658,-1.3356511999999998,-0.05266008
9.41658,-1.3356511999999998,-0.05266008
9.41658,-1.3356511999999998,-0.05266008
9.41658,-1.3356511999999998,-0.05266008
9.493176,-1.5941644,-0.17712937
9.493176,-1.5941644,-0.17712937
9.493176,-1.5941644,-0.17712937
9.493176,-1.5941644,-0.17712937
10.986808,-1.8431028999999999,-0.85692316
10.986808,-1.8431028999999999,-0.85692316
10.986808,-1.8431028999999999,-0.85692316
10.986808,-1.8431028999999999,-0.85692316
11.551707,-2.9824755,0.30159867
11.551707,-2.9824755,0.30159867
11.551707,-2.9824755,0.30159867
11.551707,-2.9824755,0.30159867
14.069817,-2.9920502,1.4984187
14.069817,-2.9920502,1.4984187
14.069817,-2.9920502,1.4984187
14.069817,-2.9920502,1.4984187
8.641041,-1.1345854,1.5175678999999997
8.641041,-1.1345854,1.5175678999999997
8.641041,-1.1345854,1.5175678999999997
8.641041,-1.1345854,1.5175678999999997
5.462287,-1.1154363,2.666515
5.462287,-1.1154363,2.666515
5.462287,-1.1154363,2.666515
5.462287,-1.1154363,2.666515
6.984642,-2.0920415,1.8814011999999998
6.984642,-2.0920415,1.8814011999999998
6.984642,-2.0920415,1.8814011999999998
6.984642,-2.0920415,1.8814011999999998
6.984642,-2.0920415,1.8814011999999998
6.984642,-2.0920415,1.8814011999999998
6.984642,-2.0920415,1.8814011999999998
14.941101999999999,-1.6707608,4.9739842
14.941101999999999,-1.6707608,4.9739842
14.941101999999999,-1.6707608,4.9739842
14.941101999999999,-1.6707608,4.9739842
13.954922,-1.3643749,3.6526947
13.954922,-1.3643749,3.6526947
13.954922,-1.3643749,3.6526947
13.954922,-1.3643749,3.6526947
14.720885999999998,-4.236743,1.9771467
14.720885999999998,-4.236743,1.9771467
14.720885999999998,-4.236743,1.9771467
14.720885999999998,-4.236743,1.9771467
14.921952,-4.504830999999999,0.98139244
14.921952,-4.504830999999999,0.98139244
14.921952,-4.504830999999999,0.98139244
14.921952,-4.504830999999999,0.98139244
10.871913000000001,-2.9250283,1.2111819
10.871913000000001,-2.9250283,1.2111819
10.871913000000001,-2.9250283,1.2111819
10.871913000000001,-2.9250283,1.2111819
6.936769,-1.7282081999999999,0.78032666
6.936769,-1.7282081999999999,0.78032666
6.936769,-1.7282081999999999,0.78032666
7.1474094,-1.709059,-0.6271336999999999
7.1474094,-1.709059,-0.6271336999999999
7.1474094,-1.709059,-0.6271336999999999
7.1474094,-1.709059,-0.6271336999999999
9.378282,-1.6994845,-0.12925656
9.378282,-1.6994845,-0.12925656
9.378282,-1.6994845,-0.12925656
9.378282,-1.6994845,-0.12925656
9.560199,-1.8526775000000002,0.11968201
9.560199,-1.8526775000000002,0.11968201
9.560199,-1.8526775000000002,0.11968201
9.560199,-1.8526775000000002,0.11968201
10.000628,-1.7186337,-0.8856468000000001
10.000628,-1.7186337,-0.8856468000000001
10.000628,-1.7186337,-0.8856468000000001
10.000628,-1.7186337,-0.8856468000000001
11.149575,-2.4463003,-0.77075213
11.149575,-2.4463003,-0.77075213
11.149575,-2.4463003,-0.77075213
11.149575,-2.4463003,-0.77075213
13.485767999999998,-3.6526947,1.7377827000000001
13.485767999999998,-3.6526947,1.7377827000000001
13.485767999999998,-3.6526947,1.7377827000000001
13.485767999999998,-3.6526947,1.7377827000000001
10.412334,-1.5271424,1.2782038
10.412334,-1.5271424,1.2782038
10.412334,-1.5271424,1.2782038
10.412334,-1.5271424,1.2782038
6.0080366,-0.7324539000000001,3.0877957
6.0080366,-0.7324539000000001,3.0877957
6.0080366,-0.7324539000000001,3.0877957
6.0080366,-0.7324539000000001,3.0877957
6.4484663,-1.1250108,2.168638
6.4484663,-1.1250108,2.168638
6.4484663,-1.1250108,2.168638
6.4484663,-1.1250108,2.168638
10.0868,-2.4175766,3.1643922000000004
10.0868,-2.4175766,3.1643922000000004
10.0868,-2.4175766,3.1643922000000004
10.0868,-2.4175766,3.1643922000000004
13.294277,-3.3367343000000003,4.3516379999999995
13.294277,-3.3367343000000003,4.3516379999999995
13.294277,-3.3367343000000003,4.3516379999999995
13.294277,-3.3367343000000003,4.3516379999999995
16.654947,-2.7718353,5.0601554
16.654947,-2.7718353,5.0601554
16.654947,-2.7718353,5.0601554
16.654947,-2.7718353,5.0601554
15.055995999999999,-1.8239537000000001,2.9920502
15.055995999999999,-1.8239537000000001,2.9920502
15.055995999999999,-1.8239537000000001,2.9920502
15.055995999999999,-1.8239537000000001,2.9920502
16.224092000000002,-3.2601378,0.59841
16.224092000000002,-3.2601378,0.59841
16.224092000000002,-3.2601378,0.59841
11.590005999999999,-3.6526947,0.64628285
11.590005999999999,-3.6526947,0.64628285
11.590005999999999,-3.6526947,0.64628285
11.590005999999999,-3.6526947,0.64628285
11.590005999999999,-3.6526947,0.64628285
7.022939999999999,-2.3122563,0.36862057
7.022939999999999,-2.3122563,0.36862057
7.022939999999999,-2.3122563,0.36862057
6.5537868,-1.9388485,-0.36862057
6.5537868,-1.9388485,-0.36862057
6.5537868,-1.9388485,-0.36862057
6.5537868,-1.9388485,-0.36862057
7.855927,-1.2782038,-0.47394073
7.855927,-1.2782038,-0.47394073
7.855927,-1.2782038,-0.47394073
7.855927,-1.2782038,-0.47394073
9.5219,-1.6324625,-0.8090504
9.5219,-1.6324625,-0.8090504
9.5219,-1.6324625,-0.8090504
9.5219,-1.6324625,-0.8090504
9.043172,-2.360129,-0.5218136
9.043172,-2.360129,-0.5218136
9.043172,-2.360129,-0.5218136
9.043172,-2.360129,-0.5218136
11.436812,-2.4367256,-0.15798025
11.436812,-2.4367256,-0.15798025
11.436812,-2.4367256,-0.15798025
11.436812,-2.4367256,-0.15798025
12.403843,-3.1165195,1.2303311000000001
12.403843,-3.1165195,1.2303311000000001
12.403843,-3.1165195,1.2303311000000001
12.403843,-3.1165195,1.2303311000000001
12.279374,-2.6186423,2.3314054
12.279374,-2.6186423,2.3314054
12.279374,-2.6186423,2.3314054
12.279374,-2.6186423,2.3314054
6.8027253,0.110107444,3.039923
6.8027253,0.110107444,3.039923
6.8027253,0.110107444,3.039923
6.8027253,0.110107444,3.039923
7.022939999999999,-0.9718179,1.7569318999999999
7.022939999999999,-0.9718179,1.7569318999999999
7.022939999999999,-0.9718179,1.7569318999999999
7.022939999999999,-0.9718179,1.7569318999999999
9.531475,-3.6622693999999996,3.3654580000000003
9.531475,-3.6622693999999996,3.3654580000000003
9.531475,-3.6622693999999996,3.3654580000000003
9.531475,-3.6622693999999996,3.3654580000000003
12.2410755,-2.561195,4.993133
12.2410755,-2.561195,4.993133
12.2410755,-2.561195,4.993133
12.2410755,-2.561195,4.993133
14.720885999999998,-0.751603,4.456958
14.720885999999998,-0.751603,4.456958
14.720885999999998,-0.751603,4.456958
14.720885999999998,-0.751603,4.456958
15.793238,-2.5228968,2.5037475
15.793238,-2.5228968,2.5037475
15.793238,-2.5228968,2.5037475
16.731544,-5.098453500000001,0.39734426
16.731544,-5.098453500000001,0.39734426
16.731544,-5.098453500000001,0.39734426
16.731544,-5.098453500000001,0.39734426
16.731544,-5.098453500000001,0.39734426
12.2410755,-3.6814184,0.43564250000000004
12.2410755,-3.6814184,0.43564250000000004
12.2410755,-3.6814184,0.43564250000000004
7.434646000000001,-1.9292740000000002,0.54096264
7.434646000000001,-1.9292740000000002,0.54096264
7.434646000000001,-1.9292740000000002,0.54096264
7.434646000000001,-1.9292740000000002,0.54096264
6.9271946,-1.6516117,-0.28244954
6.9271946,-1.6516117,-0.28244954
6.9271946,-1.6516117,-0.28244954
6.9271946,-1.6516117,-0.28244954
7.587839,-1.2590546999999999,-0.56968635
7.587839,-1.2590546999999999,-0.56968635
7.587839,-1.2590546999999999,-0.56968635
7.587839,-1.2590546999999999,-0.56968635
8.937852000000001,-1.5654407,-0.77075213
8.937852000000001,-1.5654407,-0.77075213
8.937852000000001,-1.5654407,-0.77075213
8.937852000000001,-1.5654407,-0.77075213
9.943181,-2.0728923999999997,-0.8952214
9.943181,-2.0728923999999997,-0.8952214
9.943181,-2.0728923999999997,-0.8952214
9.943181,-2.0728923999999997,-0.8952214
11.570856,-2.666515,-0.8473485999999999
11.570856,-2.666515,-0.8473485999999999
11.570856,-2.666515,-0.8473485999999999
11.570856,-2.666515,-0.8473485999999999
12.049584,-3.5569491,1.6803354
12.049584,-3.5569491,1.6803354
12.049584,-3.5569491,1.6803354
12.049584,-3.5569491,1.6803354
12.451715,-1.8143792,1.6707608
12.451715,-1.8143792,1.6707608
12.451715,-1.8143792,1.6707608
12.451715,-1.8143792,1.6707608
7.0612383,0.09095833,3.2601378
7.0612383,0.09095833,3.2601378
7.0612383,0.09095833,3.2601378
7.0612383,0.09095833,3.2601378
6.7357035000000005,-1.2207563999999997,2.6282167000000003
6.7357035000000005,-1.2207563999999997,2.6282167000000003
6.7357035000000005,-1.2207563999999997,2.6282167000000003
6.7357035000000005,-1.2207563999999997,2.6282167000000003
10.134672,-2.2165107999999996,3.1260939999999997
10.134672,-2.2165107999999996,3.1260939999999997
10.134672,-2.2165107999999996,3.1260939999999997
10.134672,-2.2165107999999996,3.1260939999999997
12.135756,-2.513322,3.8824842000000004
12.135756,-2.513322,3.8824842000000004
12.135756,-2.513322,3.8824842000000004
12.135756,-2.513322,3.8824842000000004
13.552791000000001,-3.1548176,3.777164
13.552791000000001,-3.1548176,3.777164
13.552791000000001,-3.1548176,3.777164
13.552791000000001,-3.1548176,3.777164
14.74961,-4.045252,4.5239797
14.74961,-4.045252,4.5239797
14.74961,-4.045252,4.5239797
17.545382,-4.0931244,1.7186337
17.545382,-4.0931244,1.7186337
17.545382,-4.0931244,1.7186337
17.545382,-4.0931244,1.7186337
17.545382,-4.0931244,1.7186337
15.036847,-3.1165195,0.5888355
15.036847,-3.1165195,0.5888355
15.036847,-3.1165195,0.5888355
9.129342999999999,-2.2260852000000004,0.76117754
9.129342999999999,-2.2260852000000004,0.76117754
9.129342999999999,-2.2260852000000004,0.76117754
9.129342999999999,-2.2260852000000004,0.76117754
8.813383,-2.427151,-0.5888355
8.813383,-2.427151,-0.5888355
8.813383,-2.427151,-0.5888355
8.813383,-2.427151,-0.5888355
9.445304,-1.9675721999999998,-0.665432
9.445304,-1.9675721999999998,-0.665432
9.445304,-1.9675721999999998,-0.665432
9.445304,-1.9675721999999998,-0.665432
9.569773,-2.1207652,-1.7952299999999999
9.569773,-2.1207652,-1.7952299999999999
9.569773,-2.1207652,-1.7952299999999999
9.569773,-2.1207652,-1.7952299999999999
7.195282000000001,-1.9005502,-3.4229053999999994
7.195282000000001,-1.9005502,-3.4229053999999994
7.195282000000001,-1.9005502,-3.4229053999999994
7.195282000000001,-1.9005502,-3.4229053999999994
9.885734,-1.0101161,-1.9579976000000003
9.885734,-1.0101161,-1.9579976000000003
9.885734,-1.0101161,-1.9579976000000003
9.885734,-1.0101161,-1.9579976000000003
12.375119,-1.6516117,0.17712937
12.375119,-1.6516117,0.17712937
12.375119,-1.6516117,0.17712937
12.375119,-1.6516117,0.17712937
14.969825,-1.2207563999999997,1.948423
14.969825,-1.2207563999999997,1.948423
14.969825,-1.2207563999999997,1.948423
14.969825,-1.2207563999999997,1.948423
9.110194,-1.6037389,2.2835326
9.110194,-1.6037389,2.2835326
9.110194,-1.6037389,2.2835326
9.110194,-1.6037389,2.2835326
7.875075999999999,-1.2111819,3.4133307999999998
7.875075999999999,-1.2111819,3.4133307999999998
7.875075999999999,-1.2111819,3.4133307999999998
7.875075999999999,-1.2111819,3.4133307999999998
8.420826,-2.015445,2.6760897999999997
8.420826,-2.015445,2.6760897999999997
8.420826,-2.015445,2.6760897999999997
8.420826,-2.015445,2.6760897999999997
12.499589,-1.7569318999999999,4.849515
12.499589,-1.7569318999999999,4.849515
12.499589,-1.7569318999999999,4.849515
12.499589,-1.7569318999999999,4.849515
14.261307999999998,-2.34098,5.1176023
14.261307999999998,-2.34098,5.1176023
14.261307999999998,-2.34098,5.1176023
15.218764000000002,-4.0931244,4.1601467
15.218764000000002,-4.0931244,4.1601467
15.218764000000002,-4.0931244,4.1601467
15.218764000000002,-4.0931244,4.1601467
15.218764000000002,-4.0931244,4.1601467
16.463457000000002,-3.3654580000000003,1.4888442
16.463457000000002,-3.3654580000000003,1.4888442
16.463457000000002,-3.3654580000000003,1.4888442
17.851768,-4.131423000000001,0.3398969
17.851768,-4.131423000000001,0.3398969
17.851768,-4.131423000000001,0.3398969
17.851768,-4.131423000000001,0.3398969
11.15915,-2.7431116,0.30159867
11.15915,-2.7431116,0.30159867
11.15915,-2.7431116,0.30159867
11.15915,-2.7431116,0.30159867
9.225089,-2.0920415,-0.8760723
9.225089,-2.0920415,-0.8760723
9.225089,-2.0920415,-0.8760723
9.225089,-2.0920415,-0.8760723
8.200611,-0.05266008,-1.4505458999999998
8.200611,-0.05266008,-1.4505458999999998
8.200611,-0.05266008,-1.4505458999999998
8.200611,-0.05266008,-1.4505458999999998
6.1229315,0.7420284,-1.4026731000000001
6.1229315,0.7420284,-1.4026731000000001
6.1229315,0.7420284,-1.4026731000000001
6.1229315,0.7420284,-1.4026731000000001
8.296356,-0.90479594,-2.5228968
8.296356,-0.90479594,-2.5228968
8.296356,-0.90479594,-2.5228968
8.296356,-0.90479594,-2.5228968
10.795316999999999,-0.78990126,-2.034594
10.795316999999999,-0.78990126,-2.034594
10.795316999999999,-0.78990126,-2.034594
10.795316999999999,-0.78990126,-2.034594
14.261307999999998,-2.6760897999999997,0.16755481
14.261307999999998,-2.6760897999999997,0.16755481
14.261307999999998,-2.6760897999999997,0.16755481
15.477276999999999,-2.1590632999999997,1.9005502
15.477276999999999,-2.1590632999999997,1.9005502
15.477276999999999,-2.1590632999999997,1.9005502
15.477276999999999,-2.1590632999999997,1.9005502
15.477276999999999,-2.1590632999999997,1.9005502
10.06765,-0.83777404,2.5420458
10.06765,-0.83777404,2.5420458
10.06765,-0.83777404,2.5420458
7.1665583,-0.9430941999999999,2.8197080000000003
7.1665583,-0.9430941999999999,2.8197080000000003
7.1665583,-0.9430941999999999,2.8197080000000003
7.1665583,-0.9430941999999999,2.8197080000000003
7.1665583,-0.9430941999999999,2.8197080000000003
8.2676325,-2.2739582,2.034594
8.2676325,-2.2739582,2.034594
8.2676325,-2.2739582,2.034594
8.2676325,-2.2739582,2.034594
10.843189,-2.9920502,3.8058877
10.843189,-2.9920502,3.8058877
10.843189,-2.9920502,3.8058877
10.843189,-2.9920502,3.8058877
14.558119,-2.8292825,5.950589
14.558119,-2.8292825,5.950589
14.558119,-2.8292825,5.950589
15.860259,-2.149489,5.0122824
15.860259,-2.149489,5.0122824
15.860259,-2.149489,5.0122824
15.860259,-2.149489,5.0122824
15.764514000000002,-2.5516202,1.4026731000000001
15.764514000000002,-2.5516202,1.4026731000000001
15.764514000000002,-2.5516202,1.4026731000000001
15.764514000000002,-2.5516202,1.4026731000000001
17.1624,-4.8973875,0.5218136
17.1624,-4.8973875,0.5218136
17.1624,-4.8973875,0.5218136
17.1624,-4.8973875,0.5218136
10.891063,-3.7484405,0.32074776
10.891063,-3.7484405,0.32074776
10.891063,-3.7484405,0.32074776
10.891063,-3.7484405,0.32074776
8.506997,-1.7856555,-0.40691882
8.506997,-1.7856555,-0.40691882
8.506997,-1.7856555,-0.40691882
8.506997,-1.7856555,-0.40691882
8.688913000000001,-1.4888442,-0.85692316
8.688913000000001,-1.4888442,-0.85692316
8.688913000000001,-1.4888442,-0.85692316
9.3878565,-1.2111819,-0.49308985
9.3878565,-1.2111819,-0.49308985
9.3878565,-1.2111819,-0.49308985
9.3878565,-1.2111819,-0.49308985
9.3878565,-1.2111819,-0.49308985
9.339984,-1.6516117,-1.3548003
9.339984,-1.6516117,-1.3548003
9.339984,-1.6516117,-1.3548003
9.75169,-2.2260852000000004,-1.3069274
9.75169,-2.2260852000000004,-1.3069274
9.75169,-2.2260852000000004,-1.3069274
9.75169,-2.2260852000000004,-1.3069274
9.75169,-2.2260852000000004,-1.3069274
10.345312,-2.647366,0.10053288
10.345312,-2.647366,0.10053288
10.345312,-2.647366,0.10053288
10.345312,-2.647366,0.10053288
13.4666195,-2.8101335,1.2303311000000001
13.4666195,-2.8101335,1.2303311000000001
13.4666195,-2.8101335,1.2303311000000001
13.4666195,-2.8101335,1.2303311000000001
9.225089,-1.5941644,2.254809
9.225089,-1.5941644,2.254809
9.225089,-1.5941644,2.254809
6.1995277,-0.2920241,3.0207740000000003
6.1995277,-0.2920241,3.0207740000000003
6.1995277,-0.2920241,3.0207740000000003
6.1995277,-0.2920241,3.0207740000000003
8.047417999999999,-1.4984187,1.8431028999999999
8.047417999999999,-1.4984187,1.8431028999999999
8.047417999999999,-1.4984187,1.8431028999999999
8.047417999999999,-1.4984187,1.8431028999999999
12.805975,-3.4133307999999998,3.9399316
12.805975,-3.4133307999999998,3.9399316
12.805975,-3.4133307999999998,3.9399316
12.805975,-3.4133307999999998,3.9399316
15.228338,-2.5228968,5.787822
15.228338,-2.5228968,5.787822
15.228338,-2.5228968,5.787822
15.228338,-2.5228968,5.787822
15.228338,-2.5228968,5.787822
15.448553,-0.6558574,3.604822
15.448553,-0.6558574,3.604822
15.448553,-0.6558574,3.604822
14.452798999999999,-3.2888615,2.9250283
14.452798999999999,-3.2888615,2.9250283
14.452798999999999,-3.2888615,2.9250283
14.452798999999999,-3.2888615,2.9250283
16.118773,-4.3707867,1.8048046999999998
16.118773,-4.3707867,1.8048046999999998
16.118773,-4.3707867,1.8048046999999998
16.118773,-4.3707867,1.8048046999999998
10.584677000000001,-2.5994933,1.1058618
10.584677000000001,-2.5994933,1.1058618
10.584677000000001,-2.5994933,1.1058618
10.584677000000001,-2.5994933,1.1058618
7.626137299999999,-1.2973529,0.2154276
7.626137299999999,-1.2973529,0.2154276
7.626137299999999,-1.2973529,0.2154276
7.626137299999999,-1.2973529,0.2154276
8.133589,-2.034594,-0.90479594
8.133589,-2.034594,-0.90479594
8.133589,-2.034594,-0.90479594
8.133589,-2.034594,-0.90479594
9.598496,-2.1303396,-1.2111819
9.598496,-2.1303396,-1.2111819
9.598496,-2.1303396,-1.2111819
9.339984,-2.1303396,-1.2207563999999997
9.339984,-2.1303396,-1.2207563999999997
9.339984,-2.1303396,-1.2207563999999997
9.339984,-2.1303396,-1.2207563999999997
9.320834,-2.3792782000000003,-1.2111819
9.320834,-2.3792782000000003,-1.2111819
9.320834,-2.3792782000000003,-1.2111819
9.320834,-2.3792782000000003,-1.2111819
9.320834,-2.3792782000000003,-1.2111819
10.259142,-2.647366,0.5505372
10.259142,-2.647366,0.5505372
10.259142,-2.647366,0.5505372
10.259142,-2.647366,0.5505372
12.940019,-2.254809,1.8048046999999998
12.940019,-2.254809,1.8048046999999998
12.940019,-2.254809,1.8048046999999998
11.063405,-0.9622433000000001,2.3026817000000004
11.063405,-0.9622433000000001,2.3026817000000004
11.063405,-0.9622433000000001,2.3026817000000004
11.063405,-0.9622433000000001,2.3026817000000004
11.063405,-0.9622433000000001,2.3026817000000004
5.414414,-0.09095833,3.0303482999999996
5.414414,-0.09095833,3.0303482999999996
5.414414,-0.09095833,3.0303482999999996
5.414414,-0.09095833,3.0303482999999996
5.6250544,-1.4601203999999999,1.7856555
5.6250544,-1.4601203999999999,1.7856555
5.6250544,-1.4601203999999999,1.7856555
11.36979,-3.7867386,5.146326
11.36979,-3.7867386,5.146326
11.36979,-3.7867386,5.146326
11.36979,-3.7867386,5.146326
16.003878,-0.50266445,6.592085000000001
16.003878,-0.50266445,6.592085000000001
16.003878,-0.50266445,6.592085000000001
16.003878,-0.50266445,6.592085000000001
14.76876,0.61755913,4.016528
14.76876,0.61755913,4.016528
14.76876,0.61755913,4.016528
14.76876,0.61755913,4.016528
16.061325,-4.169721,2.5803439999999997
16.061325,-4.169721,2.5803439999999997
16.061325,-4.169721,2.5803439999999997
16.061325,-4.169721,2.5803439999999997
17.440062,-5.194199,0.03351096
17.440062,-5.194199,0.03351096
17.440062,-5.194199,0.03351096
17.440062,-5.194199,0.03351096
11.590005999999999,-3.1835412999999995,0.0718092
11.590005999999999,-3.1835412999999995,0.0718092
11.590005999999999,-3.1835412999999995,0.0718092
11.590005999999999,-3.1835412999999995,0.0718092
7.683584700000001,-1.9388485,0.15798025
7.683584700000001,-1.9388485,0.15798025
7.683584700000001,-1.9388485,0.15798025
7.9899707,-1.8814011999999998,-0.63670826
7.9899707,-1.8814011999999998,-0.63670826
7.9899707,-1.8814011999999998,-0.63670826
7.9899707,-1.8814011999999998,-0.63670826
7.9899707,-1.8814011999999998,-0.63670826
8.277207,-1.14416,-0.56968635
8.277207,-1.14416,-0.56968635
8.277207,-1.14416,-0.56968635
7.8846507,-1.2973529,-0.78032666
7.8846507,-1.2973529,-0.78032666
7.8846507,-1.2973529,-0.78032666
7.8846507,-1.2973529,-0.78032666
7.8846507,-1.2973529,-0.78032666
7.8846507,-1.2973529,-0.78032666
7.8846507,-1.2973529,-0.78032666
7.8846507,-1.2973529,-0.78032666
11.341067,-1.9962958,-0.15798025
11.341067,-1.9962958,-0.15798025
11.341067,-1.9962958,-0.15798025
11.341067,-1.9962958,-0.15798025
13.035764,-3.0016246,1.7186337
13.035764,-3.0016246,1.7186337
13.035764,-3.0016246,1.7186337
13.035764,-3.0016246,1.7186337
12.738953,-2.1303396,1.5271424
12.738953,-2.1303396,1.5271424
12.738953,-2.1303396,1.5271424
12.738953,-2.1303396,1.5271424
6.869747,0.0718092,3.8346114
6.869747,0.0718092,3.8346114
6.869747,0.0718092,3.8346114
6.869747,0.0718092,3.8346114
7.501668,-1.3548003,2.9920502
7.501668,-1.3548003,2.9920502
7.501668,-1.3548003,2.9920502
7.501668,-1.3548003,2.9920502
9.54105,-2.9824755,3.0494976
9.54105,-2.9824755,3.0494976
9.54105,-2.9824755,3.0494976
9.54105,-2.9824755,3.0494976
12.987891000000001,-2.6377914000000002,4.543129
12.987891000000001,-2.6377914000000002,4.543129
12.987891000000001,-2.6377914000000002,4.543129
12.987891000000001,-2.6377914000000002,4.543129
14.414501000000001,-1.383524,4.5718527
14.414501000000001,-1.383524,4.5718527
14.414501000000001,-1.383524,4.5718527
14.155988,-3.7101421,4.466532
14.155988,-3.7101421,4.466532
14.155988,-3.7101421,4.466532
14.155988,-3.7101421,4.466532
14.155988,-3.7101421,4.466532
17.631554,-5.041005999999999,2.88673
17.631554,-5.041005999999999,2.88673
17.631554,-5.041005999999999,2.88673
12.56661,-3.3175852,1.0962871
12.56661,-3.3175852,1.0962871
12.56661,-3.3175852,1.0962871
12.56661,-3.3175852,1.0962871
7.377198700000001,-2.6186423,0.47394073
7.377198700000001,-2.6186423,0.47394073
7.377198700000001,-2.6186423,0.47394073
7.377198700000001,-2.6186423,0.47394073
8.085716,-2.4750240000000003,-1.0388398
8.085716,-2.4750240000000003,-1.0388398
8.085716,-2.4750240000000003,-1.0388398
8.085716,-2.4750240000000003,-1.0388398
9.196365,-2.0058703,-0.9718179
9.196365,-2.0058703,-0.9718179
9.196365,-2.0058703,-0.9718179
9.196365,-2.0058703,-0.9718179
9.732541000000001,-1.8335283,-0.5505372
9.732541000000001,-1.8335283,-0.5505372
9.732541000000001,-1.8335283,-0.5505372
9.732541000000001,-1.8335283,-0.5505372
9.3878565,-1.9867213,-0.50266445
9.3878565,-1.9867213,-0.50266445
9.3878565,-1.9867213,-0.50266445
9.3878565,-1.9867213,-0.50266445
10.134672,-2.034594,-0.2154276
10.134672,-2.034594,-0.2154276
10.134672,-2.034594,-0.2154276
10.814466,-2.8580062,0.9622433000000001
10.814466,-2.8580062,0.9622433000000001
10.814466,-2.8580062,0.9622433000000001
10.814466,-2.8580062,0.9622433000000001
11.235746,-2.8388572,2.0633178
11.235746,-2.8388572,2.0633178
11.235746,-2.8388572,2.0633178
11.235746,-2.8388572,2.0633178
7.214431299999999,-0.8952214,2.867581
7.214431299999999,-0.8952214,2.867581
7.214431299999999,-0.8952214,2.867581
7.214431299999999,-0.8952214,2.867581
8.248484,-1.2207563999999997,2.7814097
8.248484,-1.2207563999999997,2.7814097
8.248484,-1.2207563999999997,2.7814097
8.248484,-1.2207563999999997,2.7814097
10.393186,-1.8143792,4.2080193
10.393186,-1.8143792,4.2080193
10.393186,-1.8143792,4.2080193
10.393186,-1.8143792,4.2080193
13.169807,-1.1633091,5.500585
13.169807,-1.1633091,5.500585
13.169807,-1.1633091,5.500585
14.452798999999999,-0.014361841,3.7101421
14.452798999999999,-0.014361841,3.7101421
14.452798999999999,-0.014361841,3.7101421
14.452798999999999,-0.014361841,3.7101421
15.190041,-3.2026904,2.7814097
15.190041,-3.2026904,2.7814097
15.190041,-3.2026904,2.7814097
15.190041,-3.2026904,2.7814097
16.836864000000002,-6.0176110000000005,0.8090504
16.836864000000002,-6.0176110000000005,0.8090504
16.836864000000002,-6.0176110000000005,0.8090504
16.836864000000002,-6.0176110000000005,0.8090504
12.58576,-3.7101421,0.42606795
12.58576,-3.7101421,0.42606795
12.58576,-3.7101421,0.42606795
12.58576,-3.7101421,0.42606795
7.5782647,-1.4409714,0.3877697
7.5782647,-1.4409714,0.3877697
7.5782647,-1.4409714,0.3877697
7.5782647,-1.4409714,0.3877697
7.587839,-1.5654407,-0.42606795
7.587839,-1.5654407,-0.42606795
7.587839,-1.5654407,-0.42606795
7.587839,-1.5654407,-0.42606795
9.41658,-1.9196993000000002,-0.6558574
9.41658,-1.9196993000000002,-0.6558574
9.41658,-1.9196993000000002,-0.6558574
10.077225,-2.0537431,-0.71330476
10.077225,-2.0537431,-0.71330476
10.077225,-2.0537431,-0.71330476
10.077225,-2.0537431,-0.71330476
10.077225,-2.0537431,-0.71330476
9.3878565,-1.8143792,-0.7420284
9.3878565,-1.8143792,-0.7420284
9.3878565,-1.8143792,-0.7420284
10.029352000000001,-1.9388485,-0.36862057
10.029352000000001,-1.9388485,-0.36862057
10.029352000000001,-1.9388485,-0.36862057
10.029352000000001,-1.9388485,-0.36862057
10.833615,-2.561195,0.76117754
10.833615,-2.561195,0.76117754
10.833615,-2.561195,0.76117754
10.833615,-2.561195,0.76117754
11.657027000000001,-3.0877957,1.9962958
11.657027000000001,-3.0877957,1.9962958
11.657027000000001,-3.0877957,1.9962958
11.657027000000001,-3.0877957,1.9962958
6.726128599999999,-0.8664976999999999,2.1973617
6.726128599999999,-0.8664976999999999,2.1973617
6.726128599999999,-0.8664976999999999,2.1973617
6.726128599999999,-0.8664976999999999,2.1973617
7.329325999999999,-0.71330476,2.2356597999999996
7.329325999999999,-0.71330476,2.2356597999999996
7.329325999999999,-0.71330476,2.2356597999999996
7.329325999999999,-0.71330476,2.2356597999999996
10.077225,-2.1111906000000005,3.1165195
10.077225,-2.1111906000000005,3.1165195
10.077225,-2.1111906000000005,3.1165195
10.077225,-2.1111906000000005,3.1165195
13.811303,-2.714388,4.7441945
13.811303,-2.714388,4.7441945
13.811303,-2.714388,4.7441945
15.008123000000001,-1.5175678999999997,5.041005999999999
15.008123000000001,-1.5175678999999997,5.041005999999999
15.008123000000001,-1.5175678999999997,5.041005999999999
15.008123000000001,-1.5175678999999997,5.041005999999999
15.008123000000001,-1.5175678999999997,5.041005999999999
15.611320499999998,-2.1303396,4.1888704
15.611320499999998,-2.1303396,4.1888704
15.611320499999998,-2.1303396,4.1888704
16.26239,-3.8920587999999996,1.0579889
16.26239,-3.8920587999999996,1.0579889
16.26239,-3.8920587999999996,1.0579889
16.26239,-3.8920587999999996,1.0579889
12.844273,-3.4037561000000003,0.49308985
12.844273,-3.4037561000000003,0.49308985
12.844273,-3.4037561000000003,0.49308985
12.844273,-3.4037561000000003,0.49308985
8.286782,-1.7856555,0.37819514
8.286782,-1.7856555,0.37819514
8.286782,-1.7856555,0.37819514
8.286782,-1.7856555,0.37819514
8.133589,-1.9962958,-0.56011176
8.133589,-1.9962958,-0.56011176
8.133589,-1.9962958,-0.56011176
8.133589,-1.9962958,-0.56011176
8.851681,-1.9101248,-1.1345854
8.851681,-1.9101248,-1.1345854
8.851681,-1.9101248,-1.1345854
8.851681,-1.9101248,-1.1345854
9.98148,-1.7186337,-1.0196906
9.98148,-1.7186337,-1.0196906
9.98148,-1.7186337,-1.0196906
9.684667999999999,-1.7665064,-0.63670826
9.684667999999999,-1.7665064,-0.63670826
9.684667999999999,-1.7665064,-0.63670826
9.684667999999999,-1.7665064,-0.63670826
10.785743,-1.9005502,-0.92394507
10.785743,-1.9005502,-0.92394507
10.785743,-1.9005502,-0.92394507
10.785743,-1.9005502,-0.92394507
11.503835,-2.8771553,0.8090504
11.503835,-2.8771553,0.8090504
11.503835,-2.8771553,0.8090504
11.503835,-2.8771553,0.8090504
10.71872,-2.3888528,1.8909756999999998
10.71872,-2.3888528,1.8909756999999998
10.71872,-2.3888528,1.8909756999999998
10.71872,-2.3888528,1.8909756999999998
6.3718699999999995,-0.50266445,2.800559
6.3718699999999995,-0.50266445,2.800559
6.3718699999999995,-0.50266445,2.800559
6.3718699999999995,-0.50266445,2.800559
8.564445,-0.9622433000000001,2.0728923999999997
8.564445,-0.9622433000000001,2.0728923999999997
8.564445,-0.9622433000000001,2.0728923999999997
8.564445,-0.9622433000000001,2.0728923999999997
12.260224000000001,-2.9537517999999996,4.0739756
12.260224000000001,-2.9537517999999996,4.0739756
12.260224000000001,-2.9537517999999996,4.0739756
14.290030999999999,-2.4367256,5.7495236
14.290030999999999,-2.4367256,5.7495236
14.290030999999999,-2.4367256,5.7495236
14.290030999999999,-2.4367256,5.7495236
15.419829,-1.0005416,4.294190400000001
15.419829,-1.0005416,4.294190400000001
15.419829,-1.0005416,4.294190400000001
15.419829,-1.0005416,4.294190400000001
13.648535999999998,-2.9250283,2.9154537
13.648535999999998,-2.9250283,2.9154537
13.648535999999998,-2.9250283,2.9154537
13.648535999999998,-2.9250283,2.9154537
17.382614,-4.3612123,0.69415563
17.382614,-4.3612123,0.69415563
17.382614,-4.3612123,0.69415563
17.382614,-4.3612123,0.69415563
11.838944,-3.1548176,0.5505372
11.838944,-3.1548176,0.5505372
11.838944,-3.1548176,0.5505372
11.838944,-3.1548176,0.5505372
8.583592999999999,-1.9675721999999998,-0.062234644000000006
8.583592999999999,-1.9675721999999998,-0.062234644000000006
8.583592999999999,-1.9675721999999998,-0.062234644000000006
8.583592999999999,-1.9675721999999998,-0.062234644000000006
8.516571,-2.4558747000000003,-1.3356511999999998
8.516571,-2.4558747000000003,-1.3356511999999998
8.516571,-2.4558747000000003,-1.3356511999999998
9.052747,-1.3260766000000002,-1.0579889
9.052747,-1.3260766000000002,-1.0579889
9.052747,-1.3260766000000002,-1.0579889
9.052747,-1.3260766000000002,-1.0579889
9.052747,-1.3260766000000002,-1.0579889
8.545295,-1.1824582000000001,-0.5888355
8.545295,-1.1824582000000001,-0.5888355
8.545295,-1.1824582000000001,-0.5888355
8.459125,-1.3643749,-0.512239
8.459125,-1.3643749,-0.512239
8.459125,-1.3643749,-0.512239
8.459125,-1.3643749,-0.512239
10.833615,-1.8909756999999998,-0.64628285
10.833615,-1.8909756999999998,-0.64628285
10.833615,-1.8909756999999998,-0.64628285
10.833615,-1.8909756999999998,-0.64628285
14.069817,-3.5282254,1.6611862000000002
14.069817,-3.5282254,1.6611862000000002
14.069817,-3.5282254,1.6611862000000002
14.069817,-3.5282254,1.6611862000000002
12.011286,-1.9579976000000003,1.2877783999999999
12.011286,-1.9579976000000003,1.2877783999999999
12.011286,-1.9579976000000003,1.2877783999999999
12.011286,-1.9579976000000003,1.2877783999999999
7.731457700000001,0.30159867,2.8388572
7.731457700000001,0.30159867,2.8388572
7.731457700000001,0.30159867,2.8388572
7.731457700000001,0.30159867,2.8388572
9.004874000000001,-1.6611862000000002,1.9292740000000002
9.004874000000001,-1.6611862000000002,1.9292740000000002
9.004874000000001,-1.6611862000000002,1.9292740000000002
9.004874000000001,-1.6611862000000002,1.9292740000000002
10.977234,-3.5473747,4.0069537
10.977234,-3.5473747,4.0069537
10.977234,-3.5473747,4.0069537
13.734707,-2.8963046,4.6675982000000005
13.734707,-2.8963046,4.6675982000000005
13.734707,-2.8963046,4.6675982000000005
13.734707,-2.8963046,4.6675982000000005
15.151742,-2.5516202,4.9069624
15.151742,-2.5516202,4.9069624
15.151742,-2.5516202,4.9069624
15.151742,-2.5516202,4.9069624
15.956005,-2.8771553,3.2026904
15.956005,-2.8771553,3.2026904
15.956005,-2.8771553,3.2026904
15.956005,-2.8771553,3.2026904
17.401764,-3.4324798999999997,-0.3398969
17.401764,-3.4324798999999997,-0.3398969
17.401764,-3.4324798999999997,-0.3398969
17.401764,-3.4324798999999997,-0.3398969
12.288948,-3.8058877,-0.03351096
12.288948,-3.8058877,-0.03351096
12.288948,-3.8058877,-0.03351096
12.288948,-3.8058877,-0.03351096
8.985725,-2.3122563,-0.56968635
8.985725,-2.3122563,-0.56968635
8.985725,-2.3122563,-0.56968635
9.033598,-1.9005502,-1.2494801000000002
9.033598,-1.9005502,-1.2494801000000002
9.033598,-1.9005502,-1.2494801000000002
9.033598,-1.9005502,-1.2494801000000002
9.033598,-1.9005502,-1.2494801000000002
8.803808,-1.2111819,-0.8281995000000001
8.803808,-1.2111819,-0.8281995000000001
8.803808,-1.2111819,-0.8281995000000001
8.55487,-1.2973529,-1.1345854
8.55487,-1.2973529,-1.1345854
8.55487,-1.2973529,-1.1345854
8.55487,-1.2973529,-1.1345854
8.870830999999999,-1.6994845,-0.3398969
8.870830999999999,-1.6994845,-0.3398969
8.870830999999999,-1.6994845,-0.3398969
8.870830999999999,-1.6994845,-0.3398969
10.105948,-1.6133133999999998,-0.3111732
10.105948,-1.6133133999999998,-0.3111732
10.105948,-1.6133133999999998,-0.3111732
10.105948,-1.6133133999999998,-0.3111732
12.9591675,-2.9537517999999996,1.4026731000000001
12.9591675,-2.9537517999999996,1.4026731000000001
12.9591675,-2.9537517999999996,1.4026731000000001
12.9591675,-2.9537517999999996,1.4026731000000001
12.777251,-2.2643836,1.5941644
12.777251,-2.2643836,1.5941644
12.777251,-2.2643836,1.5941644
12.777251,-2.2643836,1.5941644
8.794233,-0.42606795,3.4707782
8.794233,-0.42606795,3.4707782
8.794233,-0.42606795,3.4707782
8.794233,-0.42606795,3.4707782
8.372953,-0.78032666,2.0633178
8.372953,-0.78032666,2.0633178
8.372953,-0.78032666,2.0633178
12.107032,-3.4803526,2.7814097
12.107032,-3.4803526,2.7814097
12.107032,-3.4803526,2.7814097
12.107032,-3.4803526,2.7814097
14.012369,-4.322914,4.5910015
14.012369,-4.322914,4.5910015
14.012369,-4.322914,4.5910015
14.012369,-4.322914,4.5910015
14.471948000000001,-4.1792955,4.4952559999999995
14.471948000000001,-4.1792955,4.4952559999999995
14.471948000000001,-4.1792955,4.4952559999999995
14.471948000000001,-4.1792955,4.4952559999999995
14.290030999999999,-3.1835412999999995,3.0877957
14.290030999999999,-3.1835412999999995,3.0877957
14.290030999999999,-3.1835412999999995,3.0877957
14.290030999999999,-3.1835412999999995,3.0877957
17.459211,-3.6622693999999996,-0.12925656
17.459211,-3.6622693999999996,-0.12925656
17.459211,-3.6622693999999996,-0.12925656
17.459211,-3.6622693999999996,-0.12925656
12.872996,-3.6526947,0.54096264
12.872996,-3.6526947,0.54096264
12.872996,-3.6526947,0.54096264
12.872996,-3.6526947,0.54096264
9.675094,-2.1782124,-0.19627848
9.675094,-2.1782124,-0.19627848
9.675094,-2.1782124,-0.19627848
8.487848,-2.1782124,-1.4218222
8.487848,-2.1782124,-1.4218222
8.487848,-2.1782124,-1.4218222
8.487848,-2.1782124,-1.4218222
9.004874000000001,-1.2494801000000002,-0.7324539000000001
9.004874000000001,-1.2494801000000002,-0.7324539000000001
9.004874000000001,-1.2494801000000002,-0.7324539000000001
9.004874000000001,-1.2494801000000002,-0.7324539000000001
8.516571,-0.9430941999999999,-1.2877783999999999
8.516571,-0.9430941999999999,-1.2877783999999999
8.516571,-0.9430941999999999,-1.2877783999999999
8.516571,-0.9430941999999999,-1.2877783999999999
9.41658,-1.4601203999999999,-1.2877783999999999
9.41658,-1.4601203999999999,-1.2877783999999999
9.41658,-1.4601203999999999,-1.2877783999999999
9.41658,-1.4601203999999999,-1.2877783999999999
11.503835,-1.9388485,-1.1633091
11.503835,-1.9388485,-1.1633091
11.503835,-1.9388485,-1.1633091
11.503835,-1.9388485,-1.1633091
13.064487,-3.2697124,0.2920241
13.064487,-3.2697124,0.2920241
13.064487,-3.2697124,0.2920241
13.064487,-3.2697124,0.2920241
12.738953,-2.6856642,0.8186249
12.738953,-2.6856642,0.8186249
12.738953,-2.6856642,0.8186249
12.738953,-2.6856642,0.8186249
7.788905000000001,-0.85692316,2.5899186000000003
7.788905000000001,-0.85692316,2.5899186000000003
7.788905000000001,-0.85692316,2.5899186000000003
8.095291,-1.4313968000000001,2.408002
8.095291,-1.4313968000000001,2.408002
8.095291,-1.4313968000000001,2.408002
8.095291,-1.4313968000000001,2.408002
11.417664,-2.8292825,2.8771553
11.417664,-2.8292825,2.8771553
11.417664,-2.8292825,2.8771553
11.417664,-2.8292825,2.8771553
14.376203,-3.1643922000000004,5.6250544
14.376203,-3.1643922000000004,5.6250544
14.376203,-3.1643922000000004,5.6250544
14.376203,-3.1643922000000004,5.6250544
15.640044,-1.3548003,5.2516465
15.640044,-1.3548003,5.2516465
15.640044,-1.3548003,5.2516465
15.640044,-1.3548003,5.2516465
15.754939000000002,-1.9005502,3.2218397000000003
15.754939000000002,-1.9005502,3.2218397000000003
15.754939000000002,-1.9005502,3.2218397000000003
15.754939000000002,-1.9005502,3.2218397000000003
17.650702,-3.9016335,0.10053288
17.650702,-3.9016335,0.10053288
17.650702,-3.9016335,0.10053288
17.650702,-3.9016335,0.10053288
12.413418,-4.1888704,0.014361841
12.413418,-4.1888704,0.014361841
12.413418,-4.1888704,0.014361841
8.411251,-2.0441686999999997,-0.27287498
8.411251,-2.0441686999999997,-0.27287498
8.411251,-2.0441686999999997,-0.27287498
8.411251,-2.0441686999999997,-0.27287498
8.411251,-2.0441686999999997,-0.27287498
8.056992999999999,-1.9867213,-0.91437054
8.056992999999999,-1.9867213,-0.91437054
8.056992999999999,-1.9867213,-0.91437054
8.765511,-1.3452256999999999,-0.751603
8.765511,-1.3452256999999999,-0.751603
8.765511,-1.3452256999999999,-0.751603
8.765511,-1.3452256999999999,-0.751603
9.742115,-1.5079931999999998,-0.91437054
9.742115,-1.5079931999999998,-0.91437054
9.742115,-1.5079931999999998,-0.91437054
9.742115,-1.5079931999999998,-0.91437054
9.742115,-1.5079931999999998,-0.91437054
10.19212,-1.5750152,-0.69415563
10.19212,-1.5750152,-0.69415563
10.19212,-1.5750152,-0.69415563
10.460207,-2.0728923999999997,-0.76117754
10.460207,-2.0728923999999997,-0.76117754
10.460207,-2.0728923999999997,-0.76117754
10.460207,-2.0728923999999997,-0.76117754
11.59958,-2.9920502,0.92394507
11.59958,-2.9920502,0.92394507
11.59958,-2.9920502,0.92394507
11.59958,-2.9920502,0.92394507
11.59958,-2.9920502,0.92394507
10.527229,-2.4175766,1.5941644
10.527229,-2.4175766,1.5941644
10.527229,-2.4175766,1.5941644
10.527229,-2.4175766,1.5941644
6.898471000000001,-0.34947145,2.6856642
6.898471000000001,-0.34947145,2.6856642
6.898471000000001,-0.34947145,2.6856642
8.899554,-0.9622433000000001,2.2739582
8.899554,-0.9622433000000001,2.2739582
8.899554,-0.9622433000000001,2.2739582
8.899554,-0.9622433000000001,2.2739582
12.2410755,-3.2792869,3.1165195
12.2410755,-3.2792869,3.1165195
12.2410755,-3.2792869,3.1165195
12.2410755,-3.2792869,3.1165195
15.553873000000001,-3.6526947,5.328243
15.553873000000001,-3.6526947,5.328243
15.553873000000001,-3.6526947,5.328243
15.553873000000001,-3.6526947,5.328243
15.486851999999999,-2.4654493,5.021857
15.486851999999999,-2.4654493,5.021857
15.486851999999999,-2.4654493,5.021857
15.486851999999999,-2.4654493,5.021857
15.055995999999999,-2.408002,2.5324712000000003
15.055995999999999,-2.408002,2.5324712000000003
15.055995999999999,-2.408002,2.5324712000000003
15.055995999999999,-2.408002,2.5324712000000003
16.147495000000003,-3.9495062999999995,1.2016073
16.147495000000003,-3.9495062999999995,1.2016073
16.147495000000003,-3.9495062999999995,1.2016073
9.493176,-2.9824755,1.1633091
9.493176,-2.9824755,1.1633091
9.493176,-2.9824755,1.1633091
9.493176,-2.9824755,1.1633091
7.894225,-1.8335283,0.50266445
7.894225,-1.8335283,0.50266445
7.894225,-1.8335283,0.50266445
7.894225,-1.8335283,0.50266445
9.96233,-1.9101248,0.25372586
9.96233,-1.9101248,0.25372586
9.96233,-1.9101248,0.25372586
9.96233,-1.9101248,0.25372586
11.972988,-1.9388485,-1.0005416
11.972988,-1.9388485,-1.0005416
11.972988,-1.9388485,-1.0005416
11.972988,-1.9388485,-1.0005416
10.728295,-1.8048046999999998,-1.5558661
10.728295,-1.8048046999999998,-1.5558661
10.728295,-1.8048046999999998,-1.5558661
10.728295,-1.8048046999999998,-1.5558661
8.258059,0.46436617,-2.427151
8.258059,0.46436617,-2.427151
8.258059,0.46436617,-2.427151
8.258059,0.46436617,-2.427151
8.727212,-1.862252,-1.2782038
8.727212,-1.862252,-1.2782038
8.727212,-1.862252,-1.2782038
13.945347,-2.7622607000000006,0.359046
13.945347,-2.7622607000000006,0.359046
13.945347,-2.7622607000000006,0.359046
13.945347,-2.7622607000000006,0.359046
13.945347,-2.7622607000000006,0.359046
9.732541000000001,-0.83777404,1.9388485
9.732541000000001,-0.83777404,1.9388485
9.732541000000001,-0.83777404,1.9388485
8.21976,-0.37819514,3.0303482999999996
8.21976,-0.37819514,3.0303482999999996
8.21976,-0.37819514,3.0303482999999996
8.21976,-0.37819514,3.0303482999999996
10.249566999999999,-2.3697037999999995,3.0303482999999996
10.249566999999999,-2.3697037999999995,3.0303482999999996
10.249566999999999,-2.3697037999999995,3.0303482999999996
10.249566999999999,-2.3697037999999995,3.0303482999999996
12.58576,-2.4367256,4.9069624
12.58576,-2.4367256,4.9069624
12.58576,-2.4367256,4.9069624
12.58576,-2.4367256,4.9069624
14.76876,-1.5175678999999997,6.1899533
14.76876,-1.5175678999999997,6.1899533
14.76876,-1.5175678999999997,6.1899533
14.76876,-1.5175678999999997,6.1899533
16.645372000000002,-0.8856468000000001,4.045252
16.645372000000002,-0.8856468000000001,4.045252
16.645372000000002,-0.8856468000000001,4.045252
16.645372000000002,-0.8856468000000001,4.045252
15.103869,-4.0356774,1.1537346000000002
15.103869,-4.0356774,1.1537346000000002
15.103869,-4.0356774,1.1537346000000002
15.103869,-4.0356774,1.1537346000000002
14.66344,-4.619725,0.751603
14.66344,-4.619725,0.751603
14.66344,-4.619725,0.751603
8.717637,-1.6899098999999997,1.0771381000000002
8.717637,-1.6899098999999997,1.0771381000000002
8.717637,-1.6899098999999997,1.0771381000000002
8.717637,-1.6899098999999997,1.0771381000000002
8.717637,-1.6899098999999997,1.0771381000000002
8.353804,-1.5462915000000002,-0.2154276
8.353804,-1.5462915000000002,-0.2154276
8.353804,-1.5462915000000002,-0.2154276
9.138917999999999,-0.3111732,-1.2494801000000002
9.138917999999999,-0.3111732,-1.2494801000000002
9.138917999999999,-0.3111732,-1.2494801000000002
9.138917999999999,-0.3111732,-1.2494801000000002
9.234664,-0.45479164,-1.3739493999999999
9.234664,-0.45479164,-1.3739493999999999
9.234664,-0.45479164,-1.3739493999999999
9.234664,-0.45479164,-1.3739493999999999
9.062322,-1.1920328000000002,-1.8909756999999998
9.062322,-1.1920328000000002,-1.8909756999999998
9.062322,-1.1920328000000002,-1.8909756999999998
9.062322,-1.1920328000000002,-1.8909756999999998
11.657027000000001,-1.6420371999999999,-1.9388485
11.657027000000001,-1.6420371999999999,-1.9388485
11.657027000000001,-1.6420371999999999,-1.9388485
11.657027000000001,-1.6420371999999999,-1.9388485
11.657027000000001,-1.6420371999999999,-1.9388485
11.657027000000001,-1.6420371999999999,-1.9388485
11.657027000000001,-1.6420371999999999,-1.9388485
14.012369,-1.0005416,0.91437054
14.012369,-1.0005416,0.91437054
14.012369,-1.0005416,0.91437054
14.012369,-1.0005416,0.91437054
7.769756,-0.18670394,2.752686
7.769756,-0.18670394,2.752686
7.769756,-0.18670394,2.752686
7.769756,-0.18670394,2.752686
6.592085000000001,-1.4505458999999998,2.9346027
6.592085000000001,-1.4505458999999998,2.9346027
6.592085000000001,-1.4505458999999998,2.9346027
6.592085000000001,-1.4505458999999998,2.9346027
9.608071,-1.9101248,2.9537517999999996
9.608071,-1.9101248,2.9537517999999996
9.608071,-1.9101248,2.9537517999999996
9.608071,-1.9101248,2.9537517999999996
13.121935,-2.1877869999999997,4.8207912
13.121935,-2.1877869999999997,4.8207912
13.121935,-2.1877869999999997,4.8207912
16.425158,-2.2931072999999995,5.644203
16.425158,-2.2931072999999995,5.644203
16.425158,-2.2931072999999995,5.644203
16.425158,-2.2931072999999995,5.644203
15.237913,-1.6324625,6.2474008
15.237913,-1.6324625,6.2474008
15.237913,-1.6324625,6.2474008
15.237913,-1.6324625,6.2474008
15.582597,-1.5558661,1.9196993000000002
15.582597,-1.5558661,1.9196993000000002
15.582597,-1.5558661,1.9196993000000002
15.582597,-1.5558661,1.9196993000000002
17.669851,-3.4420545,0.45479164
17.669851,-3.4420545,0.45479164
17.669851,-3.4420545,0.45479164
17.669851,-3.4420545,0.45479164
10.345312,-2.7909843999999997,0.14840569
10.345312,-2.7909843999999997,0.14840569
10.345312,-2.7909843999999997,0.14840569
10.345312,-2.7909843999999997,0.14840569
8.382527,-2.6569404999999997,-1.3739493999999999
8.382527,-2.6569404999999997,-1.3739493999999999
8.382527,-2.6569404999999997,-1.3739493999999999
8.382527,-2.6569404999999997,-1.3739493999999999
9.004874000000001,-2.561195,-1.9962958
9.004874000000001,-2.561195,-1.9962958
9.004874000000001,-2.561195,-1.9962958
8.851681,-0.512239,-1.4601203999999999
8.851681,-0.512239,-1.4601203999999999
8.851681,-0.512239,-1.4601203999999999
8.851681,-0.512239,-1.4601203999999999
6.8601727,-1.0675635,-1.0196906
6.8601727,-1.0675635,-1.0196906
6.8601727,-1.0675635,-1.0196906
6.8601727,-1.0675635,-1.0196906
8.889978999999999,-1.5750152,-0.42606795
8.889978999999999,-1.5750152,-0.42606795
8.889978999999999,-1.5750152,-0.42606795
8.889978999999999,-1.5750152,-0.42606795
11.685751,-1.948423,0.3111732
11.685751,-1.948423,0.3111732
11.685751,-1.948423,0.3111732
11.685751,-1.948423,0.3111732
11.685751,-1.948423,0.3111732
14.74961,-2.2452345,1.469695
14.74961,-2.2452345,1.469695
14.74961,-2.2452345,1.469695
11.082554,-2.1207652,2.2643836
11.082554,-2.1207652,2.2643836
11.082554,-2.1207652,2.2643836
11.082554,-2.1207652,2.2643836
7.808053999999999,-1.1058618,3.5952474999999997
7.808053999999999,-1.1058618,3.5952474999999997
7.808053999999999,-1.1058618,3.5952474999999997
7.808053999999999,-1.1058618,3.5952474999999997
7.808053999999999,-1.1058618,3.5952474999999997
9.991054,-1.4792696,2.6569404999999997
9.991054,-1.4792696,2.6569404999999997
9.991054,-1.4792696,2.6569404999999997
12.987891000000001,-2.3026817000000004,4.5144053
12.987891000000001,-2.3026817000000004,4.5144053
12.987891000000001,-2.3026817000000004,4.5144053
12.987891000000001,-2.3026817000000004,4.5144053
15.697492,-1.4409714,5.9314404000000005
15.697492,-1.4409714,5.9314404000000005
15.697492,-1.4409714,5.9314404000000005
15.697492,-1.4409714,5.9314404000000005
14.9794,-1.6803354,5.4718614
14.9794,-1.6803354,5.4718614
14.9794,-1.6803354,5.4718614
14.9794,-1.6803354,5.4718614
16.578352,-0.8760723,2.8484317999999997
16.578352,-0.8760723,2.8484317999999997
16.578352,-0.8760723,2.8484317999999997
16.578352,-0.8760723,2.8484317999999997
18.253899,-2.427151,0.9622433000000001
18.253899,-2.427151,0.9622433000000001
18.253899,-2.427151,0.9622433000000001
18.253899,-2.427151,0.9622433000000001
11.05383,-2.7239625,-0.30159867
11.05383,-2.7239625,-0.30159867
11.05383,-2.7239625,-0.30159867
11.05383,-2.7239625,-0.30159867
9.244238000000001,-3.0016246,-1.8431028999999999
9.244238000000001,-3.0016246,-1.8431028999999999
9.244238000000001,-3.0016246,-1.8431028999999999
10.249566999999999,-2.6856642,-2.7048132000000003
10.249566999999999,-2.6856642,-2.7048132000000003
10.249566999999999,-2.6856642,-2.7048132000000003
10.249566999999999,-2.6856642,-2.7048132000000003
10.249566999999999,-2.6856642,-2.7048132000000003
8.593167999999999,0.18670394,-1.6994845
8.593167999999999,0.18670394,-1.6994845
8.593167999999999,0.18670394,-1.6994845
8.593167999999999,0.18670394,-1.6994845
6.391019,-1.0579889,-0.45479164
6.391019,-1.0579889,-0.45479164
6.391019,-1.0579889,-0.45479164
8.631466,-1.5367169,0.0718092
8.631466,-1.5367169,0.0718092
8.631466,-1.5367169,0.0718092
8.631466,-1.5367169,0.0718092
8.631466,-1.5367169,0.0718092
11.312344,-1.6611862000000002,0.78032666
11.312344,-1.6611862000000002,0.78032666
11.312344,-1.6611862000000002,0.78032666
13.083637,-2.2835326,2.88673
13.083637,-2.2835326,2.88673
13.083637,-2.2835326,2.88673
13.083637,-2.2835326,2.88673
9.41658,-1.9101248,2.5707695
9.41658,-1.9101248,2.5707695
9.41658,-1.9101248,2.5707695
9.41658,-1.9101248,2.5707695
8.076141,-0.70373017,1.1058618
8.076141,-0.70373017,1.1058618
8.076141,-0.70373017,1.1058618
8.076141,-0.70373017,1.1058618
11.398514,-3.518651,2.513322
11.398514,-3.518651,2.513322
