accx,accy,accz
-1.2686293,4.696322,7.922949000000001
-1.3739493999999999,5.1367517,7.9995449999999995
-1.3739493999999999,5.1367517,7.9995449999999995
-1.3739493999999999,5.1367517,7.9995449999999995
-1.3739493999999999,5.1367517,7.9995449999999995
-1.3356511999999998,4.868664,7.894225
-1.3356511999999998,4.868664,7.894225
-1.3356511999999998,4.868664,7.894225
-1.3356511999999998,4.868664,7.894225
-1.3356511999999998,4.868664,7.894225
-1.3069274,4.96441,8.095291
-1.3069274,4.96441,8.095291
-1.3069274,4.96441,8.095291
-1.1824582000000001,4.5527034,8.028269
-1.1824582000000001,4.5527034,8.028269
-1.1824582000000001,4.5527034,8.028269
-1.1824582000000001,4.5527034,8.028269
-1.0771381000000002,4.3516379999999995,8.382527
-1.0771381000000002,4.3516379999999995,8.382527
-1.0771381000000002,4.3516379999999995,8.382527
-1.0771381000000002,4.3516379999999995,8.382527
-1.0771381000000002,4.3516379999999995,8.382527
-1.1728836,4.169721,8.487848
-1.1728836,4.169721,8.487848
-1.1728836,4.169721,8.487848
-1.2590546999999999,4.543129,8.420826
-1.2590546999999999,4.543129,8.420826
-1.2590546999999999,4.543129,8.420826
-1.2590546999999999,4.543129,8.420826
-1.2590546999999999,4.543129,8.420826
-1.0579889,4.3133397,8.526146
-1.0579889,4.3133397,8.526146
-1.0579889,4.3133397,8.526146
-1.0579889,4.3133397,8.526146
-1.0867126,4.045252,8.5740185
-1.0867126,4.045252,8.5740185
-1.0867126,4.045252,8.5740185
-1.2016073,3.7005677,8.478273
-1.2016073,3.7005677,8.478273
-1.2016073,3.7005677,8.478273
-1.2016073,3.7005677,8.478273
-1.2016073,3.7005677,8.478273
-1.3452256999999999,3.4229053999999994,8.5740185
-1.3452256999999999,3.4229053999999994,8.5740185
-1.3452256999999999,3.4229053999999994,8.5740185
-1.3452256999999999,3.4229053999999994,8.5740185
-1.4505458999999998,3.1452432,8.727212
-1.4505458999999998,3.1452432,8.727212
-1.4505458999999998,3.1452432,8.727212
-1.4505458999999998,3.1452432,8.727212
-1.3452256999999999,2.2739582,8.679339
-1.3452256999999999,2.2739582,8.679339
-1.3452256999999999,2.2739582,8.679339
-1.3452256999999999,2.2739582,8.679339
-1.8335283,1.3069274,8.612317
-1.8335283,1.3069274,8.612317
-1.8335283,1.3069274,8.612317
-2.034594,-0.062234644000000006,9.014449
-2.034594,-0.062234644000000006,9.014449
-2.034594,-0.062234644000000006,9.014449
-2.034594,-0.062234644000000006,9.014449
-2.034594,-0.062234644000000006,9.014449
-2.0250196,-1.1345854,8.976150500000001
-2.0250196,-1.1345854,8.976150500000001
-2.0250196,-1.1345854,8.976150500000001
-2.0250196,-1.1345854,8.976150500000001
-1.5750152,-2.3505547000000004,8.085716
-1.5750152,-2.3505547000000004,8.085716
-1.5750152,-2.3505547000000004,8.085716
-1.5750152,-2.3505547000000004,8.085716
-1.9962958,-3.9016335,7.4729443
-1.9962958,-3.9016335,7.4729443
-1.9962958,-3.9016335,7.4729443
-1.9962958,-3.9016335,7.4729443
-2.321831,-5.088879,7.7506065
-2.321831,-5.088879,7.7506065
-2.321831,-5.088879,7.7506065
-2.321831,-5.088879,7.7506065
-2.7048132000000003,-6.256975,7.683584700000001
-2.7048132000000003,-6.256975,7.683584700000001
-2.7048132000000003,-6.256975,7.683584700000001
-2.7048132000000003,-6.256975,7.683584700000001
-2.800559,-6.525062999999999,7.6069884000000005
-2.800559,-6.525062999999999,7.6069884000000005
-2.800559,-6.525062999999999,7.6069884000000005
-2.800559,-6.525062999999999,7.6069884000000005
-1.7569318999999999,-6.486765,8.210186
-1.7569318999999999,-6.486765,8.210186
-1.7569318999999999,-6.486765,8.210186
-1.7569318999999999,-6.486765,8.210186
-1.2686293,-7.8846507,5.2516465
-1.2686293,-7.8846507,5.2516465
-1.2686293,-7.8846507,5.2516465
-1.2686293,-7.8846507,5.2516465
-0.45479164,-7.559115400000001,5.739949
-0.45479164,-7.559115400000001,5.739949
-0.45479164,-7.559115400000001,5.739949
-0.45479164,-7.559115400000001,5.739949
-0.3877697,-7.348475,3.6431203
-0.3877697,-7.348475,3.6431203
-0.3877697,-7.348475,3.6431203
-0.3877697,-7.348475,3.6431203
-0.062234644000000006,-8.4686985,3.5569491
-0.062234644000000006,-8.4686985,3.5569491
-0.062234644000000006,-8.4686985,3.5569491
-0.062234644000000006,-8.4686985,3.5569491
-0.13883112,-11.609155,2.1303396
-0.13883112,-11.609155,2.1303396
-0.13883112,-11.609155,2.1303396
-0.13883112,-11.609155,2.1303396
-0.23457673,-10.431483,1.8526775000000002
-0.23457673,-10.431483,1.8526775000000002
-0.23457673,-10.431483,1.8526775000000002
-0.23457673,-10.431483,1.8526775000000002
0.5888355,-9.847435,1.0196906
0.5888355,-9.847435,1.0196906
0.5888355,-9.847435,1.0196906
0.5888355,-9.847435,1.0196906
1.2207563999999997,-9.493176,0.062234644000000006
1.2207563999999997,-9.493176,0.062234644000000006
1.2207563999999997,-9.493176,0.062234644000000006
1.2207563999999997,-9.493176,0.062234644000000006
1.2494801000000002,-9.359133,-0.8281995000000001
1.2494801000000002,-9.359133,-0.8281995000000001
1.2494801000000002,-9.359133,-0.8281995000000001
1.2494801000000002,-9.359133,-0.8281995000000001
1.1920328000000002,-9.579348,-1.0962871
1.1920328000000002,-9.579348,-1.0962871
1.1920328000000002,-9.579348,-1.0962871
1.1920328000000002,-9.579348,-1.0962871
1.2973529,-9.320834,-0.83777404
1.2973529,-9.320834,-0.83777404
1.2973529,-9.320834,-0.83777404
1.2973529,-9.320834,-0.83777404
1.2782038,-7.961247,-0.6271336999999999
1.2782038,-7.961247,-0.6271336999999999
1.2782038,-7.961247,-0.6271336999999999
1.2782038,-7.961247,-0.6271336999999999
2.427151,-6.946343400000001,-0.00478728
2.427151,-6.946343400000001,-0.00478728
2.427151,-6.946343400000001,-0.00478728
2.427151,-6.946343400000001,-0.00478728
5.328243,-6.946343400000001,-0.512239
5.328243,-6.946343400000001,-0.512239
5.328243,-6.946343400000001,-0.512239
5.328243,-6.946343400000001,-0.512239
7.846352,-6.4963393,-0.03351096
7.846352,-6.4963393,-0.03351096
7.846352,-6.4963393,-0.03351096
7.846352,-6.4963393,-0.03351096
10.383611,-6.170804,0.27287498
10.383611,-6.170804,0.27287498
10.383611,-6.170804,0.27287498
10.383611,-6.170804,0.27287498
12.442142,-6.0559096,0.00478728
12.442142,-6.0559096,0.00478728
12.442142,-6.0559096,0.00478728
12.442142,-6.0559096,0.00478728
11.321918,-4.342063,-0.2920241
11.321918,-4.342063,-0.2920241
11.321918,-4.342063,-0.2920241
11.321918,-4.342063,-0.2920241
10.134672,-3.8537605000000004,0.12925656
10.134672,-3.8537605000000004,0.12925656
10.134672,-3.8537605000000004,0.12925656
10.134672,-3.8537605000000004,0.12925656
10.230417999999998,-3.2601378,1.1154363
10.230417999999998,-3.2601378,1.1154363
10.230417999999998,-3.2601378,1.1154363
10.230417999999998,-3.2601378,1.1154363
9.85701,-2.88673,0.40691882
9.85701,-2.88673,0.40691882
9.85701,-2.88673,0.40691882
9.85701,-2.88673,0.40691882
9.368708,-2.4558747000000003,-0.2154276
9.368708,-2.4558747000000003,-0.2154276
9.368708,-2.4558747000000003,-0.2154276
9.368708,-2.4558747000000003,-0.2154276
10.048501,-1.9196993000000002,-0.8664976999999999
10.048501,-1.9196993000000002,-0.8664976999999999
10.048501,-1.9196993000000002,-0.8664976999999999
10.048501,-1.9196993000000002,-0.8664976999999999
9.847435,-1.4026731000000001,-0.09095833
9.847435,-1.4026731000000001,-0.09095833
9.847435,-1.4026731000000001,-0.09095833
9.847435,-1.4026731000000001,-0.09095833
10.096374,-1.7473572,-0.062234644000000006
10.096374,-1.7473572,-0.062234644000000006
10.096374,-1.7473572,-0.062234644000000006
10.096374,-1.7473572,-0.062234644000000006
10.096374,-1.7473572,-0.062234644000000006
10.230417999999998,-2.6186423,-0.5888355
10.230417999999998,-2.6186423,-0.5888355
10.230417999999998,-2.6186423,-0.5888355
9.579348,-2.2165107999999996,-0.36862057
9.579348,-2.2165107999999996,-0.36862057
9.579348,-2.2165107999999996,-0.36862057
9.579348,-2.2165107999999996,-0.36862057
9.703816999999999,-2.3697037999999995,-0.6079846
9.703816999999999,-2.3697037999999995,-0.6079846
9.703816999999999,-2.3697037999999995,-0.6079846
9.703816999999999,-2.3697037999999995,-0.6079846
9.943181,-2.4654493,-0.70373017
9.943181,-2.4654493,-0.70373017
9.943181,-2.4654493,-0.70373017
9.943181,-2.4654493,-0.70373017
10.06765,-2.2356597999999996,-0.3398969
10.06765,-2.2356597999999996,-0.3398969
10.06765,-2.2356597999999996,-0.3398969
10.06765,-2.2356597999999996,-0.3398969
10.06765,-2.2356597999999996,-0.3398969
10.278291000000001,-2.1207652,-0.18670394
10.278291000000001,-2.1207652,-0.18670394
10.278291000000001,-2.1207652,-0.18670394
9.742115,-2.3026817000000004,-0.2441513
9.742115,-2.3026817000000004,-0.2441513
9.742115,-2.3026817000000004,-0.2441513
9.742115,-2.3026817000000004,-0.2441513
9.31126,-2.2739582,-0.12925656
9.31126,-2.2739582,-0.12925656
9.31126,-2.2739582,-0.12925656
9.31126,-2.2739582,-0.12925656
9.31126,-2.2739582,-0.12925656
9.531475,-2.3122563,-0.15798025
9.531475,-2.3122563,-0.15798025
9.531475,-2.3122563,-0.15798025
9.952755999999999,-2.647366,-0.081383765
9.952755999999999,-2.647366,-0.081383765
9.952755999999999,-2.647366,-0.081383765
9.952755999999999,-2.647366,-0.081383765
9.952755999999999,-2.647366,-0.081383765
10.172971,-2.427151,0.043085523
10.172971,-2.427151,0.043085523
10.172971,-2.427151,0.043085523
10.172971,-2.427151,0.043085523
9.655944,-2.101616,0.13883112
9.655944,-2.101616,0.13883112
9.655944,-2.101616,0.13883112
9.675094,-1.9388485,-0.23457673
9.675094,-1.9388485,-0.23457673
9.675094,-1.9388485,-0.23457673
9.675094,-1.9388485,-0.23457673
9.675094,-1.9388485,-0.23457673
9.837861,-1.8526775000000002,0.03351096
9.837861,-1.8526775000000002,0.03351096
9.837861,-1.8526775000000002,0.03351096
9.837861,-1.8526775000000002,0.03351096
10.105948,-1.6994845,0.83777404
10.105948,-1.6994845,0.83777404
10.105948,-1.6994845,0.83777404
10.105948,-1.6994845,0.83777404
10.412334,-2.714388,0.44521707
10.412334,-2.714388,0.44521707
10.412334,-2.714388,0.44521707
10.412334,-2.714388,0.44521707
8.32508,-2.4558747000000003,0.18670394
8.32508,-2.4558747000000003,0.18670394
8.32508,-2.4558747000000003,0.18670394
8.32508,-2.4558747000000003,0.18670394
9.292110000000001,-2.0250196,0.5218136
9.292110000000001,-2.0250196,0.5218136
9.292110000000001,-2.0250196,0.5218136
9.292110000000001,-2.0250196,0.5218136
11.743198,-2.9920502,0.14840569
11.743198,-2.9920502,0.14840569
11.743198,-2.9920502,0.14840569
11.743198,-2.9920502,0.14840569
10.527229,-1.7665064,0.3398969
10.527229,-1.7665064,0.3398969
10.527229,-1.7665064,0.3398969
10.527229,-1.7665064,0.3398969
9.435728999999998,-1.5558661,0.78032666
9.435728999999998,-1.5558661,0.78032666
9.435728999999998,-1.5558661,0.78032666
9.435728999999998,-1.5558661,0.78032666
9.799562,-1.9101248,0.64628285
9.799562,-1.9101248,0.64628285
9.799562,-1.9101248,0.64628285
9.799562,-1.9101248,0.64628285
10.249566999999999,-1.6324625,0.512239
10.249566999999999,-1.6324625,0.512239
10.249566999999999,-1.6324625,0.512239
10.249566999999999,-1.6324625,0.512239
10.163396,-1.2303311000000001,0.30159867
10.163396,-1.2303311000000001,0.30159867
10.163396,-1.2303311000000001,0.30159867
10.163396,-1.2303311000000001,0.30159867
8.631466,-1.6420371999999999,0.36862057
8.631466,-1.6420371999999999,0.36862057
8.631466,-1.6420371999999999,0.36862057
8.631466,-1.6420371999999999,0.36862057
8.688913000000001,-2.0824668,1.4984187
8.688913000000001,-2.0824668,1.4984187
8.688913000000001,-2.0824668,1.4984187
8.688913000000001,-2.0824668,1.4984187
9.770839,-3.039923,0.5218136
9.770839,-3.039923,0.5218136
9.770839,-3.039923,0.5218136
9.770839,-3.039923,0.5218136
9.7899885,-3.0877957,0.062234644000000006
9.7899885,-3.0877957,0.062234644000000006
9.7899885,-3.0877957,0.062234644000000006
9.7899885,-3.0877957,0.062234644000000006
10.010203,-2.360129,0.512239
10.010203,-2.360129,0.512239
10.010203,-2.360129,0.512239
10.010203,-2.360129,0.512239
9.98148,-2.5803439999999997,0.32074776
9.98148,-2.5803439999999997,0.32074776
9.98148,-2.5803439999999997,0.32074776
9.98148,-2.5803439999999997,0.32074776
10.06765,-2.7048132000000003,0.19627848
10.06765,-2.7048132000000003,0.19627848
10.06765,-2.7048132000000003,0.19627848
10.06765,-2.7048132000000003,0.19627848
10.134672,-2.1207652,0.26330042
10.134672,-2.1207652,0.26330042
10.134672,-2.1207652,0.26330042
10.134672,-2.1207652,0.26330042
10.048501,-1.2303311000000001,0.5313880999999999
10.048501,-1.2303311000000001,0.5313880999999999
10.048501,-1.2303311000000001,0.5313880999999999
10.048501,-1.2303311000000001,0.5313880999999999
9.96233,-1.5271424,0.18670394
9.96233,-1.5271424,0.18670394
9.96233,-1.5271424,0.18670394
9.96233,-1.5271424,0.18670394
9.828286,-1.7282081999999999,-0.14840569
9.828286,-1.7282081999999999,-0.14840569
9.828286,-1.7282081999999999,-0.14840569
9.828286,-1.7282081999999999,-0.14840569
9.512326,-1.4984187,-0.043085523
9.512326,-1.4984187,-0.043085523
9.512326,-1.4984187,-0.043085523
9.512326,-1.4984187,-0.043085523
9.636795,-1.2877783999999999,0.45479164
9.636795,-1.2877783999999999,0.45479164
9.636795,-1.2877783999999999,0.45479164
9.636795,-1.2877783999999999,0.45479164
9.636795,-1.2877783999999999,0.45479164
9.636795,-1.2877783999999999,0.45479164
9.636795,-1.2877783999999999,0.45479164
9.636795,-1.2877783999999999,0.45479164
9.3878565,-2.2165107999999996,0.47394073
9.3878565,-2.2165107999999996,0.47394073
9.3878565,-2.2165107999999996,0.47394073
9.3878565,-2.2165107999999996,0.47394073
9.407005,-2.149489,0.33032233
9.407005,-2.149489,0.33032233
9.407005,-2.149489,0.33032233
9.407005,-2.149489,0.33032233
10.555953,-1.469695,1.4218222
10.555953,-1.469695,1.4218222
10.555953,-1.469695,1.4218222
10.555953,-1.469695,1.4218222
11.130426,-1.2877783999999999,2.168638
11.130426,-1.2877783999999999,2.168638
11.130426,-1.2877783999999999,2.168638
11.130426,-1.2877783999999999,2.168638
8.899554,-1.6228879999999999,1.8814011999999998
8.899554,-1.6228879999999999,1.8814011999999998
8.899554,-1.6228879999999999,1.8814011999999998
8.899554,-1.6228879999999999,1.8814011999999998
7.0133657000000005,-2.4558747000000003,0.359046
7.0133657000000005,-2.4558747000000003,0.359046
7.0133657000000005,-2.4558747000000003,0.359046
7.0133657000000005,-2.4558747000000003,0.359046
8.822957,-2.3122563,0.6079846
8.822957,-2.3122563,0.6079846
8.822957,-2.3122563,0.6079846
8.822957,-2.3122563,0.6079846
10.546378,-2.3026817000000004,1.6611862000000002
10.546378,-2.3026817000000004,1.6611862000000002
10.546378,-2.3026817000000004,1.6611862000000002
10.546378,-2.3026817000000004,1.6611862000000002
11.140001,-2.7622607000000006,2.034594
11.140001,-2.7622607000000006,2.034594
11.140001,-2.7622607000000006,2.034594
11.140001,-2.7622607000000006,2.034594
14.740035999999998,-2.666515,0.8473485999999999
14.740035999999998,-2.666515,0.8473485999999999
14.740035999999998,-2.666515,0.8473485999999999
14.740035999999998,-2.666515,0.8473485999999999
14.9794,-2.4845984,0.2441513
14.9794,-2.4845984,0.2441513
14.9794,-2.4845984,0.2441513
14.9794,-2.4845984,0.2441513
7.463369999999999,-0.32074776,-1.0867126
7.463369999999999,-0.32074776,-1.0867126
7.463369999999999,-0.32074776,-1.0867126
7.463369999999999,-0.32074776,-1.0867126
7.281453,-1.5845897,-2.2356597999999996
7.281453,-1.5845897,-2.2356597999999996
7.281453,-1.5845897,-2.2356597999999996
7.281453,-1.5845897,-2.2356597999999996
6.9271946,-1.0675635,-0.49308985
6.9271946,-1.0675635,-0.49308985
6.9271946,-1.0675635,-0.49308985
6.9271946,-1.0675635,-0.49308985
6.9271946,-1.0675635,-0.49308985
6.9271946,-1.0675635,-0.49308985
6.9271946,-1.0675635,-0.49308985
8.928278,-0.39734426,0.59841
8.928278,-0.39734426,0.59841
8.928278,-0.39734426,0.59841
8.928278,-0.39734426,0.59841
8.928278,-0.39734426,0.59841
11.982562,-2.7814097,0.2154276
11.982562,-2.7814097,0.2154276
11.982562,-2.7814097,0.2154276
11.982562,-2.7814097,0.2154276
15.343232999999998,-2.427151,-1.3548003
15.343232999999998,-2.427151,-1.3548003
15.343232999999998,-2.427151,-1.3548003
10.642124,-0.69415563,-0.13883112
10.642124,-0.69415563,-0.13883112
10.642124,-0.69415563,-0.13883112
10.642124,-0.69415563,-0.13883112
10.642124,-0.69415563,-0.13883112
9.263388,0.3877697,-0.6079846
9.263388,0.3877697,-0.6079846
9.263388,0.3877697,-0.6079846
9.263388,0.3877697,-0.6079846
6.1995277,-0.40691882,0.54096264
6.1995277,-0.40691882,0.54096264
6.1995277,-0.40691882,0.54096264
7.568689999999999,-1.0388398,0.5505372
7.568689999999999,-1.0388398,0.5505372
7.568689999999999,-1.0388398,0.5505372
7.568689999999999,-1.0388398,0.5505372
7.568689999999999,-1.0388398,0.5505372
9.617646,-2.015445,0.062234644000000006
9.617646,-2.015445,0.062234644000000006
9.617646,-2.015445,0.062234644000000006
9.617646,-2.015445,0.062234644000000006
13.198531,-2.3026817000000004,0.22500217
13.198531,-2.3026817000000004,0.22500217
13.198531,-2.3026817000000004,0.22500217
13.198531,-2.3026817000000004,0.22500217
14.079391500000002,-2.4367256,0.3877697
14.079391500000002,-2.4367256,0.3877697
14.079391500000002,-2.4367256,0.3877697
14.079391500000002,-2.4367256,0.3877697
11.034680999999999,-1.4505458999999998,0.22500217
11.034680999999999,-1.4505458999999998,0.22500217
11.034680999999999,-1.4505458999999998,0.22500217
11.034680999999999,-1.4505458999999998,0.22500217
11.379365,-1.1633091,-0.47394073
11.379365,-1.1633091,-0.47394073
11.379365,-1.1633091,-0.47394073
11.379365,-1.1633091,-0.47394073
7.980396300000001,-1.5462915000000002,-0.46436617
7.980396300000001,-1.5462915000000002,-0.46436617
7.980396300000001,-1.5462915000000002,-0.46436617
7.980396300000001,-1.5462915000000002,-0.46436617
4.7537694,-1.7282081999999999,-0.3111732
4.7537694,-1.7282081999999999,-0.3111732
4.7537694,-1.7282081999999999,-0.3111732
4.7537694,-1.7282081999999999,-0.3111732
5.5771812999999995,-0.92394507,-0.7994758000000001
5.5771812999999995,-0.92394507,-0.7994758000000001
5.5771812999999995,-0.92394507,-0.7994758000000001
5.5771812999999995,-0.92394507,-0.7994758000000001
7.9037995,-0.00478728,-0.8186249
7.9037995,-0.00478728,-0.8186249
7.9037995,-0.00478728,-0.8186249
7.9037995,-0.00478728,-0.8186249
12.863422,-1.1920328000000002,-0.64628285
12.863422,-1.1920328000000002,-0.64628285
12.863422,-1.1920328000000002,-0.64628285
12.863422,-1.1920328000000002,-0.64628285
16.05175,-1.469695,-1.3069274
16.05175,-1.469695,-1.3069274
16.05175,-1.469695,-1.3069274
16.05175,-1.469695,-1.3069274
14.969825,-3.5856729,0.110107444
14.969825,-3.5856729,0.110107444
14.969825,-3.5856729,0.110107444
14.969825,-3.5856729,0.110107444
7.6740103,-1.8143792,1.14416
7.6740103,-1.8143792,1.14416
7.6740103,-1.8143792,1.14416
7.6740103,-1.8143792,1.14416
5.1654754,0.3398969,1.4218222
5.1654754,0.3398969,1.4218222
5.1654754,0.3398969,1.4218222
5.1654754,0.3398969,1.4218222
6.170804,-1.3260766000000002,1.5941644
6.170804,-1.3260766000000002,1.5941644
6.170804,-1.3260766000000002,1.5941644
6.170804,-1.3260766000000002,1.5941644
11.092129,-2.9633265,0.8090504
11.092129,-2.9633265,0.8090504
11.092129,-2.9633265,0.8090504
11.092129,-2.9633265,0.8090504
14.462373999999999,-2.9824755,1.3356511999999998
14.462373999999999,-2.9824755,1.3356511999999998
14.462373999999999,-2.9824755,1.3356511999999998
14.462373999999999,-2.9824755,1.3356511999999998
15.08472,-1.7282081999999999,1.6899098999999997
15.08472,-1.7282081999999999,1.6899098999999997
15.08472,-1.7282081999999999,1.6899098999999997
15.08472,-1.7282081999999999,1.6899098999999997
12.9591675,-1.8814011999999998,0.34947145
12.9591675,-1.8814011999999998,0.34947145
12.9591675,-1.8814011999999998,0.34947145
12.9591675,-1.8814011999999998,0.34947145
12.595334,-2.015445,-1.2111819
12.595334,-2.015445,-1.2111819
12.595334,-2.015445,-1.2111819
12.595334,-2.015445,-1.2111819
7.386773599999999,-0.5792609000000001,-0.63670826
7.386773599999999,-0.5792609000000001,-0.63670826
7.386773599999999,-0.5792609000000001,-0.63670826
7.386773599999999,-0.5792609000000001,-0.63670826
4.926111,0.03351096,-0.48351530000000004
4.926111,0.03351096,-0.48351530000000004
4.926111,0.03351096,-0.48351530000000004
4.926111,0.03351096,-0.48351530000000004
4.926111,0.03351096,-0.48351530000000004
5.9027166,0.043085523,-1.6324625
5.9027166,0.043085523,-1.6324625
5.9027166,0.043085523,-1.6324625
8.708063000000001,-0.49308985,-1.3260766000000002
8.708063000000001,-0.49308985,-1.3260766000000002
8.708063000000001,-0.49308985,-1.3260766000000002
8.708063000000001,-0.49308985,-1.3260766000000002
13.02619,-0.9430941999999999,-0.93351966
13.02619,-0.9430941999999999,-0.93351966
13.02619,-0.9430941999999999,-0.93351966
13.02619,-0.9430941999999999,-0.93351966
13.02619,-0.9430941999999999,-0.93351966
16.894312,-1.8143792,-0.6079846
16.894312,-1.8143792,-0.6079846
16.894312,-1.8143792,-0.6079846
12.662355999999999,-2.7048132000000003,2.561195
12.662355999999999,-2.7048132000000003,2.561195
12.662355999999999,-2.7048132000000003,2.561195
12.662355999999999,-2.7048132000000003,2.561195
6.333572,-1.1728836,1.383524
6.333572,-1.1728836,1.383524
6.333572,-1.1728836,1.383524
6.333572,-1.1728836,1.383524
6.333572,-1.1728836,1.383524
5.4335629999999995,-1.2399056,1.4313968000000001
5.4335629999999995,-1.2399056,1.4313968000000001
5.4335629999999995,-1.2399056,1.4313968000000001
9.062322,-3.8824842000000004,0.30159867
9.062322,-3.8824842000000004,0.30159867
9.062322,-3.8824842000000004,0.30159867
9.062322,-3.8824842000000004,0.30159867
14.778334,-5.529309,0.92394507
14.778334,-5.529309,0.92394507
14.778334,-5.529309,0.92394507
14.778334,-5.529309,0.92394507
14.883655,-2.1782124,3.0303482999999996
14.883655,-2.1782124,3.0303482999999996
14.883655,-2.1782124,3.0303482999999996
14.883655,-2.1782124,3.0303482999999996
14.242159,-3.039923,1.4313968000000001
14.242159,-3.039923,1.4313968000000001
14.242159,-3.039923,1.4313968000000001
14.242159,-3.039923,1.4313968000000001
15.496426000000001,-2.9441773999999996,-3.7675896
15.496426000000001,-2.9441773999999996,-3.7675896
15.496426000000001,-2.9441773999999996,-3.7675896
15.496426000000001,-2.9441773999999996,-3.7675896
9.770839,-0.2154276,-2.0824668
9.770839,-0.2154276,-2.0824668
9.770839,-0.2154276,-2.0824668
9.770839,-0.2154276,-2.0824668
5.289944599999999,0.081383765,-0.48351530000000004
5.289944599999999,0.081383765,-0.48351530000000004
5.289944599999999,0.081383765,-0.48351530000000004
5.289944599999999,0.081383765,-0.48351530000000004
5.6154795,-0.12925656,-1.2207563999999997
5.6154795,-0.12925656,-1.2207563999999997
5.6154795,-0.12925656,-1.2207563999999997
5.6154795,-0.12925656,-1.2207563999999997
7.1857076,-0.6079846,-1.5367169
7.1857076,-0.6079846,-1.5367169
7.1857076,-0.6079846,-1.5367169
7.1857076,-0.6079846,-1.5367169
11.38894,-1.0962871,0.69415563
11.38894,-1.0962871,0.69415563
11.38894,-1.0962871,0.69415563
11.38894,-1.0962871,0.69415563
15.515575,-2.3026817000000004,0.7324539000000001
15.515575,-2.3026817000000004,0.7324539000000001
15.515575,-2.3026817000000004,0.7324539000000001
15.515575,-2.3026817000000004,0.7324539000000001
13.610238,-4.5144053,2.7239625
13.610238,-4.5144053,2.7239625
13.610238,-4.5144053,2.7239625
13.610238,-4.5144053,2.7239625
8.727212,-3.2792869,1.9196993000000002
8.727212,-3.2792869,1.9196993000000002
8.727212,-3.2792869,1.9196993000000002
8.727212,-3.2792869,1.9196993000000002
4.476107,-1.0484143,1.8239537000000001
4.476107,-1.0484143,1.8239537000000001
4.476107,-1.0484143,1.8239537000000001
4.476107,-1.0484143,1.8239537000000001
6.525062999999999,-1.8143792,0.8186249
6.525062999999999,-1.8143792,0.8186249
6.525062999999999,-1.8143792,0.8186249
6.525062999999999,-1.8143792,0.8186249
6.525062999999999,-1.8143792,0.8186249
13.294277,-4.658024,0.12925656
13.294277,-4.658024,0.12925656
13.294277,-4.658024,0.12925656
14.155988,-4.275041000000001,1.7282081999999999
14.155988,-4.275041000000001,1.7282081999999999
14.155988,-4.275041000000001,1.7282081999999999
14.155988,-4.275041000000001,1.7282081999999999
13.227255,-3.2601378,2.2069361
13.227255,-3.2601378,2.2069361
13.227255,-3.2601378,2.2069361
13.227255,-3.2601378,2.2069361
13.227255,-3.2601378,2.2069361
10.785743,-2.8197080000000003,-0.023936402000000002
10.785743,-2.8197080000000003,-0.023936402000000002
10.785743,-2.8197080000000003,-0.023936402000000002
11.561282,-3.0686467,-0.6845810999999999
11.561282,-3.0686467,-0.6845810999999999
11.561282,-3.0686467,-0.6845810999999999
11.561282,-3.0686467,-0.6845810999999999
6.630383,-2.034594,-0.16755481
6.630383,-2.034594,-0.16755481
6.630383,-2.034594,-0.16755481
6.630383,-2.034594,-0.16755481
6.630383,-2.034594,-0.16755481
4.5718527,-1.0388398,-0.17712937
4.5718527,-1.0388398,-0.17712937
4.5718527,-1.0388398,-0.17712937
6.2282515,-1.2016073,-1.5558661
6.2282515,-1.2016073,-1.5558661
6.2282515,-1.2016073,-1.5558661
6.2282515,-1.2016073,-1.5558661
13.610238,-1.6037389,-1.2399056
13.610238,-1.6037389,-1.2399056
13.610238,-1.6037389,-1.2399056
13.610238,-1.6037389,-1.2399056
13.610238,-1.6037389,-1.2399056
15.209189000000002,-0.30159867,-0.8664976999999999
15.209189000000002,-0.30159867,-0.8664976999999999
15.209189000000002,-0.30159867,-0.8664976999999999
15.209189000000002,-0.30159867,-0.8664976999999999
12.298523,-0.90479594,0.03351096
12.298523,-0.90479594,0.03351096
12.298523,-0.90479594,0.03351096
8.430401,-1.9675721999999998,2.1590632999999997
8.430401,-1.9675721999999998,2.1590632999999997
8.430401,-1.9675721999999998,2.1590632999999997
8.430401,-1.9675721999999998,2.1590632999999997
5.098453500000001,-0.11968201,1.1633091
5.098453500000001,-0.11968201,1.1633091
5.098453500000001,-0.11968201,1.1633091
5.098453500000001,-0.11968201,1.1633091
6.5633610000000004,-0.69415563,1.0388398
6.5633610000000004,-0.69415563,1.0388398
6.5633610000000004,-0.69415563,1.0388398
6.5633610000000004,-0.69415563,1.0388398
11.034680999999999,-2.0633178,0.19627848
11.034680999999999,-2.0633178,0.19627848
11.034680999999999,-2.0633178,0.19627848
11.034680999999999,-2.0633178,0.19627848
13.945347,-2.6090677,1.0962871
13.945347,-2.6090677,1.0962871
13.945347,-2.6090677,1.0962871
13.945347,-2.6090677,1.0962871
13.753855999999999,-2.4558747000000003,1.3548003
13.753855999999999,-2.4558747000000003,1.3548003
13.753855999999999,-2.4558747000000003,1.3548003
13.753855999999999,-2.4558747000000003,1.3548003
12.643207,-1.3165021000000001,0.56968635
12.643207,-1.3165021000000001,0.56968635
12.643207,-1.3165021000000001,0.56968635
12.643207,-1.3165021000000001,0.56968635
12.825124,-2.0441686999999997,0.023936402000000002
12.825124,-2.0441686999999997,0.023936402000000002
12.825124,-2.0441686999999997,0.023936402000000002
12.825124,-2.0441686999999997,0.023936402000000002
8.55487,-2.0250196,-0.42606795
8.55487,-2.0250196,-0.42606795
8.55487,-2.0250196,-0.42606795
8.55487,-2.0250196,-0.42606795
5.0505805,-0.5888355,0.0718092
5.0505805,-0.5888355,0.0718092
5.0505805,-0.5888355,0.0718092
5.0505805,-0.5888355,0.0718092
6.2952733,-0.93351966,-0.83777404
6.2952733,-0.93351966,-0.83777404
6.2952733,-0.93351966,-0.83777404
6.2952733,-0.93351966,-0.83777404
10.019777000000001,-1.469695,-1.6228879999999999
10.019777000000001,-1.469695,-1.6228879999999999
10.019777000000001,-1.469695,-1.6228879999999999
10.019777000000001,-1.469695,-1.6228879999999999
12.681505,-1.3930986,-0.8281995000000001
12.681505,-1.3930986,-0.8281995000000001
12.681505,-1.3930986,-0.8281995000000001
12.681505,-1.3930986,-0.8281995000000001
13.600663,-0.6750065,-0.6845810999999999
13.600663,-0.6750065,-0.6845810999999999
13.600663,-0.6750065,-0.6845810999999999
13.600663,-0.6750065,-0.6845810999999999
13.600663,-0.6750065,-0.6845810999999999
12.0400095,-2.9537517999999996,1.4122477
12.0400095,-2.9537517999999996,1.4122477
12.0400095,-2.9537517999999996,1.4122477
6.6878304,-3.0111992,2.6282167000000003
6.6878304,-3.0111992,2.6282167000000003
6.6878304,-3.0111992,2.6282167000000003
6.6878304,-3.0111992,2.6282167000000003
5.108028,0.014361841,2.9633265
5.108028,0.014361841,2.9633265
5.108028,0.014361841,2.9633265
5.108028,0.014361841,2.9633265
6.975067,-1.2686293,1.4792696
6.975067,-1.2686293,1.4792696
6.975067,-1.2686293,1.4792696
6.975067,-1.2686293,1.4792696
12.518738,-3.5473747,0.22500217
12.518738,-3.5473747,0.22500217
12.518738,-3.5473747,0.22500217
12.518738,-3.5473747,0.22500217
15.362382,-4.016528,0.78990126
15.362382,-4.016528,0.78990126
15.362382,-4.016528,0.78990126
15.362382,-4.016528,0.78990126
13.753855999999999,-3.1548176,1.8239537000000001
13.753855999999999,-3.1548176,1.8239537000000001
13.753855999999999,-3.1548176,1.8239537000000001
13.753855999999999,-3.1548176,1.8239537000000001
12.145328999999998,-2.8388572,0.043085523
12.145328999999998,-2.8388572,0.043085523
12.145328999999998,-2.8388572,0.043085523
12.145328999999998,-2.8388572,0.043085523
9.244238000000001,-2.4654493,-0.42606795
9.244238000000001,-2.4654493,-0.42606795
9.244238000000001,-2.4654493,-0.42606795
9.244238000000001,-2.4654493,-0.42606795
4.9069624,-0.91437054,0.8856468000000001
4.9069624,-0.91437054,0.8856468000000001
4.9069624,-0.91437054,0.8856468000000001
4.9069624,-0.91437054,0.8856468000000001
5.4335629999999995,-0.6750065,-0.2154276
5.4335629999999995,-0.6750065,-0.2154276
5.4335629999999995,-0.6750065,-0.2154276
5.4335629999999995,-0.6750065,-0.2154276
8.870830999999999,-0.6079846,-1.4122477
8.870830999999999,-0.6079846,-1.4122477
8.870830999999999,-0.6079846,-1.4122477
8.870830999999999,-0.6079846,-1.4122477
14.558119,-0.77075213,-1.3452256999999999
14.558119,-0.77075213,-1.3452256999999999
14.558119,-0.77075213,-1.3452256999999999
14.558119,-0.77075213,-1.3452256999999999
15.209189000000002,-1.5558661,-1.2877783999999999
15.209189000000002,-1.5558661,-1.2877783999999999
15.209189000000002,-1.5558661,-1.2877783999999999
15.209189000000002,-1.5558661,-1.2877783999999999
10.709146,-2.254809,1.5558661
10.709146,-2.254809,1.5558661
10.709146,-2.254809,1.5558661
10.709146,-2.254809,1.5558661
10.709146,-2.254809,1.5558661
9.043172,-0.98139244,1.776081
9.043172,-0.98139244,1.776081
9.043172,-0.98139244,1.776081
4.6675982000000005,0.081383765,2.1207652
4.6675982000000005,0.081383765,2.1207652
4.6675982000000005,0.081383765,2.1207652
4.6675982000000005,0.081383765,2.1207652
6.467615599999999,-1.6611862000000002,0.42606795
6.467615599999999,-1.6611862000000002,0.42606795
6.467615599999999,-1.6611862000000002,0.42606795
6.467615599999999,-1.6611862000000002,0.42606795
6.467615599999999,-1.6611862000000002,0.42606795
11.685751,-3.4995019999999997,0.34947145
11.685751,-3.4995019999999997,0.34947145
11.685751,-3.4995019999999997,0.34947145
15.343232999999998,-3.6335455999999997,1.0579889
15.343232999999998,-3.6335455999999997,1.0579889
15.343232999999998,-3.6335455999999997,1.0579889
15.343232999999998,-3.6335455999999997,1.0579889
14.778334,-2.254809,2.321831
14.778334,-2.254809,2.321831
14.778334,-2.254809,2.321831
14.778334,-2.254809,2.321831
10.843189,-1.1250108,1.0771381000000002
10.843189,-1.1250108,1.0771381000000002
10.843189,-1.1250108,1.0771381000000002
10.843189,-1.1250108,1.0771381000000002
12.557036,-2.3697037999999995,-0.91437054
12.557036,-2.3697037999999995,-0.91437054
12.557036,-2.3697037999999995,-0.91437054
12.557036,-2.3697037999999995,-0.91437054
6.9654926999999995,-1.3356511999999998,-0.19627848
6.9654926999999995,-1.3356511999999998,-0.19627848
6.9654926999999995,-1.3356511999999998,-0.19627848
6.9654926999999995,-1.3356511999999998,-0.19627848
4.619725,-0.8090504,0.17712937
4.619725,-0.8090504,0.17712937
4.619725,-0.8090504,0.17712937
4.619725,-0.8090504,0.17712937
4.619725,-0.8090504,0.17712937
6.170804,-1.0771381000000002,-1.4601203999999999
6.170804,-1.0771381000000002,-1.4601203999999999
6.170804,-1.0771381000000002,-1.4601203999999999
12.499589,-1.4792696,-1.2686293
12.499589,-1.4792696,-1.2686293
12.499589,-1.4792696,-1.2686293
12.499589,-1.4792696,-1.2686293
13.485767999999998,-0.8856468000000001,-0.42606795
13.485767999999998,-0.8856468000000001,-0.42606795
13.485767999999998,-0.8856468000000001,-0.42606795
13.485767999999998,-0.8856468000000001,-0.42606795
13.485767999999998,-0.8856468000000001,-0.42606795
12.154904,-1.1250108,0.7420284
12.154904,-1.1250108,0.7420284
12.154904,-1.1250108,0.7420284
10.278291000000001,-2.5994933,2.015445
10.278291000000001,-2.5994933,2.015445
10.278291000000001,-2.5994933,2.015445
10.278291000000001,-2.5994933,2.015445
7.587839,-0.8473485999999999,1.2686293
7.587839,-0.8473485999999999,1.2686293
7.587839,-0.8473485999999999,1.2686293
7.587839,-0.8473485999999999,1.2686293
7.587839,-0.8473485999999999,1.2686293
6.8888964999999995,-0.48351530000000004,1.3165021000000001
6.8888964999999995,-0.48351530000000004,1.3165021000000001
6.8888964999999995,-0.48351530000000004,1.3165021000000001
7.961247,-2.6186423,1.3643749
7.961247,-2.6186423,1.3643749
7.961247,-2.6186423,1.3643749
7.961247,-2.6186423,1.3643749
14.002794,-3.9686553,1.14416
14.002794,-3.9686553,1.14416
14.002794,-3.9686553,1.14416
14.002794,-3.9686553,1.14416
14.002794,-3.9686553,1.14416
15.381532,-3.2792869,1.6324625
15.381532,-3.2792869,1.6324625
15.381532,-3.2792869,1.6324625
15.381532,-3.2792869,1.6324625
13.045339,-1.6994845,2.2835326
13.045339,-1.6994845,2.2835326
13.045339,-1.6994845,2.2835326
12.442142,-3.2026904,-0.023936402000000002
12.442142,-3.2026904,-0.023936402000000002
12.442142,-3.2026904,-0.023936402000000002
12.442142,-3.2026904,-0.023936402000000002
12.442142,-3.2026904,-0.023936402000000002
10.144247,-2.2643836,-0.71330476
10.144247,-2.2643836,-0.71330476
10.144247,-2.2643836,-0.71330476
10.144247,-2.2643836,-0.71330476
6.0750585,-0.54096264,0.37819514
6.0750585,-0.54096264,0.37819514
6.0750585,-0.54096264,0.37819514
6.438892,1.2877783999999999,-0.8473485999999999
6.438892,1.2877783999999999,-0.8473485999999999
6.438892,1.2877783999999999,-0.8473485999999999
6.438892,1.2877783999999999,-0.8473485999999999
6.438892,1.2877783999999999,-0.8473485999999999
7.089962,-0.8090504,-2.0250196
7.089962,-0.8090504,-2.0250196
7.089962,-0.8090504,-2.0250196
7.089962,-0.8090504,-2.0250196
13.983645000000001,-1.2399056,-1.4601203999999999
13.983645000000001,-1.2399056,-1.4601203999999999
13.983645000000001,-1.2399056,-1.4601203999999999
14.787908999999999,-1.6420371999999999,-0.69415563
14.787908999999999,-1.6420371999999999,-0.69415563
14.787908999999999,-1.6420371999999999,-0.69415563
14.787908999999999,-1.6420371999999999,-0.69415563
14.787908999999999,-1.6420371999999999,-0.69415563
11.475111,-1.6037389,2.4750240000000003
11.475111,-1.6037389,2.4750240000000003
11.475111,-1.6037389,2.4750240000000003
11.475111,-1.6037389,2.4750240000000003
9.474028,-1.7665064,0.85692316
9.474028,-1.7665064,0.85692316
9.474028,-1.7665064,0.85692316
9.474028,-1.7665064,0.85692316
5.4718614,-0.3398969,1.469695
5.4718614,-0.3398969,1.469695
5.4718614,-0.3398969,1.469695
5.4718614,-0.3398969,1.469695
6.668680999999999,-1.8239537000000001,1.8431028999999999
6.668680999999999,-1.8239537000000001,1.8431028999999999
6.668680999999999,-1.8239537000000001,1.8431028999999999
6.668680999999999,-1.8239537000000001,1.8431028999999999
11.972988,-2.7431116,1.2494801000000002
11.972988,-2.7431116,1.2494801000000002
11.972988,-2.7431116,1.2494801000000002
11.972988,-2.7431116,1.2494801000000002
16.224092000000002,-3.5090763999999997,1.5462915000000002
16.224092000000002,-3.5090763999999997,1.5462915000000002
16.224092000000002,-3.5090763999999997,1.5462915000000002
16.224092000000002,-3.5090763999999997,1.5462915000000002
14.510245999999999,-2.513322,1.6803354
14.510245999999999,-2.513322,1.6803354
14.510245999999999,-2.513322,1.6803354
14.510245999999999,-2.513322,1.6803354
11.800646,-1.6899098999999997,0.44521707
11.800646,-1.6899098999999997,0.44521707
11.800646,-1.6899098999999997,0.44521707
11.800646,-1.6899098999999997,0.44521707
10.517653999999999,-2.2835326,-0.39734426
10.517653999999999,-2.2835326,-0.39734426
10.517653999999999,-2.2835326,-0.39734426
10.517653999999999,-2.2835326,-0.39734426
4.811217,-1.3452256999999999,0.50266445
4.811217,-1.3452256999999999,0.50266445
4.811217,-1.3452256999999999,0.50266445
4.811217,-1.3452256999999999,0.50266445
5.376116000000001,-0.8090504,-0.7420284
5.376116000000001,-0.8090504,-0.7420284
5.376116000000001,-0.8090504,-0.7420284
5.376116000000001,-0.8090504,-0.7420284
8.478273,-1.2590546999999999,-1.4026731000000001
8.478273,-1.2590546999999999,-1.4026731000000001
8.478273,-1.2590546999999999,-1.4026731000000001
8.478273,-1.2590546999999999,-1.4026731000000001
14.041093,-1.5654407,-0.7994758000000001
14.041093,-1.5654407,-0.7994758000000001
14.041093,-1.5654407,-0.7994758000000001
14.041093,-1.5654407,-0.7994758000000001
16.530479999999997,-0.78990126,-1.5750152
16.530479999999997,-0.78990126,-1.5750152
16.530479999999997,-0.78990126,-1.5750152
16.530479999999997,-0.78990126,-1.5750152
8.688913000000001,-2.5994933,1.6133133999999998
8.688913000000001,-2.5994933,1.6133133999999998
8.688913000000001,-2.5994933,1.6133133999999998
8.688913000000001,-2.5994933,1.6133133999999998
9.5219,-1.8526775000000002,1.7665064
9.5219,-1.8526775000000002,1.7665064
9.5219,-1.8526775000000002,1.7665064
9.5219,-1.8526775000000002,1.7665064
5.3186684,0.37819514,1.5079931999999998
5.3186684,0.37819514,1.5079931999999998
5.3186684,0.37819514,1.5079931999999998
5.3186684,0.37819514,1.5079931999999998
5.7495236,-0.43564250000000004,1.2399056
5.7495236,-0.43564250000000004,1.2399056
5.7495236,-0.43564250000000004,1.2399056
5.7495236,-0.43564250000000004,1.2399056
10.527229,-3.8920587999999996,0.8760723
10.527229,-3.8920587999999996,0.8760723
10.527229,-3.8920587999999996,0.8760723
10.527229,-3.8920587999999996,0.8760723
10.527229,-3.8920587999999996,0.8760723
14.376203,-4.303765,1.6994845
14.376203,-4.303765,1.6994845
14.376203,-4.303765,1.6994845
15.103869,-3.3175852,0.9622433000000001
15.103869,-3.3175852,0.9622433000000001
15.103869,-3.3175852,0.9622433000000001
15.103869,-3.3175852,0.9622433000000001
12.126180999999999,-2.2165107999999996,0.26330042
12.126180999999999,-2.2165107999999996,0.26330042
12.126180999999999,-2.2165107999999996,0.26330042
12.126180999999999,-2.2165107999999996,0.26330042
12.126180999999999,-2.2165107999999996,0.26330042
13.428320999999999,-3.0207740000000003,-0.34947145
13.428320999999999,-3.0207740000000003,-0.34947145
13.428320999999999,-3.0207740000000003,-0.34947145
7.1474094,-1.8814011999999998,0.7420284
7.1474094,-1.8814011999999998,0.7420284
7.1474094,-1.8814011999999998,0.7420284
7.1474094,-1.8814011999999998,0.7420284
4.1888704,-0.751603,0.5313880999999999
4.1888704,-0.751603,0.5313880999999999
4.1888704,-0.751603,0.5313880999999999
4.1888704,-0.751603,0.5313880999999999
4.1888704,-0.751603,0.5313880999999999
5.2707953000000005,-0.91437054,-1.7569318999999999
5.2707953000000005,-0.91437054,-1.7569318999999999
5.2707953000000005,-0.91437054,-1.7569318999999999
9.531475,-0.8952214,-1.8239537000000001
9.531475,-0.8952214,-1.8239537000000001
9.531475,-0.8952214,-1.8239537000000001
9.531475,-0.8952214,-1.8239537000000001
15.438979000000002,-1.3069274,-0.8186249
15.438979000000002,-1.3069274,-0.8186249
15.438979000000002,-1.3069274,-0.8186249
15.438979000000002,-1.3069274,-0.8186249
15.438979000000002,-1.3069274,-0.8186249
14.414501000000001,-2.1590632999999997,0.18670394
14.414501000000001,-2.1590632999999997,0.18670394
14.414501000000001,-2.1590632999999997,0.18670394
14.414501000000001,-2.1590632999999997,0.18670394
10.699572,-2.5420458,3.1165195
10.699572,-2.5420458,3.1165195
10.699572,-2.5420458,3.1165195
7.319751299999999,-0.49308985,1.4122477
7.319751299999999,-0.49308985,1.4122477
7.319751299999999,-0.49308985,1.4122477
7.319751299999999,-0.49308985,1.4122477
7.319751299999999,-0.49308985,1.4122477
5.031431700000001,0.42606795,1.2207563999999997
5.031431700000001,0.42606795,1.2207563999999997
5.031431700000001,0.42606795,1.2207563999999997
5.031431700000001,0.42606795,1.2207563999999997
8.095291,-2.360129,0.27287498
8.095291,-2.360129,0.27287498
8.095291,-2.360129,0.27287498
12.432567,-4.409085299999999,0.6558574
12.432567,-4.409085299999999,0.6558574
12.432567,-4.409085299999999,0.6558574
12.432567,-4.409085299999999,0.6558574
12.432567,-4.409085299999999,0.6558574
14.740035999999998,-3.5665237999999997,1.2111819
14.740035999999998,-3.5665237999999997,1.2111819
14.740035999999998,-3.5665237999999997,1.2111819
14.740035999999998,-3.5665237999999997,1.2111819
13.945347,-1.8526775000000002,1.8335283
13.945347,-1.8526775000000002,1.8335283
13.945347,-1.8526775000000002,1.8335283
12.116607,-1.5175678999999997,0.34947145
12.116607,-1.5175678999999997,0.34947145
12.116607,-1.5175678999999997,0.34947145
12.116607,-1.5175678999999997,0.34947145
12.116607,-1.5175678999999997,0.34947145
10.584677000000001,-2.5228968,-0.6271336999999999
10.584677000000001,-2.5228968,-0.6271336999999999
10.584677000000001,-2.5228968,-0.6271336999999999
10.584677000000001,-2.5228968,-0.6271336999999999
5.519734,-1.2303311000000001,0.081383765
5.519734,-1.2303311000000001,0.081383765
5.519734,-1.2303311000000001,0.081383765
5.519734,-1.2303311000000001,0.081383765
5.1367517,-0.43564250000000004,-0.70373017
5.1367517,-0.43564250000000004,-0.70373017
5.1367517,-0.43564250000000004,-0.70373017
8.028269,-0.7420284,-0.92394507
8.028269,-0.7420284,-0.92394507
8.028269,-0.7420284,-0.92394507
8.028269,-0.7420284,-0.92394507
8.028269,-0.7420284,-0.92394507
14.088965,-0.71330476,-0.36862057
14.088965,-0.71330476,-0.36862057
14.088965,-0.71330476,-0.36862057
14.088965,-0.71330476,-0.36862057
15.180466000000001,-0.37819514,-0.4164934
15.180466000000001,-0.37819514,-0.4164934
15.180466000000001,-0.37819514,-0.4164934
10.498505999999999,-3.1835412999999995,1.6803354
10.498505999999999,-3.1835412999999995,1.6803354
10.498505999999999,-3.1835412999999995,1.6803354
10.498505999999999,-3.1835412999999995,1.6803354
10.498505999999999,-3.1835412999999995,1.6803354
10.498505999999999,-3.1835412999999995,1.6803354
10.498505999999999,-3.1835412999999995,1.6803354
10.498505999999999,-3.1835412999999995,1.6803354
5.347392,0.5888355,1.2494801000000002
5.347392,0.5888355,1.2494801000000002
5.347392,0.5888355,1.2494801000000002
5.347392,0.5888355,1.2494801000000002
5.835694999999999,-0.27287498,1.3260766000000002
5.835694999999999,-0.27287498,1.3260766000000002
5.835694999999999,-0.27287498,1.3260766000000002
5.835694999999999,-0.27287498,1.3260766000000002
5.835694999999999,-0.27287498,1.3260766000000002
11.15915,-4.3707867,0.61755913
11.15915,-4.3707867,0.61755913
11.15915,-4.3707867,0.61755913
14.586843,-4.4952559999999995,1.0292653
14.586843,-4.4952559999999995,1.0292653
14.586843,-4.4952559999999995,1.0292653
14.586843,-4.4952559999999995,1.0292653
14.826207,-2.9537517999999996,1.6611862000000002
14.826207,-2.9537517999999996,1.6611862000000002
14.826207,-2.9537517999999996,1.6611862000000002
14.826207,-2.9537517999999996,1.6611862000000002
14.826207,-2.9537517999999996,1.6611862000000002
11.905966000000001,-1.7665064,0.6079846
11.905966000000001,-1.7665064,0.6079846
11.905966000000001,-1.7665064,0.6079846
12.719804,-2.5037475,-0.83777404
12.719804,-2.5037475,-0.83777404
12.719804,-2.5037475,-0.83777404
12.719804,-2.5037475,-0.83777404
6.094208,-1.5750152,0.64628285
6.094208,-1.5750152,0.64628285
6.094208,-1.5750152,0.64628285
6.094208,-1.5750152,0.64628285
6.094208,-1.5750152,0.64628285
4.696322,-1.0292653,0.26330042
4.696322,-1.0292653,0.26330042
4.696322,-1.0292653,0.26330042
4.696322,-1.0292653,0.26330042
6.285699,-0.9430941999999999,-1.5175678999999997
6.285699,-0.9430941999999999,-1.5175678999999997
6.285699,-0.9430941999999999,-1.5175678999999997
11.7049,-1.4218222,-0.64628285
11.7049,-1.4218222,-0.64628285
11.7049,-1.4218222,-0.64628285
11.7049,-1.4218222,-0.64628285
11.7049,-1.4218222,-0.64628285
13.744282,-1.5462915000000002,0.3398969
13.744282,-1.5462915000000002,0.3398969
13.744282,-1.5462915000000002,0.3398969
13.744282,-1.5462915000000002,0.3398969
13.658110999999998,-1.1345854,0.6845810999999999
13.658110999999998,-1.1345854,0.6845810999999999
13.658110999999998,-1.1345854,0.6845810999999999
10.680422,-2.0728923999999997,2.4558747000000003
10.680422,-2.0728923999999997,2.4558747000000003
10.680422,-2.0728923999999997,2.4558747000000003
10.680422,-2.0728923999999997,2.4558747000000003
10.680422,-2.0728923999999997,2.4558747000000003
6.630383,-0.26330042,1.2494801000000002
6.630383,-0.26330042,1.2494801000000002
6.630383,-0.26330042,1.2494801000000002
6.630383,-0.26330042,1.2494801000000002
5.2133484,-0.56011176,1.2494801000000002
5.2133484,-0.56011176,1.2494801000000002
5.2133484,-0.56011176,1.2494801000000002
8.152739,-2.561195,0.26330042
8.152739,-2.561195,0.26330042
8.152739,-2.561195,0.26330042
8.152739,-2.561195,0.26330042
8.152739,-2.561195,0.26330042
13.964497,-3.604822,0.5505372
13.964497,-3.604822,0.5505372
13.964497,-3.604822,0.5505372
13.964497,-3.604822,0.5505372
14.730460999999998,-2.8963046,1.4984187
14.730460999999998,-2.8963046,1.4984187
14.730460999999998,-2.8963046,1.4984187
14.730460999999998,-2.8963046,1.4984187
13.112360999999998,-1.948423,1.6420371999999999
13.112360999999998,-1.948423,1.6420371999999999
13.112360999999998,-1.948423,1.6420371999999999
13.112360999999998,-1.948423,1.6420371999999999
12.604909,-2.5324712000000003,-0.5505372
12.604909,-2.5324712000000003,-0.5505372
12.604909,-2.5324712000000003,-0.5505372
12.604909,-2.5324712000000003,-0.5505372
8.746361,-1.9388485,-0.40691882
8.746361,-1.9388485,-0.40691882
8.746361,-1.9388485,-0.40691882
8.746361,-1.9388485,-0.40691882
5.2037735000000005,-0.751603,0.56968635
5.2037735000000005,-0.751603,0.56968635
5.2037735000000005,-0.751603,0.56968635
5.2037735000000005,-0.751603,0.56968635
6.467615599999999,-0.359046,-0.7228793
6.467615599999999,-0.359046,-0.7228793
6.467615599999999,-0.359046,-0.7228793
6.467615599999999,-0.359046,-0.7228793
8.918703,-1.0101161,-1.4888442
8.918703,-1.0101161,-1.4888442
8.918703,-1.0101161,-1.4888442
8.918703,-1.0101161,-1.4888442
14.021944,-1.6611862000000002,-0.7324539000000001
14.021944,-1.6611862000000002,-0.7324539000000001
14.021944,-1.6611862000000002,-0.7324539000000001
14.500670999999999,-1.3643749,-0.12925656
14.500670999999999,-1.3643749,-0.12925656
14.500670999999999,-1.3643749,-0.12925656
14.500670999999999,-1.3643749,-0.12925656
14.500670999999999,-1.3643749,-0.12925656
10.441058,-2.0537431,2.408002
10.441058,-2.0537431,2.408002
10.441058,-2.0537431,2.408002
10.441058,-2.0537431,2.408002
8.066567,-0.2920241,1.8239537000000001
8.066567,-0.2920241,1.8239537000000001
8.066567,-0.2920241,1.8239537000000001
8.066567,-0.2920241,1.8239537000000001
4.3803616,0.13883112,1.1345854
4.3803616,0.13883112,1.1345854
4.3803616,0.13883112,1.1345854
4.3803616,0.13883112,1.1345854
7.6452865999999995,-2.1877869999999997,0.7324539000000001
7.6452865999999995,-2.1877869999999997,0.7324539000000001
7.6452865999999995,-2.1877869999999997,0.7324539000000001
7.6452865999999995,-2.1877869999999997,0.7324539000000001
12.480439,-4.294190400000001,0.99096704
12.480439,-4.294190400000001,0.99096704
12.480439,-4.294190400000001,0.99096704
12.480439,-4.294190400000001,0.99096704
14.519820999999999,-3.2984362000000003,1.6611862000000002
14.519820999999999,-3.2984362000000003,1.6611862000000002
14.519820999999999,-3.2984362000000003,1.6611862000000002
14.519820999999999,-3.2984362000000003,1.6611862000000002
15.151742,-3.4037561000000003,1.6803354
15.151742,-3.4037561000000003,1.6803354
15.151742,-3.4037561000000003,1.6803354
15.151742,-3.4037561000000003,1.6803354
12.58576,-2.6377914000000002,0.110107444
12.58576,-2.6377914000000002,0.110107444
12.58576,-2.6377914000000002,0.110107444
12.58576,-2.6377914000000002,0.110107444
11.235746,-2.3505547000000004,-0.63670826
11.235746,-2.3505547000000004,-0.63670826
11.235746,-2.3505547000000004,-0.63670826
11.235746,-2.3505547000000004,-0.63670826
6.151655,-0.8473485999999999,0.98139244
6.151655,-0.8473485999999999,0.98139244
6.151655,-0.8473485999999999,0.98139244
6.151655,-0.8473485999999999,0.98139244
5.3378177,-0.6750065,-0.11968201
5.3378177,-0.6750065,-0.11968201
5.3378177,-0.6750065,-0.11968201
5.3378177,-0.6750065,-0.11968201
7.4920936000000005,-1.2016073,-1.2303311000000001
7.4920936000000005,-1.2016073,-1.2303311000000001
7.4920936000000005,-1.2016073,-1.2303311000000001
7.4920936000000005,-1.2016073,-1.2303311000000001
7.4920936000000005,-1.2016073,-1.2303311000000001
12.011286,-0.8090504,-0.50266445
12.011286,-0.8090504,-0.50266445
12.011286,-0.8090504,-0.50266445
14.730460999999998,-0.25372586,-0.665432
14.730460999999998,-0.25372586,-0.665432
14.730460999999998,-0.25372586,-0.665432
14.730460999999998,-0.25372586,-0.665432
10.670848,-2.5037475,0.6079846
10.670848,-2.5037475,0.6079846
10.670848,-2.5037475,0.6079846
10.670848,-2.5037475,0.6079846
10.670848,-2.5037475,0.6079846
10.938935,-2.168638,1.7473572
10.938935,-2.168638,1.7473572
10.938935,-2.168638,1.7473572
6.3622955999999995,-0.33032233,0.44521707
6.3622955999999995,-0.33032233,0.44521707
6.3622955999999995,-0.33032233,0.44521707
6.3622955999999995,-0.33032233,0.44521707
5.644203,-0.36862057,1.14416
5.644203,-0.36862057,1.14416
5.644203,-0.36862057,1.14416
5.644203,-0.36862057,1.14416
9.397431,-3.4324798999999997,0.8760723
9.397431,-3.4324798999999997,0.8760723
9.397431,-3.4324798999999997,0.8760723
9.397431,-3.4324798999999997,0.8760723
14.567694,-3.7388659,1.0484143
14.567694,-3.7388659,1.0484143
14.567694,-3.7388659,1.0484143
14.567694,-3.7388659,1.0484143
14.740035999999998,-2.6760897999999997,1.6324625
14.740035999999998,-2.6760897999999997,1.6324625
14.740035999999998,-2.6760897999999997,1.6324625
14.740035999999998,-2.6760897999999997,1.6324625
12.068733,-1.5175678999999997,1.8814011999999998
12.068733,-1.5175678999999997,1.8814011999999998
12.068733,-1.5175678999999997,1.8814011999999998
12.068733,-1.5175678999999997,1.8814011999999998
12.068733,-1.5175678999999997,1.8814011999999998
12.69108,-2.2835326,-0.44521707
12.69108,-2.2835326,-0.44521707
12.69108,-2.2835326,-0.44521707
9.004874000000001,-2.513322,-0.45479164
9.004874000000001,-2.513322,-0.45479164
9.004874000000001,-2.513322,-0.45479164
9.004874000000001,-2.513322,-0.45479164
5.5101595,-0.7228793,0.512239
5.5101595,-0.7228793,0.512239
5.5101595,-0.7228793,0.512239
5.5101595,-0.7228793,0.512239
5.5101595,-0.7228793,0.512239
6.2761245,-0.751603,-0.59841
6.2761245,-0.751603,-0.59841
6.2761245,-0.751603,-0.59841
9.339984,-1.0388398,-1.0771381000000002
9.339984,-1.0388398,-1.0771381000000002
9.339984,-1.0388398,-1.0771381000000002
9.339984,-1.0388398,-1.0771381000000002
13.562365,-0.90479594,-0.34947145
13.562365,-0.90479594,-0.34947145
13.562365,-0.90479594,-0.34947145
13.562365,-0.90479594,-0.34947145
13.562365,-0.90479594,-0.34947145
14.443225,-1.4026731000000001,-0.25372586
14.443225,-1.4026731000000001,-0.25372586
14.443225,-1.4026731000000001,-0.25372586
9.41658,-2.7048132000000003,1.8239537000000001
9.41658,-2.7048132000000003,1.8239537000000001
9.41658,-2.7048132000000003,1.8239537000000001
9.41658,-2.7048132000000003,1.8239537000000001
8.928278,-0.99096704,1.1345854
8.928278,-0.99096704,1.1345854
8.928278,-0.99096704,1.1345854
8.928278,-0.99096704,1.1345854
8.928278,-0.99096704,1.1345854
6.218677,0.043085523,0.9622433000000001
6.218677,0.043085523,0.9622433000000001
6.218677,0.043085523,0.9622433000000001
6.218677,0.043085523,0.9622433000000001
7.195282000000001,-1.383524,0.7420284
7.195282000000001,-1.383524,0.7420284
7.195282000000001,-1.383524,0.7420284
10.431483,-3.518651,0.5888355
10.431483,-3.518651,0.5888355
10.431483,-3.518651,0.5888355
10.431483,-3.518651,0.5888355
10.431483,-3.518651,0.5888355
15.496426000000001,-3.2218397000000003,1.1633091
15.496426000000001,-3.2218397000000003,1.1633091
15.496426000000001,-3.2218397000000003,1.1633091
15.496426000000001,-3.2218397000000003,1.1633091
14.998548499999998,-2.427151,1.8909756999999998
14.998548499999998,-2.427151,1.8909756999999998
14.998548499999998,-2.427151,1.8909756999999998
11.800646,-1.9292740000000002,0.512239
11.800646,-1.9292740000000002,0.512239
11.800646,-1.9292740000000002,0.512239
11.800646,-1.9292740000000002,0.512239
11.800646,-1.9292740000000002,0.512239
10.699572,-2.1303396,-1.1633091
10.699572,-2.1303396,-1.1633091
10.699572,-2.1303396,-1.1633091
10.699572,-2.1303396,-1.1633091
5.7016506,-1.4984187,0.110107444
5.7016506,-1.4984187,0.110107444
5.7016506,-1.4984187,0.110107444
4.9739842,-0.665432,-0.10053288
4.9739842,-0.665432,-0.10053288
4.9739842,-0.665432,-0.10053288
4.9739842,-0.665432,-0.10053288
4.9739842,-0.665432,-0.10053288
7.616563,-0.78032666,-1.6994845
7.616563,-0.78032666,-1.6994845
7.616563,-0.78032666,-1.6994845
7.616563,-0.78032666,-1.6994845
13.744282,-1.3260766000000002,-1.7665064
13.744282,-1.3260766000000002,-1.7665064
13.744282,-1.3260766000000002,-1.7665064
13.744282,-1.3260766000000002,-1.7665064
16.185795000000002,-0.32074776,-2.34098
16.185795000000002,-0.32074776,-2.34098
16.185795000000002,-0.32074776,-2.34098
16.185795000000002,-0.32074776,-2.34098
10.038927000000001,-1.0867126,0.18670394
10.038927000000001,-1.0867126,0.18670394
10.038927000000001,-1.0867126,0.18670394
10.038927000000001,-1.0867126,0.18670394
10.670848,-0.8090504,1.776081
10.670848,-0.8090504,1.776081
10.670848,-0.8090504,1.776081
10.670848,-0.8090504,1.776081
6.2282515,1.8143792,3.078221
6.2282515,1.8143792,3.078221
6.2282515,1.8143792,3.078221
6.2282515,1.8143792,3.078221
6.0559096,-0.85692316,2.88673
6.0559096,-0.85692316,2.88673
6.0559096,-0.85692316,2.88673
6.0559096,-0.85692316,2.88673
8.957002000000001,-3.3941817000000003,-0.78990126
8.957002000000001,-3.3941817000000003,-0.78990126
8.957002000000001,-3.3941817000000003,-0.78990126
8.957002000000001,-3.3941817000000003,-0.78990126
13.447470000000001,-2.9537517999999996,-0.2920241
13.447470000000001,-2.9537517999999996,-0.2920241
13.447470000000001,-2.9537517999999996,-0.2920241
13.447470000000001,-2.9537517999999996,-0.2920241
13.457045,-2.513322,1.1154363
13.457045,-2.513322,1.1154363
13.457045,-2.513322,1.1154363
13.457045,-2.513322,1.1154363
12.011286,-2.6282167000000003,0.83777404
12.011286,-2.6282167000000003,0.83777404
12.011286,-2.6282167000000003,0.83777404
12.011286,-2.6282167000000003,0.83777404
12.892146,-3.3367343000000003,-1.1345854
12.892146,-3.3367343000000003,-1.1345854
12.892146,-3.3367343000000003,-1.1345854
12.892146,-3.3367343000000003,-1.1345854
8.21976,-2.0441686999999997,-0.46436617
8.21976,-2.0441686999999997,-0.46436617
8.21976,-2.0441686999999997,-0.46436617
8.21976,-2.0441686999999997,-0.46436617
4.5622783,-0.78032666,0.8664976999999999
4.5622783,-0.78032666,0.8664976999999999
4.5622783,-0.78032666,0.8664976999999999
4.5622783,-0.78032666,0.8664976999999999
5.960164,-0.5218136,-0.7324539000000001
5.960164,-0.5218136,-0.7324539000000001
5.960164,-0.5218136,-0.7324539000000001
5.960164,-0.5218136,-0.7324539000000001
11.36979,-1.1633091,-1.0101161
11.36979,-1.1633091,-1.0101161
11.36979,-1.1633091,-1.0101161
11.36979,-1.1633091,-1.0101161
15.419829,-0.56968635,-0.8856468000000001
15.419829,-0.56968635,-0.8856468000000001
15.419829,-0.56968635,-0.8856468000000001
15.419829,-0.56968635,-0.8856468000000001
12.509163000000001,-1.6611862000000002,-0.09095833
12.509163000000001,-1.6611862000000002,-0.09095833
12.509163000000001,-1.6611862000000002,-0.09095833
12.509163000000001,-1.6611862000000002,-0.09095833
9.703816999999999,-2.6856642,1.8909756999999998
9.703816999999999,-2.6856642,1.8909756999999998
9.703816999999999,-2.6856642,1.8909756999999998
9.703816999999999,-2.6856642,1.8909756999999998
9.703816999999999,-2.6856642,1.8909756999999998
7.8846507,-0.043085523,0.63670826
7.8846507,-0.043085523,0.63670826
7.8846507,-0.043085523,0.63670826
5.778247400000001,0.61755913,1.1250108
5.778247400000001,0.61755913,1.1250108
5.778247400000001,0.61755913,1.1250108
5.778247400000001,0.61755913,1.1250108
7.377198700000001,-2.015445,0.062234644000000006
7.377198700000001,-2.015445,0.062234644000000006
7.377198700000001,-2.015445,0.062234644000000006
7.377198700000001,-2.015445,0.062234644000000006
7.377198700000001,-2.015445,0.062234644000000006
11.676176,-3.8633351,0.023936402000000002
11.676176,-3.8633351,0.023936402000000002
11.676176,-3.8633351,0.023936402000000002
15.429404000000002,-4.045252,0.8186249
15.429404000000002,-4.045252,0.8186249
15.429404000000002,-4.045252,0.8186249
15.429404000000002,-4.045252,0.8186249
14.347479000000002,-1.9005502,2.0441686999999997
14.347479000000002,-1.9005502,2.0441686999999997
14.347479000000002,-1.9005502,2.0441686999999997
14.347479000000002,-1.9005502,2.0441686999999997
14.347479000000002,-1.9005502,2.0441686999999997
12.537887,-1.6994845,0.33032233
12.537887,-1.6994845,0.33032233
12.537887,-1.6994845,0.33032233
10.919786,-2.4845984,-0.93351966
10.919786,-2.4845984,-0.93351966
10.919786,-2.4845984,-0.93351966
10.919786,-2.4845984,-0.93351966
4.945260500000001,-1.4313968000000001,0.03351096
4.945260500000001,-1.4313968000000001,0.03351096
4.945260500000001,-1.4313968000000001,0.03351096
4.945260500000001,-1.4313968000000001,0.03351096
5.6154795,-0.69415563,-0.48351530000000004
5.6154795,-0.69415563,-0.48351530000000004
5.6154795,-0.69415563,-0.48351530000000004
5.6154795,-0.69415563,-0.48351530000000004
7.377198700000001,-0.56011176,-0.91437054
7.377198700000001,-0.56011176,-0.91437054
7.377198700000001,-0.56011176,-0.91437054
7.377198700000001,-0.56011176,-0.91437054
13.476192999999999,-0.45479164,-1.2399056
13.476192999999999,-0.45479164,-1.2399056
13.476192999999999,-0.45479164,-1.2399056
13.476192999999999,-0.45479164,-1.2399056
15.975154000000002,-0.69415563,-1.3930986
15.975154000000002,-0.69415563,-1.3930986
15.975154000000002,-0.69415563,-1.3930986
15.975154000000002,-0.69415563,-1.3930986
9.7899885,-2.2931072999999995,0.59841
9.7899885,-2.2931072999999995,0.59841
9.7899885,-2.2931072999999995,0.59841
11.216598,-1.8909756999999998,1.9292740000000002
11.216598,-1.8909756999999998,1.9292740000000002
11.216598,-1.8909756999999998,1.9292740000000002
11.216598,-1.8909756999999998,1.9292740000000002
11.216598,-1.8909756999999998,1.9292740000000002
6.180379,0.83777404,2.0728923999999997
6.180379,0.83777404,2.0728923999999997
6.180379,0.83777404,2.0728923999999997
5.49101,-0.6750065,0.9718179
5.49101,-0.6750065,0.9718179
5.49101,-0.6750065,0.9718179
5.49101,-0.6750065,0.9718179
9.292110000000001,-3.4229053999999994,-0.49308985
9.292110000000001,-3.4229053999999994,-0.49308985
9.292110000000001,-3.4229053999999994,-0.49308985
9.292110000000001,-3.4229053999999994,-0.49308985
14.251732999999998,-3.6143966,0.44521707
14.251732999999998,-3.6143966,0.44521707
14.251732999999998,-3.6143966,0.44521707
14.251732999999998,-3.6143966,0.44521707
16.09005,-3.3558834,1.2111819
16.09005,-3.3558834,1.2111819
16.09005,-3.3558834,1.2111819
16.09005,-3.3558834,1.2111819
16.09005,-3.3558834,1.2111819
16.09005,-3.3558834,1.2111819
16.09005,-3.3558834,1.2111819
16.09005,-3.3558834,1.2111819
11.26447,-2.168638,-0.110107444
11.26447,-2.168638,-0.110107444
11.26447,-2.168638,-0.110107444
11.26447,-2.168638,-0.110107444
9.531475,-1.8239537000000001,-0.00478728
9.531475,-1.8239537000000001,-0.00478728
9.531475,-1.8239537000000001,-0.00478728
9.531475,-1.8239537000000001,-0.00478728
4.993133,0.18670394,0.39734426
4.993133,0.18670394,0.39734426
4.993133,0.18670394,0.39734426
4.993133,0.18670394,0.39734426
5.2516465,-0.014361841,-0.5313880999999999
5.2516465,-0.014361841,-0.5313880999999999
5.2516465,-0.014361841,-0.5313880999999999
5.2516465,-0.014361841,-0.5313880999999999
9.655944,-0.7420284,-1.2686293
9.655944,-0.7420284,-1.2686293
9.655944,-0.7420284,-1.2686293
9.655944,-0.7420284,-1.2686293
15.563448000000001,0.5792609000000001,-1.4792696
15.563448000000001,0.5792609000000001,-1.4792696
15.563448000000001,0.5792609000000001,-1.4792696
15.563448000000001,0.5792609000000001,-1.4792696
15.391106,0.43564250000000004,-1.2494801000000002
15.391106,0.43564250000000004,-1.2494801000000002
15.391106,0.43564250000000004,-1.2494801000000002
15.391106,0.43564250000000004,-1.2494801000000002
9.043172,-1.4601203999999999,1.0101161
9.043172,-1.4601203999999999,1.0101161
9.043172,-1.4601203999999999,1.0101161
7.463369999999999,0.081383765,0.8473485999999999
7.463369999999999,0.081383765,0.8473485999999999
7.463369999999999,0.081383765,0.8473485999999999
7.463369999999999,0.081383765,0.8473485999999999
6.065484,0.00478728,0.98139244
6.065484,0.00478728,0.98139244
6.065484,0.00478728,0.98139244
6.065484,0.00478728,0.98139244
6.065484,0.00478728,0.98139244
7.7793303,-1.3069274,0.45479164
7.7793303,-1.3069274,0.45479164
7.7793303,-1.3069274,0.45479164
11.810221,-2.1303396,0.42606795
11.810221,-2.1303396,0.42606795
11.810221,-2.1303396,0.42606795
11.810221,-2.1303396,0.42606795
15.046422,-2.6377914000000002,0.8664976999999999
15.046422,-2.6377914000000002,0.8664976999999999
15.046422,-2.6377914000000002,0.8664976999999999
15.046422,-2.6377914000000002,0.8664976999999999
13.964497,-2.4654493,1.7856555
13.964497,-2.4654493,1.7856555
13.964497,-2.4654493,1.7856555
13.964497,-2.4654493,1.7856555
13.964497,-2.4654493,1.7856555
10.211267999999999,-1.4505458999999998,1.1920328000000002
10.211267999999999,-1.4505458999999998,1.1920328000000002
10.211267999999999,-1.4505458999999998,1.1920328000000002
12.528313,-1.9101248,-0.44521707
12.528313,-1.9101248,-0.44521707
12.528313,-1.9101248,-0.44521707
12.528313,-1.9101248,-0.44521707
7.348475,-1.0196906,0.2154276
7.348475,-1.0196906,0.2154276
7.348475,-1.0196906,0.2154276
7.348475,-1.0196906,0.2154276
4.303765,-0.20585304,0.34947145
4.303765,-0.20585304,0.34947145
4.303765,-0.20585304,0.34947145
4.303765,-0.20585304,0.34947145
7.195282000000001,-0.14840569,-1.469695
7.195282000000001,-0.14840569,-1.469695
7.195282000000001,-0.14840569,-1.469695
7.195282000000001,-0.14840569,-1.469695
13.696407999999998,-0.6079846,-2.0058703
13.696407999999998,-0.6079846,-2.0058703
13.696407999999998,-0.6079846,-2.0058703
13.696407999999998,-0.6079846,-2.0058703
16.702820000000003,-0.9526688,-2.0537431
16.702820000000003,-0.9526688,-2.0537431
16.702820000000003,-0.9526688,-2.0537431
16.702820000000003,-0.9526688,-2.0537431
8.765511,-2.1303396,0.14840569
8.765511,-2.1303396,0.14840569
8.765511,-2.1303396,0.14840569
8.765511,-2.1303396,0.14840569
10.345312,-0.9718179,1.0484143
10.345312,-0.9718179,1.0484143
10.345312,-0.9718179,1.0484143
10.345312,-0.9718179,1.0484143
7.559115400000001,1.2207563999999997,1.2590546999999999
7.559115400000001,1.2207563999999997,1.2590546999999999
7.559115400000001,1.2207563999999997,1.2590546999999999
7.559115400000001,1.2207563999999997,1.2590546999999999
5.7208,0.22500217,1.8048046999999998
5.7208,0.22500217,1.8048046999999998
5.7208,0.22500217,1.8048046999999998
5.7208,0.22500217,1.8048046999999998
8.353804,-2.149489,0.6271336999999999
8.353804,-2.149489,0.6271336999999999
8.353804,-2.149489,0.6271336999999999
8.353804,-2.149489,0.6271336999999999
13.820878,-2.6377914000000002,0.8952214
13.820878,-2.6377914000000002,0.8952214
13.820878,-2.6377914000000002,0.8952214
13.820878,-2.6377914000000002,0.8952214
14.232584,-1.9005502,1.9675721999999998
14.232584,-1.9005502,1.9675721999999998
14.232584,-1.9005502,1.9675721999999998
14.232584,-1.9005502,1.9675721999999998
13.878325,-1.9005502,2.2643836
13.878325,-1.9005502,2.2643836
13.878325,-1.9005502,2.2643836
13.878325,-1.9005502,2.2643836
13.102786,-1.8239537000000001,0.23457673
13.102786,-1.8239537000000001,0.23457673
13.102786,-1.8239537000000001,0.23457673
13.102786,-1.8239537000000001,0.23457673
8.861256,-1.3260766000000002,-0.3398969
8.861256,-1.3260766000000002,-0.3398969
8.861256,-1.3260766000000002,-0.3398969
8.861256,-1.3260766000000002,-0.3398969
4.2654667,-0.54096264,-0.16755481
4.2654667,-0.54096264,-0.16755481
4.2654667,-0.54096264,-0.16755481
4.2654667,-0.54096264,-0.16755481
4.5239797,-0.00478728,-0.78990126
4.5239797,-0.00478728,-0.78990126
4.5239797,-0.00478728,-0.78990126
8.593167999999999,-0.14840569,-0.69415563
8.593167999999999,-0.14840569,-0.69415563
8.593167999999999,-0.14840569,-0.69415563
8.593167999999999,-0.14840569,-0.69415563
8.593167999999999,-0.14840569,-0.69415563
14.730460999999998,0.2441513,-1.5079931999999998
14.730460999999998,0.2441513,-1.5079931999999998
14.730460999999998,0.2441513,-1.5079931999999998
14.730460999999998,0.2441513,-1.5079931999999998
16.080475,-0.78990126,-1.6994845
16.080475,-0.78990126,-1.6994845
16.080475,-0.78990126,-1.6994845
10.689997,-2.101616,0.71330476
10.689997,-2.101616,0.71330476
10.689997,-2.101616,0.71330476
10.689997,-2.101616,0.71330476
10.689997,-2.101616,0.71330476
9.732541000000001,0.09095833,1.3069274
9.732541000000001,0.09095833,1.3069274
9.732541000000001,0.09095833,1.3069274
5.2516465,0.8186249,2.0633178
5.2516465,0.8186249,2.0633178
5.2516465,0.8186249,2.0633178
5.2516465,0.8186249,2.0633178
7.0133657000000005,-1.2399056,0.90479594
7.0133657000000005,-1.2399056,0.90479594
7.0133657000000005,-1.2399056,0.90479594
7.0133657000000005,-1.2399056,0.90479594
11.609155,-2.4367256,0.9622433000000001
11.609155,-2.4367256,0.9622433000000001
11.609155,-2.4367256,0.9622433000000001
11.609155,-2.4367256,0.9622433000000001
14.060242,-2.034594,2.1111906000000005
14.060242,-2.034594,2.1111906000000005
14.060242,-2.034594,2.1111906000000005
14.060242,-2.034594,2.1111906000000005
14.194285,-0.6750065,1.9196993000000002
14.194285,-0.6750065,1.9196993000000002
14.194285,-0.6750065,1.9196993000000002
12.087883,-0.9430941999999999,0.27287498
12.087883,-0.9430941999999999,0.27287498
12.087883,-0.9430941999999999,0.27287498
12.087883,-0.9430941999999999,0.27287498
12.087883,-0.9430941999999999,0.27287498
11.38894,-1.4601203999999999,-1.3930986
11.38894,-1.4601203999999999,-1.3930986
11.38894,-1.4601203999999999,-1.3930986
7.156984,-0.8952214,-0.5218136
7.156984,-0.8952214,-0.5218136
7.156984,-0.8952214,-0.5218136
7.156984,-0.8952214,-0.5218136
4.5910015,-0.22500217,-0.0718092
4.5910015,-0.22500217,-0.0718092
4.5910015,-0.22500217,-0.0718092
4.5910015,-0.22500217,-0.0718092
7.520817299999999,0.48351530000000004,-0.91437054
7.520817299999999,0.48351530000000004,-0.91437054
7.520817299999999,0.48351530000000004,-0.91437054
7.520817299999999,0.48351530000000004,-0.91437054
11.829369999999999,0.5313880999999999,-0.6558574
11.829369999999999,0.5313880999999999,-0.6558574
11.829369999999999,0.5313880999999999,-0.6558574
11.829369999999999,0.5313880999999999,-0.6558574
15.994304000000001,0.062234644000000006,-1.3356511999999998
15.994304000000001,0.062234644000000006,-1.3356511999999998
15.994304000000001,0.062234644000000006,-1.3356511999999998
15.994304000000001,0.062234644000000006,-1.3356511999999998
11.49426,-1.1345854,-0.5792609000000001
11.49426,-1.1345854,-0.5792609000000001
11.49426,-1.1345854,-0.5792609000000001
11.49426,-1.1345854,-0.5792609000000001
8.23891,-2.0728923999999997,1.7569318999999999
8.23891,-2.0728923999999997,1.7569318999999999
8.23891,-2.0728923999999997,1.7569318999999999
8.23891,-2.0728923999999997,1.7569318999999999
8.296356,0.49308985,0.39734426
8.296356,0.49308985,0.39734426
8.296356,0.49308985,0.39734426
8.296356,0.49308985,0.39734426
6.4197426,0.48351530000000004,2.1590632999999997
6.4197426,0.48351530000000004,2.1590632999999997
6.4197426,0.48351530000000004,2.1590632999999997
6.4197426,0.48351530000000004,2.1590632999999997
8.717637,-2.1399142999999996,1.2399056
8.717637,-2.1399142999999996,1.2399056
8.717637,-2.1399142999999996,1.2399056
11.59958,-2.4558747000000003,1.4218222
11.59958,-2.4558747000000003,1.4218222
11.59958,-2.4558747000000003,1.4218222
11.59958,-2.4558747000000003,1.4218222
13.907048999999999,-1.6707608,1.4026731000000001
13.907048999999999,-1.6707608,1.4026731000000001
13.907048999999999,-1.6707608,1.4026731000000001
13.907048999999999,-1.6707608,1.4026731000000001
15.391106,-1.9579976000000003,1.469695
15.391106,-1.9579976000000003,1.469695
15.391106,-1.9579976000000003,1.469695
15.391106,-1.9579976000000003,1.469695
12.90172,-1.2016073,-0.70373017
12.90172,-1.2016073,-0.70373017
12.90172,-1.2016073,-0.70373017
12.90172,-1.2016073,-0.70373017
10.105948,-1.6324625,-1.2207563999999997
10.105948,-1.6324625,-1.2207563999999997
10.105948,-1.6324625,-1.2207563999999997
10.105948,-1.6324625,-1.2207563999999997
4.73462,-0.9526688,0.15798025
4.73462,-0.9526688,0.15798025
4.73462,-0.9526688,0.15798025
4.73462,-0.9526688,0.15798025
4.73462,-0.9526688,0.15798025
4.73462,-0.9526688,0.15798025
4.73462,-0.9526688,0.15798025
4.73462,-0.9526688,0.15798025
6.706979799999999,-1.1537346000000002,-0.8760723
6.706979799999999,-1.1537346000000002,-0.8760723
6.706979799999999,-1.1537346000000002,-0.8760723
6.706979799999999,-1.1537346000000002,-0.8760723
15.458128,-1.0388398,-0.42606795
15.458128,-1.0388398,-0.42606795
15.458128,-1.0388398,-0.42606795
15.458128,-1.0388398,-0.42606795
17.440062,-0.39734426,-1.6803354
17.440062,-0.39734426,-1.6803354
17.440062,-0.39734426,-1.6803354
17.440062,-0.39734426,-1.6803354
7.291027499999999,-2.714388,1.469695
7.291027499999999,-2.714388,1.469695
7.291027499999999,-2.714388,1.469695
7.291027499999999,-2.714388,1.469695
9.828286,-2.4558747000000003,0.20585304
9.828286,-2.4558747000000003,0.20585304
9.828286,-2.4558747000000003,0.20585304
9.828286,-2.4558747000000003,0.20585304
6.898471000000001,0.71330476,1.2111819
6.898471000000001,0.71330476,1.2111819
6.898471000000001,0.71330476,1.2111819
6.898471000000001,0.71330476,1.2111819
6.850598,-0.43564250000000004,1.1537346000000002
6.850598,-0.43564250000000004,1.1537346000000002
6.850598,-0.43564250000000004,1.1537346000000002
6.850598,-0.43564250000000004,1.1537346000000002
10.364462,-3.078221,0.4164934
10.364462,-3.078221,0.4164934
10.364462,-3.078221,0.4164934
12.336822,-2.800559,0.9718179
12.336822,-2.800559,0.9718179
12.336822,-2.800559,0.9718179
12.336822,-2.800559,0.9718179
12.8538475,-2.0441686999999997,1.5271424
12.8538475,-2.0441686999999997,1.5271424
12.8538475,-2.0441686999999997,1.5271424
12.8538475,-2.0441686999999997,1.5271424
13.840027,-2.1877869999999997,1.0292653
13.840027,-2.1877869999999997,1.0292653
13.840027,-2.1877869999999997,1.0292653
13.840027,-2.1877869999999997,1.0292653
12.135756,-2.2643836,-0.49308985
12.135756,-2.2643836,-0.49308985
12.135756,-2.2643836,-0.49308985
12.135756,-2.2643836,-0.49308985
7.4154973,-1.6324625,0.014361841
7.4154973,-1.6324625,0.014361841
7.4154973,-1.6324625,0.014361841
7.4154973,-1.6324625,0.014361841
5.031431700000001,-1.5462915000000002,0.18670394
5.031431700000001,-1.5462915000000002,0.18670394
5.031431700000001,-1.5462915000000002,0.18670394
5.031431700000001,-1.5462915000000002,0.18670394
6.391019,-1.3739493999999999,-0.8473485999999999
6.391019,-1.3739493999999999,-0.8473485999999999
6.391019,-1.3739493999999999,-0.8473485999999999
6.391019,-1.3739493999999999,-0.8473485999999999
12.308098,-0.8281995000000001,-1.0962871
12.308098,-0.8281995000000001,-1.0962871
12.308098,-0.8281995000000001,-1.0962871
12.308098,-0.8281995000000001,-1.0962871
16.702820000000003,0.45479164,-2.4175766
16.702820000000003,0.45479164,-2.4175766
16.702820000000003,0.45479164,-2.4175766
16.702820000000003,0.45479164,-2.4175766
9.100619,-0.8760723,-0.34947145
9.100619,-0.8760723,-0.34947145
9.100619,-0.8760723,-0.34947145
9.100619,-0.8760723,-0.34947145
9.493176,-2.2165107999999996,0.44521707
9.493176,-2.2165107999999996,0.44521707
9.493176,-2.2165107999999996,0.44521707
9.493176,-2.2165107999999996,0.44521707
9.474028,0.48351530000000004,0.42606795
9.474028,0.48351530000000004,0.42606795
9.474028,0.48351530000000004,0.42606795
9.474028,0.48351530000000004,0.42606795
7.1186857,0.48351530000000004,2.0920415
7.1186857,0.48351530000000004,2.0920415
7.1186857,0.48351530000000004,2.0920415
7.894225,-2.4750240000000003,1.0579889
7.894225,-2.4750240000000003,1.0579889
7.894225,-2.4750240000000003,1.0579889
7.894225,-2.4750240000000003,1.0579889
7.894225,-2.4750240000000003,1.0579889
11.379365,-2.8292825,1.2303311000000001
11.379365,-2.8292825,1.2303311000000001
11.379365,-2.8292825,1.2303311000000001
14.127264000000002,-2.9633265,2.2356597999999996
14.127264000000002,-2.9633265,2.2356597999999996
14.127264000000002,-2.9633265,2.2356597999999996
14.127264000000002,-2.9633265,2.2356597999999996
14.242159,-2.7239625,2.2452345
14.242159,-2.7239625,2.2452345
14.242159,-2.7239625,2.2452345
14.242159,-2.7239625,2.2452345
13.13151,-2.8197080000000003,-0.23457673
13.13151,-2.8197080000000003,-0.23457673
13.13151,-2.8197080000000003,-0.23457673
13.13151,-2.8197080000000003,-0.23457673
11.532558,-2.0441686999999997,-1.4505458999999998
11.532558,-2.0441686999999997,-1.4505458999999998
11.532558,-2.0441686999999997,-1.4505458999999998
11.532558,-2.0441686999999997,-1.4505458999999998
6.218677,-1.0484143,0.03351096
6.218677,-1.0484143,0.03351096
6.218677,-1.0484143,0.03351096
6.218677,-1.0484143,0.03351096
5.194199,-0.56011176,-0.40691882
5.194199,-0.56011176,-0.40691882
5.194199,-0.56011176,-0.40691882
5.194199,-0.56011176,-0.40691882
6.400593799999999,-0.59841,-0.8664976999999999
6.400593799999999,-0.59841,-0.8664976999999999
6.400593799999999,-0.59841,-0.8664976999999999
14.079391500000002,-0.8952214,-0.8090504
14.079391500000002,-0.8952214,-0.8090504
14.079391500000002,-0.8952214,-0.8090504
14.079391500000002,-0.8952214,-0.8090504
16.86559,-0.32074776,-1.5079931999999998
16.86559,-0.32074776,-1.5079931999999998
16.86559,-0.32074776,-1.5079931999999998
16.86559,-0.32074776,-1.5079931999999998
8.382527,-2.4175766,0.92394507
8.382527,-2.4175766,0.92394507
8.382527,-2.4175766,0.92394507
8.382527,-2.4175766,0.92394507
9.493176,-2.513322,1.1250108
9.493176,-2.513322,1.1250108
9.493176,-2.513322,1.1250108
9.493176,-2.513322,1.1250108
9.493176,-2.513322,1.1250108
6.8793216,0.12925656,1.469695
6.8793216,0.12925656,1.469695
6.8793216,0.12925656,1.469695
6.1995277,-0.359046,1.6228879999999999
6.1995277,-0.359046,1.6228879999999999
6.1995277,-0.359046,1.6228879999999999
6.1995277,-0.359046,1.6228879999999999
8.55487,-2.9537517999999996,0.63670826
8.55487,-2.9537517999999996,0.63670826
8.55487,-2.9537517999999996,0.63670826
8.55487,-2.9537517999999996,0.63670826
12.834699,-3.2409887000000004,0.85692316
12.834699,-3.2409887000000004,0.85692316
12.834699,-3.2409887000000004,0.85692316
12.834699,-3.2409887000000004,0.85692316
14.893229000000002,-2.8101335,1.8048046999999998
14.893229000000002,-2.8101335,1.8048046999999998
14.893229000000002,-2.8101335,1.8048046999999998
14.893229000000002,-2.8101335,1.8048046999999998
14.165563,-1.2207563999999997,1.9196993000000002
14.165563,-1.2207563999999997,1.9196993000000002
14.165563,-1.2207563999999997,1.9196993000000002
14.165563,-1.2207563999999997,1.9196993000000002
13.753855999999999,-1.9771467,-0.77075213
13.753855999999999,-1.9771467,-0.77075213
13.753855999999999,-1.9771467,-0.77075213
13.753855999999999,-1.9771467,-0.77075213
9.052747,-1.9005502,-0.7324539000000001
9.052747,-1.9005502,-0.7324539000000001
9.052747,-1.9005502,-0.7324539000000001
9.052747,-1.9005502,-0.7324539000000001
4.5527034,-1.0005416,0.081383765
4.5527034,-1.0005416,0.081383765
4.5527034,-1.0005416,0.081383765
5.644203,-0.64628285,-0.93351966
5.644203,-0.64628285,-0.93351966
5.644203,-0.64628285,-0.93351966
5.644203,-0.64628285,-0.93351966
5.644203,-0.64628285,-0.93351966
8.698488000000001,-0.6079846,-1.3165021000000001
8.698488000000001,-0.6079846,-1.3165021000000001
8.698488000000001,-0.6079846,-1.3165021000000001
8.698488000000001,-0.6079846,-1.3165021000000001
14.797482999999998,-0.512239,-1.1633091
14.797482999999998,-0.512239,-1.1633091
14.797482999999998,-0.512239,-1.1633091
15.314509,-0.45479164,-1.8718264999999998
15.314509,-0.45479164,-1.8718264999999998
15.314509,-0.45479164,-1.8718264999999998
15.314509,-0.45479164,-1.8718264999999998
15.314509,-0.45479164,-1.8718264999999998
9.62722,-1.948423,1.7473572
9.62722,-1.948423,1.7473572
9.62722,-1.948423,1.7473572
8.047417999999999,-1.0962871,0.8473485999999999
8.047417999999999,-1.0962871,0.8473485999999999
8.047417999999999,-1.0962871,0.8473485999999999
8.047417999999999,-1.0962871,0.8473485999999999
5.912291000000001,0.5313880999999999,1.4505458999999998
5.912291000000001,0.5313880999999999,1.4505458999999998
5.912291000000001,0.5313880999999999,1.4505458999999998
5.912291000000001,0.5313880999999999,1.4505458999999998
8.085716,-1.2590546999999999,1.5462915000000002
8.085716,-1.2590546999999999,1.5462915000000002
8.085716,-1.2590546999999999,1.5462915000000002
8.085716,-1.2590546999999999,1.5462915000000002
11.235746,-3.2218397000000003,1.4409714
11.235746,-3.2218397000000003,1.4409714
11.235746,-3.2218397000000003,1.4409714
11.235746,-3.2218397000000003,1.4409714
14.242159,-2.752686,1.8239537000000001
14.242159,-2.752686,1.8239537000000001
14.242159,-2.752686,1.8239537000000001
14.242159,-2.752686,1.8239537000000001
15.257062,-2.1303396,1.6133133999999998
15.257062,-2.1303396,1.6133133999999998
15.257062,-2.1303396,1.6133133999999998
15.257062,-2.1303396,1.6133133999999998
12.777251,-1.862252,0.56011176
12.777251,-1.862252,0.56011176
12.777251,-1.862252,0.56011176
12.777251,-1.862252,0.56011176
11.226172,-2.3888528,-1.1250108
11.226172,-2.3888528,-1.1250108
11.226172,-2.3888528,-1.1250108
11.226172,-2.3888528,-1.1250108
6.2282515,-1.7186337,-0.5505372
6.2282515,-1.7186337,-0.5505372
6.2282515,-1.7186337,-0.5505372
6.2282515,-1.7186337,-0.5505372
5.3186684,-0.64628285,-0.4164934
5.3186684,-0.64628285,-0.4164934
5.3186684,-0.64628285,-0.4164934
5.3186684,-0.64628285,-0.4164934
7.2623043,-0.40691882,-1.0196906
7.2623043,-0.40691882,-1.0196906
7.2623043,-0.40691882,-1.0196906
7.2623043,-0.40691882,-1.0196906
11.877241999999999,-0.56011176,-1.0962871
11.877241999999999,-0.56011176,-1.0962871
11.877241999999999,-0.56011176,-1.0962871
11.877241999999999,-0.56011176,-1.0962871
14.146413,-0.023936402000000002,-1.5175678999999997
14.146413,-0.023936402000000002,-1.5175678999999997
14.146413,-0.023936402000000002,-1.5175678999999997
14.146413,-0.023936402000000002,-1.5175678999999997
11.4272375,-0.751603,-0.25372586
11.4272375,-0.751603,-0.25372586
11.4272375,-0.751603,-0.25372586
11.4272375,-0.751603,-0.25372586
10.335738000000001,-1.9005502,1.8909756999999998
10.335738000000001,-1.9005502,1.8909756999999998
10.335738000000001,-1.9005502,1.8909756999999998
10.335738000000001,-1.9005502,1.8909756999999998
7.664436,0.15798025,1.4505458999999998
7.664436,0.15798025,1.4505458999999998
7.664436,0.15798025,1.4505458999999998
7.664436,0.15798025,1.4505458999999998
6.544212,-0.09095833,1.2016073
6.544212,-0.09095833,1.2016073
6.544212,-0.09095833,1.2016073
6.544212,-0.09095833,1.2016073
9.464453,-2.666515,0.93351966
9.464453,-2.666515,0.93351966
9.464453,-2.666515,0.93351966
12.58576,-3.3175852,2.2356597999999996
12.58576,-3.3175852,2.2356597999999996
12.58576,-3.3175852,2.2356597999999996
12.58576,-3.3175852,2.2356597999999996
12.58576,-3.3175852,2.2356597999999996
13.246405,-3.212265,2.6377914000000002
13.246405,-3.212265,2.6377914000000002
13.246405,-3.212265,2.6377914000000002
13.246405,-3.212265,2.6377914000000002
14.088965,-2.6186423,2.5324712000000003
14.088965,-2.6186423,2.5324712000000003
14.088965,-2.6186423,2.5324712000000003
14.088965,-2.6186423,2.5324712000000003
11.992137,-1.9292740000000002,0.70373017
11.992137,-1.9292740000000002,0.70373017
11.992137,-1.9292740000000002,0.70373017
11.992137,-1.9292740000000002,0.70373017
10.536804,-2.0824668,-0.8473485999999999
10.536804,-2.0824668,-0.8473485999999999
10.536804,-2.0824668,-0.8473485999999999
6.630383,-0.93351966,0.10053288
6.630383,-0.93351966,0.10053288
6.630383,-0.93351966,0.10053288
6.630383,-0.93351966,0.10053288
6.630383,-0.93351966,0.10053288
6.2952733,0.39734426,-0.3877697
6.2952733,0.39734426,-0.3877697
6.2952733,0.39734426,-0.3877697
6.2952733,0.39734426,-0.3877697
8.229335,-0.17712937,-1.6228879999999999
8.229335,-0.17712937,-1.6228879999999999
8.229335,-0.17712937,-1.6228879999999999
8.229335,-0.17712937,-1.6228879999999999
10.354887,-0.92394507,-0.6079846
10.354887,-0.92394507,-0.6079846
10.354887,-0.92394507,-0.6079846
10.354887,-0.92394507,-0.6079846
13.916623999999999,-1.9101248,-0.36862057
13.916623999999999,-1.9101248,-0.36862057
13.916623999999999,-1.9101248,-0.36862057
13.916623999999999,-1.9101248,-0.36862057
13.294277,-2.2452345,1.4792696
13.294277,-2.2452345,1.4792696
13.294277,-2.2452345,1.4792696
13.294277,-2.2452345,1.4792696
9.914457,-0.8186249,2.4654493
9.914457,-0.8186249,2.4654493
9.914457,-0.8186249,2.4654493
9.914457,-0.8186249,2.4654493
5.730374299999999,0.22500217,1.1920328000000002
5.730374299999999,0.22500217,1.1920328000000002
5.730374299999999,0.22500217,1.1920328000000002
5.730374299999999,0.22500217,1.1920328000000002
6.256975,-1.4792696,0.3398969
6.256975,-1.4792696,0.3398969
6.256975,-1.4792696,0.3398969
6.256975,-1.4792696,0.3398969
11.005958,-2.714388,0.40691882
11.005958,-2.714388,0.40691882
11.005958,-2.714388,0.40691882
11.005958,-2.714388,0.40691882
14.299605999999999,-2.6952388,2.1207652
14.299605999999999,-2.6952388,2.1207652
14.299605999999999,-2.6952388,2.1207652
14.299605999999999,-2.6952388,2.1207652
14.481523000000001,-2.1303396,2.2643836
14.481523000000001,-2.1303396,2.2643836
14.481523000000001,-2.1303396,2.2643836
14.481523000000001,-2.1303396,2.2643836
11.848517999999999,-0.3398969,1.9771467
11.848517999999999,-0.3398969,1.9771467
11.848517999999999,-0.3398969,1.9771467
11.848517999999999,-0.3398969,1.9771467
13.208105999999999,-1.6420371999999999,-0.8281995000000001
13.208105999999999,-1.6420371999999999,-0.8281995000000001
13.208105999999999,-1.6420371999999999,-0.8281995000000001
13.208105999999999,-1.6420371999999999,-0.8281995000000001
8.708063000000001,-2.3026817000000004,-0.9526688
8.708063000000001,-2.3026817000000004,-0.9526688
8.708063000000001,-2.3026817000000004,-0.9526688
8.708063000000001,-2.3026817000000004,-0.9526688
8.708063000000001,-2.3026817000000004,-0.9526688
8.708063000000001,-2.3026817000000004,-0.9526688
8.708063000000001,-2.3026817000000004,-0.9526688
8.708063000000001,-2.3026817000000004,-0.9526688
6.285699,-0.512239,-0.8856468000000001
6.285699,-0.512239,-0.8856468000000001
6.285699,-0.512239,-0.8856468000000001
11.235746,0.17712937,-0.7324539000000001
11.235746,0.17712937,-0.7324539000000001
11.235746,0.17712937,-0.7324539000000001
11.235746,0.17712937,-0.7324539000000001
11.235746,0.17712937,-0.7324539000000001
14.404926000000001,1.1345854,-1.3739493999999999
14.404926000000001,1.1345854,-1.3739493999999999
14.404926000000001,1.1345854,-1.3739493999999999
14.404926000000001,1.1345854,-1.3739493999999999
13.935773000000001,-0.47394073,-1.3643749
13.935773000000001,-0.47394073,-1.3643749
13.935773000000001,-0.47394073,-1.3643749
13.935773000000001,-0.47394073,-1.3643749
7.5495410000000005,-2.3984275,2.4463003
7.5495410000000005,-2.3984275,2.4463003
7.5495410000000005,-2.3984275,2.4463003
7.5495410000000005,-2.3984275,2.4463003
9.052747,0.30159867,1.4984187
9.052747,0.30159867,1.4984187
9.052747,0.30159867,1.4984187
9.052747,0.30159867,1.4984187
7.1474094,0.512239,1.6707608
7.1474094,0.512239,1.6707608
7.1474094,0.512239,1.6707608
7.1474094,0.512239,1.6707608
11.235746,-1.9867213,0.54096264
11.235746,-1.9867213,0.54096264
11.235746,-1.9867213,0.54096264
11.235746,-1.9867213,0.54096264
12.509163000000001,-4.3707867,0.50266445
12.509163000000001,-4.3707867,0.50266445
12.509163000000001,-4.3707867,0.50266445
12.509163000000001,-4.3707867,0.50266445
14.127264000000002,-2.9154537,1.0579889
14.127264000000002,-2.9154537,1.0579889
14.127264000000002,-2.9154537,1.0579889
14.127264000000002,-2.9154537,1.0579889
14.050668,-3.2026904,1.7665064
14.050668,-3.2026904,1.7665064
14.050668,-3.2026904,1.7665064
14.050668,-3.2026904,1.7665064
12.5474615,-1.9962958,0.77075213
12.5474615,-1.9962958,0.77075213
12.5474615,-1.9962958,0.77075213
12.5474615,-1.9962958,0.77075213
13.591088000000001,-2.2165107999999996,-1.2016073
13.591088000000001,-2.2165107999999996,-1.2016073
13.591088000000001,-2.2165107999999996,-1.2016073
13.591088000000001,-2.2165107999999996,-1.2016073
8.296356,-1.14416,-0.0718092
8.296356,-1.14416,-0.0718092
8.296356,-1.14416,-0.0718092
8.296356,-1.14416,-0.0718092
5.979312999999999,-0.8186249,-0.22500217
5.979312999999999,-0.8186249,-0.22500217
5.979312999999999,-0.8186249,-0.22500217
5.979312999999999,-0.8186249,-0.22500217
6.065484,-0.7228793,-1.0675635
6.065484,-0.7228793,-1.0675635
6.065484,-0.7228793,-1.0675635
6.065484,-0.7228793,-1.0675635
10.239991999999999,0.69415563,-0.9526688
10.239991999999999,0.69415563,-0.9526688
10.239991999999999,0.69415563,-0.9526688
10.239991999999999,0.69415563,-0.9526688
15.764514000000002,0.22500217,-1.9867213
15.764514000000002,0.22500217,-1.9867213
15.764514000000002,0.22500217,-1.9867213
15.764514000000002,0.22500217,-1.9867213
11.111278,-1.9579976000000003,-0.5792609000000001
11.111278,-1.9579976000000003,-0.5792609000000001
11.111278,-1.9579976000000003,-0.5792609000000001
11.111278,-1.9579976000000003,-0.5792609000000001
10.843189,-1.4984187,1.6707608
10.843189,-1.4984187,1.6707608
10.843189,-1.4984187,1.6707608
10.843189,-1.4984187,1.6707608
8.210186,-0.37819514,0.00478728
8.210186,-0.37819514,0.00478728
8.210186,-0.37819514,0.00478728
8.210186,-0.37819514,0.00478728
7.281453,0.3877697,1.3930986
7.281453,0.3877697,1.3930986
7.281453,0.3877697,1.3930986
7.281453,0.3877697,1.3930986
10.737869,-2.034594,0.17712937
10.737869,-2.034594,0.17712937
10.737869,-2.034594,0.17712937
10.737869,-2.034594,0.17712937
13.725132,-4.4186597,0.61755913
13.725132,-4.4186597,0.61755913
13.725132,-4.4186597,0.61755913
13.725132,-4.4186597,0.61755913
15.63047,-4.5527034,0.56011176
15.63047,-4.5527034,0.56011176
15.63047,-4.5527034,0.56011176
15.63047,-4.5527034,0.56011176
13.954922,-1.5654407,1.9101248
13.954922,-1.5654407,1.9101248
13.954922,-1.5654407,1.9101248
13.954922,-1.5654407,1.9101248
12.059159,-2.1111906000000005,0.42606795
12.059159,-2.1111906000000005,0.42606795
12.059159,-2.1111906000000005,0.42606795
12.059159,-2.1111906000000005,0.42606795
10.220842999999999,-1.5941644,-0.44521707
10.220842999999999,-1.5941644,-0.44521707
10.220842999999999,-1.5941644,-0.44521707
10.220842999999999,-1.5941644,-0.44521707
7.3389006,-0.63670826,-0.17712937
7.3389006,-0.63670826,-0.17712937
7.3389006,-0.63670826,-0.17712937
7.3389006,-0.63670826,-0.17712937
9.062322,0.39734426,-1.0388398
9.062322,0.39734426,-1.0388398
9.062322,0.39734426,-1.0388398
9.062322,0.39734426,-1.0388398
10.125097,2.6856642,-2.254809
10.125097,2.6856642,-2.254809
10.125097,2.6856642,-2.254809
10.125097,2.6856642,-2.254809
13.380448000000001,1.6899098999999997,-3.3750327000000007
13.380448000000001,1.6899098999999997,-3.3750327000000007
13.380448000000001,1.6899098999999997,-3.3750327000000007
13.380448000000001,1.6899098999999997,-3.3750327000000007
12.422992,-1.2494801000000002,-2.6760897999999997
12.422992,-1.2494801000000002,-2.6760897999999997
12.422992,-1.2494801000000002,-2.6760897999999997
12.422992,-1.2494801000000002,-2.6760897999999997
9.655944,-2.0441686999999997,0.9622433000000001
9.655944,-2.0441686999999997,0.9622433000000001
9.655944,-2.0441686999999997,0.9622433000000001
9.655944,-2.0441686999999997,0.9622433000000001
9.655944,-2.0441686999999997,0.9622433000000001
8.957002000000001,0.11968201,0.91437054
8.957002000000001,0.11968201,0.91437054
8.957002000000001,0.11968201,0.91437054
8.11444,0.7324539000000001,2.0633178
8.11444,0.7324539000000001,2.0633178
8.11444,0.7324539000000001,2.0633178
8.11444,0.7324539000000001,2.0633178
9.818711,-2.1303396,1.1728836
9.818711,-2.1303396,1.1728836
9.818711,-2.1303396,1.1728836
9.818711,-2.1303396,1.1728836
13.591088000000001,-5.242071599999999,1.2494801000000002
13.591088000000001,-5.242071599999999,1.2494801000000002
13.591088000000001,-5.242071599999999,1.2494801000000002
13.591088000000001,-5.242071599999999,1.2494801000000002
14.816632,-2.9250283,2.3792782000000003
14.816632,-2.9250283,2.3792782000000003
14.816632,-2.9250283,2.3792782000000003
14.816632,-2.9250283,2.3792782000000003
13.485767999999998,-1.1824582000000001,2.4750240000000003
13.485767999999998,-1.1824582000000001,2.4750240000000003
13.485767999999998,-1.1824582000000001,2.4750240000000003
13.485767999999998,-1.1824582000000001,2.4750240000000003
13.495343,-1.7952299999999999,-0.39734426
13.495343,-1.7952299999999999,-0.39734426
13.495343,-1.7952299999999999,-0.39734426
13.495343,-1.7952299999999999,-0.39734426
12.317672,-1.6133133999999998,-1.6133133999999998
12.317672,-1.6133133999999998,-1.6133133999999998
12.317672,-1.6133133999999998,-1.6133133999999998
12.317672,-1.6133133999999998,-1.6133133999999998
7.377198700000001,-0.98139244,-0.50266445
7.377198700000001,-0.98139244,-0.50266445
7.377198700000001,-0.98139244,-0.50266445
7.377198700000001,-0.98139244,-0.50266445
6.6016593,-0.0718092,-1.6037389
6.6016593,-0.0718092,-1.6037389
6.6016593,-0.0718092,-1.6037389
6.6016593,-0.0718092,-1.6037389
6.438892,-0.63670826,-1.862252
6.438892,-0.63670826,-1.862252
6.438892,-0.63670826,-1.862252
6.438892,-0.63670826,-1.862252
10.2016945,-0.3877697,-0.8090504
10.2016945,-0.3877697,-0.8090504
10.2016945,-0.3877697,-0.8090504
10.2016945,-0.3877697,-0.8090504
13.457045,-0.8186249,-0.56968635
13.457045,-0.8186249,-0.56968635
13.457045,-0.8186249,-0.56968635
13.457045,-0.8186249,-0.56968635
14.041093,-1.2207563999999997,0.20585304
14.041093,-1.2207563999999997,0.20585304
14.041093,-1.2207563999999997,0.20585304
14.041093,-1.2207563999999997,0.20585304
10.0868,-2.2931072999999995,2.4750240000000003
10.0868,-2.2931072999999995,2.4750240000000003
10.0868,-2.2931072999999995,2.4750240000000003
10.0868,-2.2931072999999995,2.4750240000000003
6.1612295999999995,-0.93351966,0.5888355
6.1612295999999995,-0.93351966,0.5888355
6.1612295999999995,-0.93351966,0.5888355
6.1612295999999995,-0.93351966,0.5888355
7.0133657000000005,-0.28244954,1.0005416
7.0133657000000005,-0.28244954,1.0005416
7.0133657000000005,-0.28244954,1.0005416
11.609155,-2.6377914000000002,0.61755913
11.609155,-2.6377914000000002,0.61755913
11.609155,-2.6377914000000002,0.61755913
11.609155,-2.6377914000000002,0.61755913
11.609155,-2.6377914000000002,0.61755913
15.352808,-4.7058964,1.1824582000000001
15.352808,-4.7058964,1.1824582000000001
15.352808,-4.7058964,1.1824582000000001
15.352808,-4.7058964,1.1824582000000001
14.261307999999998,-1.2590546999999999,1.4409714
14.261307999999998,-1.2590546999999999,1.4409714
14.261307999999998,-1.2590546999999999,1.4409714
14.261307999999998,-1.2590546999999999,1.4409714
12.7964,-0.03351096,1.3548003
12.7964,-0.03351096,1.3548003
12.7964,-0.03351096,1.3548003
12.7964,-0.03351096,1.3548003
13.188957,-2.7622607000000006,-0.13883112
13.188957,-2.7622607000000006,-0.13883112
13.188957,-2.7622607000000006,-0.13883112
13.188957,-2.7622607000000006,-0.13883112
7.9420977,-2.8197080000000003,0.30159867
7.9420977,-2.8197080000000003,0.30159867
7.9420977,-2.8197080000000003,0.30159867
7.9420977,-2.8197080000000003,0.30159867
4.5622783,-0.9718179,0.16755481
4.5622783,-0.9718179,0.16755481
4.5622783,-0.9718179,0.16755481
4.5622783,-0.9718179,0.16755481
7.156984,-0.14840569,-0.8760723
7.156984,-0.14840569,-0.8760723
7.156984,-0.14840569,-0.8760723
7.156984,-0.14840569,-0.8760723
12.030436,2.0920415,-1.9962958
12.030436,2.0920415,-1.9962958
12.030436,2.0920415,-1.9962958
12.030436,2.0920415,-1.9962958
14.558119,1.3069274,-3.9112080000000002
14.558119,1.3069274,-3.9112080000000002
14.558119,1.3069274,-3.9112080000000002
14.558119,1.3069274,-3.9112080000000002
11.618729,-0.023936402000000002,-1.9388485
11.618729,-0.023936402000000002,-1.9388485
11.618729,-0.023936402000000002,-1.9388485
11.618729,-0.023936402000000002,-1.9388485
10.584677000000001,-1.5271424,2.34098
10.584677000000001,-1.5271424,2.34098
10.584677000000001,-1.5271424,2.34098
10.584677000000001,-1.5271424,2.34098
9.550624000000001,0.43564250000000004,1.9962958
9.550624000000001,0.43564250000000004,1.9962958
9.550624000000001,0.43564250000000004,1.9962958
9.550624000000001,0.43564250000000004,1.9962958
6.678256,0.5313880999999999,2.8388572
6.678256,0.5313880999999999,2.8388572
6.678256,0.5313880999999999,2.8388572
6.678256,0.5313880999999999,2.8388572
9.052747,-2.5516202,0.6271336999999999
9.052747,-2.5516202,0.6271336999999999
9.052747,-2.5516202,0.6271336999999999
9.052747,-2.5516202,0.6271336999999999
13.409172,-4.8878129999999995,0.15798025
13.409172,-4.8878129999999995,0.15798025
13.409172,-4.8878129999999995,0.15798025
13.409172,-4.8878129999999995,0.15798025
13.3612995,-3.4037561000000003,1.9867213
13.3612995,-3.4037561000000003,1.9867213
13.3612995,-3.4037561000000003,1.9867213
13.3612995,-3.4037561000000003,1.9867213
14.491097,-2.321831,2.7622607000000006
14.491097,-2.321831,2.7622607000000006
14.491097,-2.321831,2.7622607000000006
14.491097,-2.321831,2.7622607000000006
14.931526999999999,-3.078221,-0.42606795
14.931526999999999,-3.078221,-0.42606795
14.931526999999999,-3.078221,-0.42606795
14.931526999999999,-3.078221,-0.42606795
12.011286,-1.6516117,-1.0962871
12.011286,-1.6516117,-1.0962871
12.011286,-1.6516117,-1.0962871
12.011286,-1.6516117,-1.0962871
6.1995277,0.023936402000000002,0.05266008
6.1995277,0.023936402000000002,0.05266008
6.1995277,0.023936402000000002,0.05266008
6.1995277,0.023936402000000002,0.05266008
6.1995277,1.5367169,-1.0962871
6.1995277,1.5367169,-1.0962871
6.1995277,1.5367169,-1.0962871
5.7208,-0.8473485999999999,-1.4218222
5.7208,-0.8473485999999999,-1.4218222
5.7208,-0.8473485999999999,-1.4218222
5.7208,-0.8473485999999999,-1.4218222
13.399597,-0.34947145,-1.5367169
13.399597,-0.34947145,-1.5367169
13.399597,-0.34947145,-1.5367169
13.399597,-0.34947145,-1.5367169
16.425158,-0.61755913,-2.0250196
16.425158,-0.61755913,-2.0250196
16.425158,-0.61755913,-2.0250196
16.425158,-0.61755913,-2.0250196
9.272962,-3.039923,1.8239537000000001
9.272962,-3.039923,1.8239537000000001
9.272962,-3.039923,1.8239537000000001
9.272962,-3.039923,1.8239537000000001
12.288948,-1.9867213,0.90479594
12.288948,-1.9867213,0.90479594
12.288948,-1.9867213,0.90479594
12.288948,-1.9867213,0.90479594
7.951672599999999,-0.6271336999999999,1.8909756999999998
7.951672599999999,-0.6271336999999999,1.8909756999999998
7.951672599999999,-0.6271336999999999,1.8909756999999998
7.951672599999999,-0.6271336999999999,1.8909756999999998
7.2335806,-0.665432,2.2931072999999995
7.2335806,-0.665432,2.2931072999999995
7.2335806,-0.665432,2.2931072999999995
10.421909,-3.1069447999999995,0.6845810999999999
10.421909,-3.1069447999999995,0.6845810999999999
10.421909,-3.1069447999999995,0.6845810999999999
10.421909,-3.1069447999999995,0.6845810999999999
13.390023000000001,-3.3750327000000007,1.3069274
13.390023000000001,-3.3750327000000007,1.3069274
13.390023000000001,-3.3750327000000007,1.3069274
13.390023000000001,-3.3750327000000007,1.3069274
16.453882,-1.7569318999999999,2.561195
16.453882,-1.7569318999999999,2.561195
16.453882,-1.7569318999999999,2.561195
16.453882,-1.7569318999999999,2.561195
11.972988,-0.93351966,1.7952299999999999
11.972988,-0.93351966,1.7952299999999999
11.972988,-0.93351966,1.7952299999999999
11.972988,-0.93351966,1.7952299999999999
11.972988,-0.93351966,1.7952299999999999
11.992137,-1.2782038,-0.76117754
11.992137,-1.2782038,-0.76117754
11.992137,-1.2782038,-0.76117754
8.889978999999999,-2.0920415,-1.3356511999999998
8.889978999999999,-2.0920415,-1.3356511999999998
8.889978999999999,-2.0920415,-1.3356511999999998
8.889978999999999,-2.0920415,-1.3356511999999998
5.452712,-0.7994758000000001,-0.34947145
5.452712,-0.7994758000000001,-0.34947145
5.452712,-0.7994758000000001,-0.34947145
5.452712,-0.7994758000000001,-0.34947145
5.452712,-0.7994758000000001,-0.34947145
7.176133,-0.54096264,-0.93351966
7.176133,-0.54096264,-0.93351966
7.176133,-0.54096264,-0.93351966
9.713391,-0.69415563,-1.2590546999999999
9.713391,-0.69415563,-1.2590546999999999
9.713391,-0.69415563,-1.2590546999999999
9.713391,-0.69415563,-1.2590546999999999
12.490014,-0.5313880999999999,-0.76117754
12.490014,-0.5313880999999999,-0.76117754
12.490014,-0.5313880999999999,-0.76117754
12.490014,-0.5313880999999999,-0.76117754
13.696407999999998,-1.3548003,-1.0292653
13.696407999999998,-1.3548003,-1.0292653
13.696407999999998,-1.3548003,-1.0292653
13.696407999999998,-1.3548003,-1.0292653
9.885734,-2.8484317999999997,1.6228879999999999
9.885734,-2.8484317999999997,1.6228879999999999
9.885734,-2.8484317999999997,1.6228879999999999
9.885734,-2.8484317999999997,1.6228879999999999
9.732541000000001,-1.0196906,2.1399142999999996
9.732541000000001,-1.0196906,2.1399142999999996
9.732541000000001,-1.0196906,2.1399142999999996
9.732541000000001,-1.0196906,2.1399142999999996
6.3718699999999995,0.6750065,1.4792696
6.3718699999999995,0.6750065,1.4792696
6.3718699999999995,0.6750065,1.4792696
6.3718699999999995,0.6750065,1.4792696
8.880403999999999,-1.3165021000000001,0.78990126
8.880403999999999,-1.3165021000000001,0.78990126
8.880403999999999,-1.3165021000000001,0.78990126
12.700654,-4.4952559999999995,0.3877697
12.700654,-4.4952559999999995,0.3877697
12.700654,-4.4952559999999995,0.3877697
12.700654,-4.4952559999999995,0.3877697
14.481523000000001,-4.73462,1.9005502
14.481523000000001,-4.73462,1.9005502
14.481523000000001,-4.73462,1.9005502
14.481523000000001,-4.73462,1.9005502
14.921952,-0.5313880999999999,2.647366
14.921952,-0.5313880999999999,2.647366
14.921952,-0.5313880999999999,2.647366
14.921952,-0.5313880999999999,2.647366
13.964497,-2.0537431,0.26330042
13.964497,-2.0537431,0.26330042
13.964497,-2.0537431,0.26330042
13.964497,-2.0537431,0.26330042
13.964497,-2.0537431,0.26330042
12.767676,-2.4367256,-0.98139244
12.767676,-2.4367256,-0.98139244
12.767676,-2.4367256,-0.98139244
6.7357035000000005,-0.69415563,0.91437054
6.7357035000000005,-0.69415563,0.91437054
6.7357035000000005,-0.69415563,0.91437054
6.7357035000000005,-0.69415563,0.91437054
5.9218655,-0.2441513,-0.9718179
5.9218655,-0.2441513,-0.9718179
5.9218655,-0.2441513,-0.9718179
5.9218655,-0.2441513,-0.9718179
5.9218655,-0.2441513,-0.9718179
6.3527207,-0.92394507,-1.2686293
6.3527207,-0.92394507,-1.2686293
6.3527207,-0.92394507,-1.2686293
13.102786,-0.33032233,-0.76117754
13.102786,-0.33032233,-0.76117754
13.102786,-0.33032233,-0.76117754
13.102786,-0.33032233,-0.76117754
12.90172,0.47394073,-1.6899098999999997
12.90172,0.47394073,-1.6899098999999997
12.90172,0.47394073,-1.6899098999999997
12.90172,0.47394073,-1.6899098999999997
9.655944,-2.8484317999999997,0.19627848
9.655944,-2.8484317999999997,0.19627848
9.655944,-2.8484317999999997,0.19627848
9.655944,-2.8484317999999997,0.19627848
9.655944,-2.8484317999999997,0.19627848
9.655944,-2.8484317999999997,0.19627848
9.655944,-2.8484317999999997,0.19627848
8.152739,-2.0441686999999997,1.5941644
8.152739,-2.0441686999999997,1.5941644
8.152739,-2.0441686999999997,1.5941644
8.152739,-2.0441686999999997,1.5941644
7.875075999999999,0.33032233,3.1260939999999997
7.875075999999999,0.33032233,3.1260939999999997
7.875075999999999,0.33032233,3.1260939999999997
7.875075999999999,0.33032233,3.1260939999999997
7.875075999999999,0.33032233,3.1260939999999997
11.666602000000001,-2.254809,1.2399056
11.666602000000001,-2.254809,1.2399056
11.666602000000001,-2.254809,1.2399056
13.8879,-4.016528,1.2686293
13.8879,-4.016528,1.2686293
13.8879,-4.016528,1.2686293
13.8879,-4.016528,1.2686293
13.8879,-4.016528,1.2686293
14.826207,-2.7431116,2.1399142999999996
14.826207,-2.7431116,2.1399142999999996
14.826207,-2.7431116,2.1399142999999996
14.826207,-2.7431116,2.1399142999999996
12.987891000000001,-1.5079931999999998,1.0962871
12.987891000000001,-1.5079931999999998,1.0962871
12.987891000000001,-1.5079931999999998,1.0962871
13.045339,-1.8814011999999998,-0.93351966
13.045339,-1.8814011999999998,-0.93351966
13.045339,-1.8814011999999998,-0.93351966
13.045339,-1.8814011999999998,-0.93351966
13.045339,-1.8814011999999998,-0.93351966
7.35805,-1.8909756999999998,-0.28244954
7.35805,-1.8909756999999998,-0.28244954
7.35805,-1.8909756999999998,-0.28244954
7.35805,-1.8909756999999998,-0.28244954
4.5622783,-1.2686293,-0.37819514
4.5622783,-1.2686293,-0.37819514
4.5622783,-1.2686293,-0.37819514
4.5622783,-1.2686293,-0.37819514
6.151655,-0.6079846,-1.776081
6.151655,-0.6079846,-1.776081
6.151655,-0.6079846,-1.776081
6.151655,-0.6079846,-1.776081
10.670848,-0.59841,-1.3165021000000001
10.670848,-0.59841,-1.3165021000000001
10.670848,-0.59841,-1.3165021000000001
10.670848,-0.59841,-1.3165021000000001
14.969825,-0.56011176,-0.9718179
14.969825,-0.56011176,-0.9718179
14.969825,-0.56011176,-0.9718179
14.969825,-0.56011176,-0.9718179
12.872996,-1.4026731000000001,-0.2154276
12.872996,-1.4026731000000001,-0.2154276
12.872996,-1.4026731000000001,-0.2154276
9.014449,-2.800559,2.0537431
9.014449,-2.800559,2.0537431
9.014449,-2.800559,2.0537431
9.014449,-2.800559,2.0537431
9.014449,-2.800559,2.0537431
8.5740185,-0.43564250000000004,1.3739493999999999
8.5740185,-0.43564250000000004,1.3739493999999999
8.5740185,-0.43564250000000004,1.3739493999999999
5.5963306,0.6079846,1.8335283
5.5963306,0.6079846,1.8335283
5.5963306,0.6079846,1.8335283
5.5963306,0.6079846,1.8335283
8.55487,-1.6228879999999999,1.1537346000000002
8.55487,-1.6228879999999999,1.1537346000000002
8.55487,-1.6228879999999999,1.1537346000000002
8.55487,-1.6228879999999999,1.1537346000000002
8.55487,-1.6228879999999999,1.1537346000000002
13.00704,-3.7197167999999996,0.78990126
13.00704,-3.7197167999999996,0.78990126
13.00704,-3.7197167999999996,0.78990126
15.869833999999999,-2.7909843999999997,1.4026731000000001
15.869833999999999,-2.7909843999999997,1.4026731000000001
15.869833999999999,-2.7909843999999997,1.4026731000000001
15.869833999999999,-2.7909843999999997,1.4026731000000001
15.869833999999999,-2.7909843999999997,1.4026731000000001
14.826207,-1.2111819,1.9292740000000002
14.826207,-1.2111819,1.9292740000000002
14.826207,-1.2111819,1.9292740000000002
14.826207,-1.2111819,1.9292740000000002
11.944264,-1.5175678999999997,0.54096264
11.944264,-1.5175678999999997,0.54096264
11.944264,-1.5175678999999997,0.54096264
11.101703,-2.101616,-0.59841
11.101703,-2.101616,-0.59841
11.101703,-2.101616,-0.59841
11.101703,-2.101616,-0.59841
5.8644185,-1.1058618,0.56968635
5.8644185,-1.1058618,0.56968635
5.8644185,-1.1058618,0.56968635
5.8644185,-1.1058618,0.56968635
5.8644185,-1.1058618,0.56968635
5.7686725,-0.5313880999999999,-0.37819514
5.7686725,-0.5313880999999999,-0.37819514
5.7686725,-0.5313880999999999,-0.37819514
5.7686725,-0.5313880999999999,-0.37819514
7.070812700000001,-1.0196906,-1.4888442
7.070812700000001,-1.0196906,-1.4888442
7.070812700000001,-1.0196906,-1.4888442
13.437895999999999,-0.6558574,-1.0675635
13.437895999999999,-0.6558574,-1.0675635
13.437895999999999,-0.6558574,-1.0675635
13.437895999999999,-0.6558574,-1.0675635
15.190041,0.49308985,-1.4792696
15.190041,0.49308985,-1.4792696
15.190041,0.49308985,-1.4792696
15.190041,0.49308985,-1.4792696
9.18679,-1.383524,0.14840569
9.18679,-1.383524,0.14840569
9.18679,-1.383524,0.14840569
9.18679,-1.383524,0.14840569
10.441058,-2.2165107999999996,1.2399056
10.441058,-2.2165107999999996,1.2399056
10.441058,-2.2165107999999996,1.2399056
10.441058,-2.2165107999999996,1.2399056
6.936769,0.05266008,1.1824582000000001
6.936769,0.05266008,1.1824582000000001
6.936769,0.05266008,1.1824582000000001
6.936769,0.05266008,1.1824582000000001
7.137835000000001,0.043085523,1.8048046999999998
7.137835000000001,0.043085523,1.8048046999999998
7.137835000000001,0.043085523,1.8048046999999998
10.460207,-2.6952388,1.1058618
10.460207,-2.6952388,1.1058618
10.460207,-2.6952388,1.1058618
10.460207,-2.6952388,1.1058618
10.460207,-2.6952388,1.1058618
14.76876,-3.3080106,1.5175678999999997
14.76876,-3.3080106,1.5175678999999997
14.76876,-3.3080106,1.5175678999999997
14.76876,-3.3080106,1.5175678999999997
14.242159,-2.0824668,2.149489
14.242159,-2.0824668,2.149489
14.242159,-2.0824668,2.149489
14.242159,-2.0824668,2.149489
11.829369999999999,-0.85692316,1.709059
11.829369999999999,-0.85692316,1.709059
11.829369999999999,-0.85692316,1.709059
11.829369999999999,-0.85692316,1.709059
13.399597,-2.8963046,-0.5888355
13.399597,-2.8963046,-0.5888355
13.399597,-2.8963046,-0.5888355
13.399597,-2.8963046,-0.5888355
9.158066999999999,-2.3505547000000004,-0.56968635
9.158066999999999,-2.3505547000000004,-0.56968635
9.158066999999999,-2.3505547000000004,-0.56968635
9.158066999999999,-2.3505547000000004,-0.56968635
5.8548436,-0.7228793,0.081383765
5.8548436,-0.7228793,0.081383765
5.8548436,-0.7228793,0.081383765
5.8548436,-0.7228793,0.081383765
7.875075999999999,-0.63670826,-1.2686293
7.875075999999999,-0.63670826,-1.2686293
7.875075999999999,-0.63670826,-1.2686293
7.875075999999999,-0.63670826,-1.2686293
12.576185,0.28244954,-1.7377827000000001
12.576185,0.28244954,-1.7377827000000001
12.576185,0.28244954,-1.7377827000000001
12.576185,0.28244954,-1.7377827000000001
13.074062,1.3356511999999998,-2.015445
13.074062,1.3356511999999998,-2.015445
13.074062,1.3356511999999998,-2.015445
11.26447,0.2920241,-1.3069274
11.26447,0.2920241,-1.3069274
11.26447,0.2920241,-1.3069274
11.26447,0.2920241,-1.3069274
11.26447,0.2920241,-1.3069274
10.220842999999999,-2.5228968,0.6271336999999999
10.220842999999999,-2.5228968,0.6271336999999999
10.220842999999999,-2.5228968,0.6271336999999999
7.9037995,-0.6079846,1.5654407
7.9037995,-0.6079846,1.5654407
7.9037995,-0.6079846,1.5654407
7.9037995,-0.6079846,1.5654407
7.9037995,-0.6079846,1.5654407
5.988887999999999,0.6750065,2.3122563
5.988887999999999,0.6750065,2.3122563
5.988887999999999,0.6750065,2.3122563
5.988887999999999,0.6750065,2.3122563
9.7899885,-1.6037389,1.5558661
9.7899885,-1.6037389,1.5558661
9.7899885,-1.6037389,1.5558661
14.864505,-3.6814184,1.709059
14.864505,-3.6814184,1.709059
14.864505,-3.6814184,1.709059
14.864505,-3.6814184,1.709059
14.337904,-1.7473572,2.6856642
14.337904,-1.7473572,2.6856642
14.337904,-1.7473572,2.6856642
14.337904,-1.7473572,2.6856642
14.337904,-1.7473572,2.6856642
13.878325,-1.3930986,2.4367256
13.878325,-1.3930986,2.4367256
13.878325,-1.3930986,2.4367256
13.878325,-1.3930986,2.4367256
13.083637,-2.7622607000000006,0.081383765
13.083637,-2.7622607000000006,0.081383765
13.083637,-2.7622607000000006,0.081383765
11.475111,-1.776081,-0.8760723
11.475111,-1.776081,-0.8760723
11.475111,-1.776081,-0.8760723
11.475111,-1.776081,-0.8760723
11.475111,-1.776081,-0.8760723
6.7165539999999995,-0.19627848,0.37819514
6.7165539999999995,-0.19627848,0.37819514
6.7165539999999995,-0.19627848,0.37819514
6.7165539999999995,-0.19627848,0.37819514
7.1857076,0.09095833,-0.77075213
7.1857076,0.09095833,-0.77075213
7.1857076,0.09095833,-0.77075213
8.210186,0.5888355,-1.8143792
8.210186,0.5888355,-1.8143792
8.210186,0.5888355,-1.8143792
8.210186,0.5888355,-1.8143792
8.210186,0.5888355,-1.8143792
12.174053,-0.28244954,-1.6994845
12.174053,-0.28244954,-1.6994845
12.174053,-0.28244954,-1.6994845
14.701737,-1.0771381000000002,-2.0824668
14.701737,-1.0771381000000002,-2.0824668
14.701737,-1.0771381000000002,-2.0824668
14.701737,-1.0771381000000002,-2.0824668
9.837861,-3.2218397000000003,1.9579976000000003
9.837861,-3.2218397000000003,1.9579976000000003
9.837861,-3.2218397000000003,1.9579976000000003
9.837861,-3.2218397000000003,1.9579976000000003
10.891063,-1.0771381000000002,0.6271336999999999
10.891063,-1.0771381000000002,0.6271336999999999
10.891063,-1.0771381000000002,0.6271336999999999
10.891063,-1.0771381000000002,0.6271336999999999
6.639958,0.69415563,1.5175678999999997
6.639958,0.69415563,1.5175678999999997
6.639958,0.69415563,1.5175678999999997
6.639958,0.69415563,1.5175678999999997
7.9420977,-1.0484143,2.0058703
7.9420977,-1.0484143,2.0058703
7.9420977,-1.0484143,2.0058703
7.9420977,-1.0484143,2.0058703
13.255979,-3.777164,1.4792696
13.255979,-3.777164,1.4792696
13.255979,-3.777164,1.4792696
13.255979,-3.777164,1.4792696
14.759185,-2.8771553,2.1782124
14.759185,-2.8771553,2.1782124
14.759185,-2.8771553,2.1782124
14.759185,-2.8771553,2.1782124
14.452798999999999,-0.512239,1.7952299999999999
14.452798999999999,-0.512239,1.7952299999999999
14.452798999999999,-0.512239,1.7952299999999999
14.452798999999999,-0.512239,1.7952299999999999
13.447470000000001,-2.8484317999999997,0.12925656
13.447470000000001,-2.8484317999999997,0.12925656
13.447470000000001,-2.8484317999999997,0.12925656
13.447470000000001,-2.8484317999999997,0.12925656
11.877241999999999,-2.5803439999999997,-0.751603
11.877241999999999,-2.5803439999999997,-0.751603
11.877241999999999,-2.5803439999999997,-0.751603
11.877241999999999,-2.5803439999999997,-0.751603
6.639958,-0.54096264,0.47394073
6.639958,-0.54096264,0.47394073
6.639958,-0.54096264,0.47394073
6.639958,-0.54096264,0.47394073
6.8793216,-0.22500217,-0.5505372
6.8793216,-0.22500217,-0.5505372
6.8793216,-0.22500217,-0.5505372
6.8793216,-0.22500217,-0.5505372
8.736787,-0.32074776,-2.1111906000000005
8.736787,-0.32074776,-2.1111906000000005
8.736787,-0.32074776,-2.1111906000000005
8.736787,-0.32074776,-2.1111906000000005
12.949593,0.512239,-1.9962958
12.949593,0.512239,-1.9962958
12.949593,0.512239,-1.9962958
12.949593,0.512239,-1.9962958
13.734707,0.4164934,-1.6899098999999997
13.734707,0.4164934,-1.6899098999999997
13.734707,0.4164934,-1.6899098999999997
13.734707,0.4164934,-1.6899098999999997
10.431483,-2.4654493,0.91437054
10.431483,-2.4654493,0.91437054
10.431483,-2.4654493,0.91437054
10.431483,-2.4654493,0.91437054
10.891063,-0.7994758000000001,2.4175766
10.891063,-0.7994758000000001,2.4175766
10.891063,-0.7994758000000001,2.4175766
10.891063,-0.7994758000000001,2.4175766
6.113357,1.6420371999999999,2.0250196
6.113357,1.6420371999999999,2.0250196
6.113357,1.6420371999999999,2.0250196
6.113357,1.6420371999999999,2.0250196
8.11444,-0.56968635,1.4313968000000001
8.11444,-0.56968635,1.4313968000000001
8.11444,-0.56968635,1.4313968000000001
8.11444,-0.56968635,1.4313968000000001
13.495343,-4.0739756,-0.20585304
13.495343,-4.0739756,-0.20585304
13.495343,-4.0739756,-0.20585304
13.495343,-4.0739756,-0.20585304
14.021944,-4.7537694,1.0196906
14.021944,-4.7537694,1.0196906
14.021944,-4.7537694,1.0196906
14.021944,-4.7537694,1.0196906
14.87408,-1.8335283,1.6420371999999999
14.87408,-1.8335283,1.6420371999999999
14.87408,-1.8335283,1.6420371999999999
14.87408,-1.8335283,1.6420371999999999
12.67193,-2.408002,0.83777404
12.67193,-2.408002,0.83777404
12.67193,-2.408002,0.83777404
12.67193,-2.408002,0.83777404
12.758101,-2.4654493,-0.7420284
12.758101,-2.4654493,-0.7420284
12.758101,-2.4654493,-0.7420284
12.758101,-2.4654493,-0.7420284
7.319751299999999,-0.8664976999999999,0.8090504
7.319751299999999,-0.8664976999999999,0.8090504
7.319751299999999,-0.8664976999999999,0.8090504
7.319751299999999,-0.8664976999999999,0.8090504
5.8644185,-0.2441513,0.12925656
5.8644185,-0.2441513,0.12925656
5.8644185,-0.2441513,0.12925656
6.113357,-0.5792609000000001,-1.1824582000000001
6.113357,-0.5792609000000001,-1.1824582000000001
6.113357,-0.5792609000000001,-1.1824582000000001
6.113357,-0.5792609000000001,-1.1824582000000001
6.113357,-0.5792609000000001,-1.1824582000000001
11.810221,-0.8760723,-1.0196906
11.810221,-0.8760723,-1.0196906
11.810221,-0.8760723,-1.0196906
14.558119,-0.9430941999999999,-1.3260766000000002
14.558119,-0.9430941999999999,-1.3260766000000002
14.558119,-0.9430941999999999,-1.3260766000000002
14.558119,-0.9430941999999999,-1.3260766000000002
12.0400095,-0.9526688,-0.20585304
12.0400095,-0.9526688,-0.20585304
12.0400095,-0.9526688,-0.20585304
12.0400095,-0.9526688,-0.20585304
12.0400095,-0.9526688,-0.20585304
10.776167999999998,-2.254809,1.5271424
10.776167999999998,-2.254809,1.5271424
10.776167999999998,-2.254809,1.5271424
6.4197426,-0.22500217,1.6516117
6.4197426,-0.22500217,1.6516117
6.4197426,-0.22500217,1.6516117
6.4197426,-0.22500217,1.6516117
4.916537,0.64628285,2.0058703
4.916537,0.64628285,2.0058703
4.916537,0.64628285,2.0058703
4.916537,0.64628285,2.0058703
4.916537,0.64628285,2.0058703
10.182545,-1.9005502,0.71330476
10.182545,-1.9005502,0.71330476
10.182545,-1.9005502,0.71330476
10.182545,-1.9005502,0.71330476
13.677259,-3.3367343000000003,1.1154363
13.677259,-3.3367343000000003,1.1154363
13.677259,-3.3367343000000003,1.1154363
15.161317000000002,-2.7431116,1.7856555
15.161317000000002,-2.7431116,1.7856555
15.161317000000002,-2.7431116,1.7856555
15.161317000000002,-2.7431116,1.7856555
15.161317000000002,-2.7431116,1.7856555
14.041093,-1.4218222,1.7665064
14.041093,-1.4218222,1.7665064
14.041093,-1.4218222,1.7665064
14.041093,-1.4218222,1.7665064
12.46129,-1.9579976000000003,-0.16755481
12.46129,-1.9579976000000003,-0.16755481
12.46129,-1.9579976000000003,-0.16755481
8.181462,-2.3505547000000004,0.19627848
8.181462,-2.3505547000000004,0.19627848
8.181462,-2.3505547000000004,0.19627848
8.181462,-2.3505547000000004,0.19627848
8.181462,-2.3505547000000004,0.19627848
4.5622783,-1.0867126,0.90479594
4.5622783,-1.0867126,0.90479594
4.5622783,-1.0867126,0.90479594
4.5622783,-1.0867126,0.90479594
6.151655,-0.5218136,-0.8090504
6.151655,-0.5218136,-0.8090504
6.151655,-0.5218136,-0.8090504
11.092129,0.56011176,-1.4888442
11.092129,0.56011176,-1.4888442
11.092129,0.56011176,-1.4888442
11.092129,0.56011176,-1.4888442
15.103869,0.6845810999999999,-1.9675721999999998
15.103869,0.6845810999999999,-1.9675721999999998
15.103869,0.6845810999999999,-1.9675721999999998
15.103869,0.6845810999999999,-1.9675721999999998
15.103869,0.6845810999999999,-1.9675721999999998
11.925115,-0.6079846,-1.3356511999999998
11.925115,-0.6079846,-1.3356511999999998
11.925115,-0.6079846,-1.3356511999999998
11.925115,-0.6079846,-1.3356511999999998
10.689997,-2.427151,1.5079931999999998
10.689997,-2.427151,1.5079931999999998
10.689997,-2.427151,1.5079931999999998
8.133589,-0.110107444,1.3260766000000002
8.133589,-0.110107444,1.3260766000000002
8.133589,-0.110107444,1.3260766000000002
8.133589,-0.110107444,1.3260766000000002
8.133589,-0.110107444,1.3260766000000002
8.133589,-0.110107444,1.3260766000000002
8.133589,-0.110107444,1.3260766000000002
8.133589,-0.110107444,1.3260766000000002
9.215514,-1.0867126,0.5313880999999999
9.215514,-1.0867126,0.5313880999999999
9.215514,-1.0867126,0.5313880999999999
14.30918,-3.671844,0.18670394
14.30918,-3.671844,0.18670394
14.30918,-3.671844,0.18670394
14.30918,-3.671844,0.18670394
14.30918,-3.671844,0.18670394
13.859176999999999,-3.2888615,1.0579889
13.859176999999999,-3.2888615,1.0579889
13.859176999999999,-3.2888615,1.0579889
14.357054000000002,-2.3697037999999995,1.7856555
14.357054000000002,-2.3697037999999995,1.7856555
14.357054000000002,-2.3697037999999995,1.7856555
14.357054000000002,-2.3697037999999995,1.7856555
13.121935,-1.3452256999999999,0.3398969
13.121935,-1.3452256999999999,0.3398969
13.121935,-1.3452256999999999,0.3398969
13.121935,-1.3452256999999999,0.3398969
13.121935,-1.3452256999999999,0.3398969
10.594251,-1.9005502,-0.40691882
10.594251,-1.9005502,-0.40691882
10.594251,-1.9005502,-0.40691882
5.347392,-0.6750065,0.512239
5.347392,-0.6750065,0.512239
5.347392,-0.6750065,0.512239
5.347392,-0.6750065,0.512239
5.328243,-0.71330476,-0.56011176
5.328243,-0.71330476,-0.56011176
5.328243,-0.71330476,-0.56011176
5.328243,-0.71330476,-0.56011176
5.328243,-0.71330476,-0.56011176
7.5399666,-0.4164934,-1.6037389
7.5399666,-0.4164934,-1.6037389
7.5399666,-0.4164934,-1.6037389
15.831535,0.0718092,-1.9101248
15.831535,0.0718092,-1.9101248
15.831535,0.0718092,-1.9101248
15.831535,0.0718092,-1.9101248
14.816632,1.2782038,-1.8814011999999998
14.816632,1.2782038,-1.8814011999999998
14.816632,1.2782038,-1.8814011999999998
14.816632,1.2782038,-1.8814011999999998
10.814466,-1.3069274,0.7420284
10.814466,-1.3069274,0.7420284
10.814466,-1.3069274,0.7420284
10.814466,-1.3069274,0.7420284
9.579348,-0.63670826,1.4026731000000001
9.579348,-0.63670826,1.4026731000000001
9.579348,-0.63670826,1.4026731000000001
9.579348,-0.63670826,1.4026731000000001
5.328243,2.2931072999999995,2.1782124
5.328243,2.2931072999999995,2.1782124
5.328243,2.2931072999999995,2.1782124
5.328243,2.2931072999999995,2.1782124
7.5495410000000005,-0.30159867,0.98139244
7.5495410000000005,-0.30159867,0.98139244
7.5495410000000005,-0.30159867,0.98139244
7.5495410000000005,-0.30159867,0.98139244
12.509163000000001,-3.3271596,-0.56011176
12.509163000000001,-3.3271596,-0.56011176
12.509163000000001,-3.3271596,-0.56011176
12.509163000000001,-3.3271596,-0.56011176
14.673014000000002,-5.4048395,0.17712937
14.673014000000002,-5.4048395,0.17712937
14.673014000000002,-5.4048395,0.17712937
14.673014000000002,-5.4048395,0.17712937
14.673014000000002,-5.4048395,0.17712937
15.936856,-2.561195,2.0058703
15.936856,-2.561195,2.0058703
15.936856,-2.561195,2.0058703
12.557036,-0.6750065,1.5462915000000002
12.557036,-0.6750065,1.5462915000000002
12.557036,-0.6750065,1.5462915000000002
12.557036,-0.6750065,1.5462915000000002
12.758101,-2.0920415,-0.42606795
12.758101,-2.0920415,-0.42606795
12.758101,-2.0920415,-0.42606795
12.758101,-2.0920415,-0.42606795
7.0037910000000005,-1.1345854,0.25372586
7.0037910000000005,-1.1345854,0.25372586
7.0037910000000005,-1.1345854,0.25372586
7.0037910000000005,-1.1345854,0.25372586
5.7208,-1.0196906,-1.2207563999999997
5.7208,-1.0196906,-1.2207563999999997
5.7208,-1.0196906,-1.2207563999999997
5.7208,-1.0196906,-1.2207563999999997
7.4920936000000005,0.7228793,-1.5845897
7.4920936000000005,0.7228793,-1.5845897
7.4920936000000005,0.7228793,-1.5845897
12.490014,0.23457673,-0.5313880999999999
12.490014,0.23457673,-0.5313880999999999
12.490014,0.23457673,-0.5313880999999999
12.490014,0.23457673,-0.5313880999999999
12.490014,0.23457673,-0.5313880999999999
14.787908999999999,0.110107444,-1.383524
14.787908999999999,0.110107444,-1.383524
14.787908999999999,0.110107444,-1.383524
14.787908999999999,0.110107444,-1.383524
10.757019,-1.9962958,-0.34947145
10.757019,-1.9962958,-0.34947145
10.757019,-1.9962958,-0.34947145
10.335738000000001,-2.408002,2.149489
10.335738000000001,-2.408002,2.149489
10.335738000000001,-2.408002,2.149489
10.335738000000001,-2.408002,2.149489
10.335738000000001,-2.408002,2.149489
5.797396,0.09095833,1.5079931999999998
5.797396,0.09095833,1.5079931999999998
5.797396,0.09095833,1.5079931999999998
7.922949000000001,-0.359046,2.6377914000000002
7.922949000000001,-0.359046,2.6377914000000002
7.922949000000001,-0.359046,2.6377914000000002
7.922949000000001,-0.359046,2.6377914000000002
7.922949000000001,-0.359046,2.6377914000000002
7.922949000000001,-0.359046,2.6377914000000002
7.922949000000001,-0.359046,2.6377914000000002
7.922949000000001,-0.359046,2.6377914000000002
13.323001000000001,-5.7016506,0.18670394
13.323001000000001,-5.7016506,0.18670394
13.323001000000001,-5.7016506,0.18670394
13.323001000000001,-5.7016506,0.18670394
13.246405,-3.5665237999999997,0.19627848
13.246405,-3.5665237999999997,0.19627848
13.246405,-3.5665237999999997,0.19627848
13.246405,-3.5665237999999997,0.19627848
14.519820999999999,-1.862252,0.36862057
14.519820999999999,-1.862252,0.36862057
14.519820999999999,-1.862252,0.36862057
14.519820999999999,-1.862252,0.36862057
12.968742,-2.3026817000000004,-0.83777404
12.968742,-2.3026817000000004,-0.83777404
12.968742,-2.3026817000000004,-0.83777404
12.968742,-2.3026817000000004,-0.83777404
6.333572,-1.4984187,0.0718092
6.333572,-1.4984187,0.0718092
6.333572,-1.4984187,0.0718092
3.518651,-0.081383765,-0.27287498
3.518651,-0.081383765,-0.27287498
3.518651,-0.081383765,-0.27287498
3.518651,-0.081383765,-0.27287498
3.518651,-0.081383765,-0.27287498
7.271878699999999,-0.00478728,-1.5941644
7.271878699999999,-0.00478728,-1.5941644
7.271878699999999,-0.00478728,-1.5941644
7.271878699999999,-0.00478728,-1.5941644
12.288948,-0.9622433000000001,-2.015445
12.288948,-0.9622433000000001,-2.015445
12.288948,-0.9622433000000001,-2.015445
12.537887,-0.26330042,-0.93351966
12.537887,-0.26330042,-0.93351966
12.537887,-0.26330042,-0.93351966
12.537887,-0.26330042,-0.93351966
12.537887,-0.26330042,-0.93351966
13.859176999999999,-1.0101161,-0.56968635
13.859176999999999,-1.0101161,-0.56968635
13.859176999999999,-1.0101161,-0.56968635
11.321918,-2.3505547000000004,2.2165107999999996
11.321918,-2.3505547000000004,2.2165107999999996
11.321918,-2.3505547000000004,2.2165107999999996
11.321918,-2.3505547000000004,2.2165107999999996
6.7357035000000005,0.47394073,2.5994933
6.7357035000000005,0.47394073,2.5994933
6.7357035000000005,0.47394073,2.5994933
6.7357035000000005,0.47394073,2.5994933
6.7357035000000005,0.47394073,2.5994933
4.504830999999999,0.5313880999999999,2.5228968
4.504830999999999,0.5313880999999999,2.5228968
4.504830999999999,0.5313880999999999,2.5228968
8.851681,-2.0058703,0.5792609000000001
8.851681,-2.0058703,0.5792609000000001
8.851681,-2.0058703,0.5792609000000001
8.851681,-2.0058703,0.5792609000000001
14.66344,-3.6622693999999996,0.2441513
14.66344,-3.6622693999999996,0.2441513
14.66344,-3.6622693999999996,0.2441513
14.66344,-3.6622693999999996,0.2441513
