accx,accy,accz
8.746361,-3.6143966,7.463369999999999
10.259142,-5.2516465,7.434646000000001
10.259142,-5.2516465,7.434646000000001
10.259142,-5.2516465,7.434646000000001
10.259142,-5.2516465,7.434646000000001
9.359133,-3.777164,6.180379
9.359133,-3.777164,6.180379
9.359133,-3.777164,6.180379
9.359133,-3.777164,6.180379
8.55487,-4.121848,4.121848
8.55487,-4.121848,4.121848
8.55487,-4.121848,4.121848
8.55487,-4.121848,4.121848
8.698488000000001,-4.8973875,3.3367343000000003
8.698488000000001,-4.8973875,3.3367343000000003
8.698488000000001,-4.8973875,3.3367343000000003
8.698488000000001,-4.8973875,3.3367343000000003
9.014449,-3.7388659,3.3175852
9.014449,-3.7388659,3.3175852
9.014449,-3.7388659,3.3175852
9.014449,-3.7388659,3.3175852
9.119769,-3.7867386,2.8771553
9.119769,-3.7867386,2.8771553
9.119769,-3.7867386,2.8771553
9.119769,-3.7867386,2.8771553
9.703816999999999,-3.6143966,2.8963046
9.703816999999999,-3.6143966,2.8963046
9.703816999999999,-3.6143966,2.8963046
9.703816999999999,-3.6143966,2.8963046
9.225089,-3.0877957,2.4845984
9.225089,-3.0877957,2.4845984
9.225089,-3.0877957,2.4845984
9.225089,-3.0877957,2.4845984
9.225089,-3.0877957,2.4845984
9.435728999999998,-2.666515,2.7718353
9.435728999999998,-2.666515,2.7718353
9.435728999999998,-2.666515,2.7718353
9.225089,-2.6856642,2.561195
9.225089,-2.6856642,2.561195
9.225089,-2.6856642,2.561195
9.225089,-2.6856642,2.561195
9.397431,-2.905879,2.666515
9.397431,-2.905879,2.666515
9.397431,-2.905879,2.666515
9.397431,-2.905879,2.666515
9.397431,-2.905879,2.666515
9.761265,-3.039923,2.7048132000000003
9.761265,-3.039923,2.7048132000000003
9.761265,-3.039923,2.7048132000000003
9.722966,-2.733537,2.7048132000000003
9.722966,-2.733537,2.7048132000000003
9.722966,-2.733537,2.7048132000000003
9.722966,-2.733537,2.7048132000000003
9.722966,-2.733537,2.7048132000000003
9.5219,-2.3888528,2.5420458
9.5219,-2.3888528,2.5420458
9.5219,-2.3888528,2.5420458
9.5219,-2.3888528,2.5420458
9.3878565,-2.427151,2.3026817000000004
9.3878565,-2.427151,2.3026817000000004
9.3878565,-2.427151,2.3026817000000004
9.617646,-2.360129,2.2069361
9.617646,-2.360129,2.2069361
9.617646,-2.360129,2.2069361
9.617646,-2.360129,2.2069361
9.31126,-2.3888528,2.1207652
9.31126,-2.3888528,2.1207652
9.31126,-2.3888528,2.1207652
9.31126,-2.3888528,2.1207652
9.320834,-2.3984275,2.1590632999999997
9.320834,-2.3984275,2.1590632999999997
9.320834,-2.3984275,2.1590632999999997
9.320834,-2.3984275,2.1590632999999997
9.608071,-2.4654493,2.254809
9.608071,-2.4654493,2.254809
9.608071,-2.4654493,2.254809
9.608071,-2.4654493,2.254809
9.378282,-2.5324712000000003,2.2452345
9.378282,-2.5324712000000003,2.2452345
9.378282,-2.5324712000000003,2.2452345
9.378282,-2.5324712000000003,2.2452345
9.483603,-2.4463003,2.3984275
9.483603,-2.4463003,2.3984275
9.483603,-2.4463003,2.3984275
9.483603,-2.4463003,2.3984275
9.64637,-2.4845984,2.5324712000000003
9.64637,-2.4845984,2.5324712000000003
9.64637,-2.4845984,2.5324712000000003
9.64637,-2.4845984,2.5324712000000003
9.397431,-2.513322,2.408002
9.397431,-2.513322,2.408002
9.397431,-2.513322,2.408002
9.397431,-2.513322,2.408002
9.445304,-2.494173,2.408002
9.445304,-2.494173,2.408002
9.445304,-2.494173,2.408002
9.445304,-2.494173,2.408002
9.435728999999998,-2.5037475,2.360129
9.435728999999998,-2.5037475,2.360129
9.435728999999998,-2.5037475,2.360129
9.435728999999998,-2.5037475,2.360129
9.41658,-2.5037475,2.3505547000000004
9.41658,-2.5037475,2.3505547000000004
9.41658,-2.5037475,2.3505547000000004
9.41658,-2.5037475,2.3505547000000004
9.454879,-2.561195,2.360129
9.454879,-2.561195,2.360129
9.454879,-2.561195,2.360129
9.454879,-2.561195,2.360129
9.3878565,-2.5037475,2.4175766
9.3878565,-2.5037475,2.4175766
9.3878565,-2.5037475,2.4175766
9.3878565,-2.5037475,2.4175766
9.41658,-2.5037475,2.561195
9.41658,-2.5037475,2.561195
9.41658,-2.5037475,2.561195
9.41658,-2.5037475,2.561195
9.483603,-2.4463003,2.5899186000000003
9.483603,-2.4463003,2.5899186000000003
9.483603,-2.4463003,2.5899186000000003
9.483603,-2.4463003,2.5899186000000003
9.483603,-2.4463003,2.5899186000000003
9.483603,-2.4463003,2.5899186000000003
9.483603,-2.4463003,2.5899186000000003
9.368708,-2.427151,2.3505547000000004
9.368708,-2.427151,2.3505547000000004
9.368708,-2.427151,2.3505547000000004
9.368708,-2.427151,2.3505547000000004
9.454879,-2.4750240000000003,2.2165107999999996
9.454879,-2.4750240000000003,2.2165107999999996
9.454879,-2.4750240000000003,2.2165107999999996
9.454879,-2.4750240000000003,2.2165107999999996
9.493176,-2.4750240000000003,2.2356597999999996
9.493176,-2.4750240000000003,2.2356597999999996
9.493176,-2.4750240000000003,2.2356597999999996
9.493176,-2.4750240000000003,2.2356597999999996
9.426155,-2.4367256,2.2356597999999996
9.426155,-2.4367256,2.2356597999999996
9.426155,-2.4367256,2.2356597999999996
9.426155,-2.4367256,2.2356597999999996
9.426155,-2.4367256,2.2356597999999996
9.426155,-2.4367256,2.2356597999999996
9.426155,-2.4367256,2.2356597999999996
9.426155,-2.4367256,2.2356597999999996
9.493176,-2.3888528,2.4367256
9.493176,-2.3888528,2.4367256
9.493176,-2.3888528,2.4367256
9.483603,-2.3984275,2.408002
9.483603,-2.3984275,2.408002
9.483603,-2.3984275,2.408002
9.483603,-2.3984275,2.408002
9.483603,-2.3984275,2.408002
9.426155,-2.4463003,2.360129
9.426155,-2.4463003,2.360129
9.426155,-2.4463003,2.360129
9.426155,-2.4463003,2.360129
9.531475,-2.5037475,2.321831
9.531475,-2.5037475,2.321831
9.531475,-2.5037475,2.321831
9.531475,-2.5037475,2.321831
9.435728999999998,-2.5516202,2.3505547000000004
9.435728999999998,-2.5516202,2.3505547000000004
9.435728999999998,-2.5516202,2.3505547000000004
9.435728999999998,-2.5516202,2.3505547000000004
9.41658,-2.4750240000000003,2.3888528
9.41658,-2.4750240000000003,2.3888528
9.41658,-2.4750240000000003,2.3888528
9.41658,-2.4750240000000003,2.3888528
9.464453,-2.5707695,2.3314054
9.464453,-2.5707695,2.3314054
9.464453,-2.5707695,2.3314054
9.464453,-2.5707695,2.3314054
9.464453,-2.408002,2.3984275
9.464453,-2.408002,2.3984275
9.464453,-2.408002,2.3984275
9.464453,-2.408002,2.3984275
9.3878565,-2.3792782000000003,2.3984275
9.3878565,-2.3792782000000003,2.3984275
9.3878565,-2.3792782000000003,2.3984275
9.3878565,-2.3792782000000003,2.3984275
9.454879,-2.4367256,2.513322
9.454879,-2.4367256,2.513322
9.454879,-2.4367256,2.513322
9.454879,-2.4367256,2.513322
9.407005,-2.5037475,2.4654493
9.407005,-2.5037475,2.4654493
9.407005,-2.5037475,2.4654493
9.407005,-2.5037475,2.4654493
9.435728999999998,-2.4367256,2.4367256
9.435728999999998,-2.4367256,2.4367256
9.435728999999998,-2.4367256,2.4367256
9.435728999999998,-2.4367256,2.4367256
9.407005,-2.4654493,2.3314054
9.407005,-2.4654493,2.3314054
9.407005,-2.4654493,2.3314054
9.407005,-2.4654493,2.3314054
9.407005,-2.4463003,2.321831
9.407005,-2.4463003,2.321831
9.407005,-2.4463003,2.321831
9.407005,-2.4463003,2.321831
9.474028,-2.4367256,2.34098
9.474028,-2.4367256,2.34098
9.474028,-2.4367256,2.34098
9.474028,-2.4367256,2.34098
9.464453,-2.5037475,2.3984275
9.464453,-2.5037475,2.3984275
9.464453,-2.5037475,2.3984275
9.464453,-2.5037475,2.3984275
9.435728999999998,-2.4558747000000003,2.513322
9.435728999999998,-2.4558747000000003,2.513322
9.435728999999998,-2.4558747000000003,2.513322
9.435728999999998,-2.4558747000000003,2.513322
9.502751,-2.4175766,2.427151
9.502751,-2.4175766,2.427151
9.502751,-2.4175766,2.427151
9.502751,-2.4175766,2.427151
9.483603,-2.427151,2.3314054
9.483603,-2.427151,2.3314054
9.483603,-2.427151,2.3314054
9.483603,-2.427151,2.3314054
9.435728999999998,-2.4558747000000003,2.2835326
9.435728999999998,-2.4558747000000003,2.2835326
9.435728999999998,-2.4558747000000003,2.2835326
9.435728999999998,-2.4558747000000003,2.2835326
9.454879,-2.513322,2.2643836
9.454879,-2.513322,2.2643836
9.454879,-2.513322,2.2643836
9.454879,-2.513322,2.2643836
9.531475,-2.5228968,2.3505547000000004
9.531475,-2.5228968,2.3505547000000004
9.531475,-2.5228968,2.3505547000000004
9.531475,-2.5228968,2.3505547000000004
9.531475,-2.4463003,2.3697037999999995
9.531475,-2.4463003,2.3697037999999995
9.531475,-2.4463003,2.3697037999999995
9.531475,-2.4463003,2.3697037999999995
9.426155,-2.427151,2.3888528
9.426155,-2.427151,2.3888528
9.426155,-2.427151,2.3888528
9.426155,-2.427151,2.3888528
9.474028,-2.3505547000000004,2.4175766
9.474028,-2.3505547000000004,2.4175766
9.474028,-2.3505547000000004,2.4175766
9.474028,-2.3505547000000004,2.4175766
9.445304,-2.3792782000000003,2.34098
9.445304,-2.3792782000000003,2.34098
9.445304,-2.3792782000000003,2.34098
9.445304,-2.3792782000000003,2.34098
9.454879,-2.408002,2.2931072999999995
9.454879,-2.408002,2.2931072999999995
9.454879,-2.408002,2.2931072999999995
9.454879,-2.408002,2.2931072999999995
9.397431,-2.4367256,2.254809
9.397431,-2.4367256,2.254809
9.397431,-2.4367256,2.254809
9.397431,-2.4367256,2.254809
9.41658,-2.4175766,2.3122563
9.41658,-2.4175766,2.3122563
9.41658,-2.4175766,2.3122563
9.41658,-2.4175766,2.3122563
9.493176,-2.4367256,2.360129
9.493176,-2.4367256,2.360129
9.493176,-2.4367256,2.360129
9.493176,-2.4367256,2.360129
9.426155,-2.4463003,2.360129
9.426155,-2.4463003,2.360129
9.426155,-2.4463003,2.360129
9.426155,-2.4463003,2.360129
9.426155,-2.4463003,2.360129
9.426155,-2.4463003,2.360129
9.426155,-2.4463003,2.360129
9.483603,-2.4463003,2.4367256
9.483603,-2.4463003,2.4367256
9.483603,-2.4463003,2.4367256
9.483603,-2.4463003,2.4367256
9.512326,-2.3792782000000003,2.3984275
9.512326,-2.3792782000000003,2.3984275
9.512326,-2.3792782000000003,2.3984275
9.512326,-2.3792782000000003,2.3984275
9.483603,-2.360129,2.34098
9.483603,-2.360129,2.34098
9.483603,-2.360129,2.34098
9.483603,-2.360129,2.34098
9.426155,-2.3026817000000004,2.360129
9.426155,-2.3026817000000004,2.360129
9.426155,-2.3026817000000004,2.360129
9.426155,-2.3026817000000004,2.360129
9.5219,-2.34098,2.3697037999999995
9.5219,-2.34098,2.3697037999999995
9.5219,-2.34098,2.3697037999999995
9.5219,-2.34098,2.3697037999999995
9.483603,-2.360129,2.3984275
9.483603,-2.360129,2.3984275
9.483603,-2.360129,2.3984275
9.454879,-2.3697037999999995,2.408002
9.454879,-2.3697037999999995,2.408002
9.454879,-2.3697037999999995,2.408002
9.454879,-2.3697037999999995,2.408002
9.454879,-2.3697037999999995,2.408002
9.407005,-2.3888528,2.427151
9.407005,-2.3888528,2.427151
9.407005,-2.3888528,2.427151
9.483603,-2.408002,2.34098
9.483603,-2.408002,2.34098
9.483603,-2.408002,2.34098
9.483603,-2.408002,2.34098
9.493176,-2.408002,2.321831
9.493176,-2.408002,2.321831
9.493176,-2.408002,2.321831
9.493176,-2.408002,2.321831
9.41658,-2.360129,2.360129
9.41658,-2.360129,2.360129
9.41658,-2.360129,2.360129
9.41658,-2.360129,2.360129
9.483603,-2.3505547000000004,2.427151
9.483603,-2.3505547000000004,2.427151
9.483603,-2.3505547000000004,2.427151
9.483603,-2.3505547000000004,2.427151
9.569773,-2.360129,2.4558747000000003
9.569773,-2.360129,2.4558747000000003
9.569773,-2.360129,2.4558747000000003
9.3878565,-2.2931072999999995,2.4367256
9.3878565,-2.2931072999999995,2.4367256
9.3878565,-2.2931072999999995,2.4367256
9.3878565,-2.2931072999999995,2.4367256
9.3878565,-2.2931072999999995,2.4367256
9.454879,-2.3026817000000004,2.3888528
9.454879,-2.3026817000000004,2.3888528
9.454879,-2.3026817000000004,2.3888528
9.54105,-2.3984275,2.4558747000000003
9.54105,-2.3984275,2.4558747000000003
9.54105,-2.3984275,2.4558747000000003
9.54105,-2.3984275,2.4558747000000003
9.426155,-2.4175766,2.360129
9.426155,-2.4175766,2.360129
9.426155,-2.4175766,2.360129
9.426155,-2.4175766,2.360129
9.435728999999998,-2.3697037999999995,2.408002
9.435728999999998,-2.3697037999999995,2.408002
9.435728999999998,-2.3697037999999995,2.408002
9.435728999999998,-2.3697037999999995,2.408002
9.512326,-2.4367256,2.4175766
9.512326,-2.4367256,2.4175766
9.512326,-2.4367256,2.4175766
9.512326,-2.4367256,2.4175766
9.464453,-2.3505547000000004,2.4175766
9.464453,-2.3505547000000004,2.4175766
9.464453,-2.3505547000000004,2.4175766
9.464453,-2.3505547000000004,2.4175766
9.445304,-2.2931072999999995,2.3888528
9.445304,-2.2931072999999995,2.3888528
9.445304,-2.2931072999999995,2.3888528
9.445304,-2.2931072999999995,2.3888528
9.512326,-2.321831,2.3792782000000003
9.512326,-2.321831,2.3792782000000003
9.512326,-2.321831,2.3792782000000003
9.512326,-2.321831,2.3792782000000003
9.493176,-2.3505547000000004,2.3792782000000003
9.493176,-2.3505547000000004,2.3792782000000003
9.493176,-2.3505547000000004,2.3792782000000003
9.493176,-2.3505547000000004,2.3792782000000003
9.397431,-2.2835326,2.3984275
9.397431,-2.2835326,2.3984275
9.397431,-2.2835326,2.3984275
9.397431,-2.2835326,2.3984275
9.5889225,-2.3505547000000004,2.513322
9.5889225,-2.3505547000000004,2.513322
9.5889225,-2.3505547000000004,2.513322
9.512326,-2.4175766,2.4750240000000003
9.512326,-2.4175766,2.4750240000000003
9.512326,-2.4175766,2.4750240000000003
9.512326,-2.4175766,2.4750240000000003
9.378282,-2.2739582,2.4750240000000003
9.378282,-2.2739582,2.4750240000000003
9.378282,-2.2739582,2.4750240000000003
9.378282,-2.2739582,2.4750240000000003
9.378282,-2.2739582,2.4750240000000003
9.464453,-2.4558747000000003,2.427151
9.464453,-2.4558747000000003,2.427151
9.464453,-2.4558747000000003,2.427151
9.483603,-2.513322,2.5037475
9.483603,-2.513322,2.5037475
9.483603,-2.513322,2.5037475
9.483603,-2.513322,2.5037475
9.483603,-2.513322,2.5037475
9.426155,-2.5037475,2.5228968
9.426155,-2.5037475,2.5228968
9.426155,-2.5037475,2.5228968
9.426155,-2.5037475,2.5228968
9.445304,-2.2165107999999996,2.5516202
9.445304,-2.2165107999999996,2.5516202
9.445304,-2.2165107999999996,2.5516202
9.378282,-2.2356597999999996,2.408002
9.378282,-2.2356597999999996,2.408002
9.378282,-2.2356597999999996,2.408002
9.378282,-2.2356597999999996,2.408002
9.378282,-2.2356597999999996,2.408002
9.3878565,-2.1590632999999997,2.408002
9.3878565,-2.1590632999999997,2.408002
9.3878565,-2.1590632999999997,2.408002
9.445304,-2.2356597999999996,2.513322
9.445304,-2.2356597999999996,2.513322
9.445304,-2.2356597999999996,2.513322
9.445304,-2.2356597999999996,2.513322
9.445304,-2.2356597999999996,2.513322
9.445304,-2.3026817000000004,2.6952388
9.445304,-2.3026817000000004,2.6952388
9.445304,-2.3026817000000004,2.6952388
9.445304,-2.3026817000000004,2.6952388
9.426155,-2.6186423,2.7622607000000006
9.426155,-2.6186423,2.7622607000000006
9.426155,-2.6186423,2.7622607000000006
9.426155,-2.6186423,2.7622607000000006
9.502751,-3.0016246,2.9346027
9.502751,-3.0016246,2.9346027
9.502751,-3.0016246,2.9346027
9.454879,-2.8771553,2.9633265
9.454879,-2.8771553,2.9633265
9.454879,-2.8771553,2.9633265
9.454879,-2.8771553,2.9633265
9.512326,-2.7909843999999997,3.039923
9.512326,-2.7909843999999997,3.039923
9.512326,-2.7909843999999997,3.039923
9.512326,-2.7909843999999997,3.039923
9.464453,-2.1973617,3.3175852
9.464453,-2.1973617,3.3175852
9.464453,-2.1973617,3.3175852
9.464453,-2.1973617,3.3175852
9.770839,-1.5367169,4.0069537
9.770839,-1.5367169,4.0069537
9.770839,-1.5367169,4.0069537
9.770839,-1.5367169,4.0069537
9.770839,-1.5367169,4.0069537
9.234664,-0.49308985,4.6293
9.234664,-0.49308985,4.6293
9.234664,-0.49308985,4.6293
8.755936,0.30159867,5.088879
8.755936,0.30159867,5.088879
8.755936,0.30159867,5.088879
8.755936,0.30159867,5.088879
8.296356,0.49308985,5.289944599999999
8.296356,0.49308985,5.289944599999999
8.296356,0.49308985,5.289944599999999
8.296356,0.49308985,5.289944599999999
8.095291,0.16755481,5.328243
8.095291,0.16755481,5.328243
8.095291,0.16755481,5.328243
8.095291,0.16755481,5.328243
8.258059,-0.043085523,6.1612295999999995
8.258059,-0.043085523,6.1612295999999995
8.258059,-0.043085523,6.1612295999999995
8.258059,-0.043085523,6.1612295999999995
8.258059,-0.043085523,6.1612295999999995
8.191036,-0.44521707,7.0612383
8.191036,-0.44521707,7.0612383
8.191036,-0.44521707,7.0612383
7.4250717,-1.2782038,7.434646000000001
7.4250717,-1.2782038,7.434646000000001
7.4250717,-1.2782038,7.434646000000001
7.4250717,-1.2782038,7.434646000000001
6.467615599999999,-1.7473572,7.683584700000001
6.467615599999999,-1.7473572,7.683584700000001
6.467615599999999,-1.7473572,7.683584700000001
6.467615599999999,-1.7473572,7.683584700000001
6.467615599999999,-1.7473572,7.683584700000001
6.5825105,-1.6037389,8.334655
6.5825105,-1.6037389,8.334655
6.5825105,-1.6037389,8.334655
6.410168,-0.3111732,8.401677000000001
6.410168,-0.3111732,8.401677000000001
6.410168,-0.3111732,8.401677000000001
6.410168,-0.3111732,8.401677000000001
6.410168,-0.3111732,8.401677000000001
5.797396,0.3877697,7.951672599999999
5.797396,0.3877697,7.951672599999999
5.797396,0.3877697,7.951672599999999
5.797396,0.3877697,7.951672599999999
4.7441945,0.54096264,7.089962
4.7441945,0.54096264,7.089962
4.7441945,0.54096264,7.089962
4.0931244,0.110107444,6.697405000000001
4.0931244,0.110107444,6.697405000000001
4.0931244,0.110107444,6.697405000000001
4.0931244,0.110107444,6.697405000000001
4.0931244,0.110107444,6.697405000000001
3.5090763999999997,-0.25372586,7.5399666
3.5090763999999997,-0.25372586,7.5399666
3.5090763999999997,-0.25372586,7.5399666
3.5090763999999997,-0.25372586,7.5399666
2.8484317999999997,-0.30159867,8.296356
2.8484317999999997,-0.30159867,8.296356
2.8484317999999997,-0.30159867,8.296356
2.8484317999999997,-0.30159867,8.296356
2.4175766,-0.3398969,8.095291
2.4175766,-0.3398969,8.095291
2.4175766,-0.3398969,8.095291
2.4175766,-0.3398969,8.095291
2.321831,-0.8473485999999999,8.583592999999999
2.321831,-0.8473485999999999,8.583592999999999
2.321831,-0.8473485999999999,8.583592999999999
2.1782124,-1.4026731000000001,8.957002000000001
2.1782124,-1.4026731000000001,8.957002000000001
2.1782124,-1.4026731000000001,8.957002000000001
2.1782124,-1.4026731000000001,8.957002000000001
2.1782124,-1.4026731000000001,8.957002000000001
1.9962958,-2.1303396,9.119769
1.9962958,-2.1303396,9.119769
1.9962958,-2.1303396,9.119769
1.9962958,-2.1303396,9.119769
1.8335283,-2.7239625,9.20594
1.8335283,-2.7239625,9.20594
1.8335283,-2.7239625,9.20594
1.8335283,-2.7239625,9.20594
2.168638,-2.6952388,8.899554
2.168638,-2.6952388,8.899554
2.168638,-2.6952388,8.899554
2.168638,-2.6952388,8.899554
2.5899186000000003,-3.7675896,9.148492999999998
2.5899186000000003,-3.7675896,9.148492999999998
2.5899186000000003,-3.7675896,9.148492999999998
2.5899186000000003,-3.7675896,9.148492999999998
1.948423,-3.4803526,8.765511
1.948423,-3.4803526,8.765511
1.948423,-3.4803526,8.765511
1.948423,-3.4803526,8.765511
1.6516117,-4.1122737,8.00912
1.6516117,-4.1122737,8.00912
1.6516117,-4.1122737,8.00912
1.6516117,-4.1122737,8.00912
1.8335283,-4.255892299999999,7.951672599999999
1.8335283,-4.255892299999999,7.951672599999999
1.8335283,-4.255892299999999,7.951672599999999
1.8335283,-4.255892299999999,7.951672599999999
2.1399142999999996,-3.9399316,8.037844
2.1399142999999996,-3.9399316,8.037844
2.1399142999999996,-3.9399316,8.037844
2.1399142999999996,-3.9399316,8.037844
2.8388572,-3.7101421,7.721883
2.8388572,-3.7101421,7.721883
2.8388572,-3.7101421,7.721883
2.8388572,-3.7101421,7.721883
4.954835,-3.7388659,7.808053999999999
4.954835,-3.7388659,7.808053999999999
4.954835,-3.7388659,7.808053999999999
4.954835,-3.7388659,7.808053999999999
7.281453,-4.0644007,7.731457700000001
7.281453,-4.0644007,7.731457700000001
7.281453,-4.0644007,7.731457700000001
7.281453,-4.0644007,7.731457700000001
8.286782,-3.2601378,6.611234
8.286782,-3.2601378,6.611234
8.286782,-3.2601378,6.611234
8.286782,-3.2601378,6.611234
7.6069884000000005,-3.1452432,4.9739842
7.6069884000000005,-3.1452432,4.9739842
7.6069884000000005,-3.1452432,4.9739842
7.6069884000000005,-3.1452432,4.9739842
8.028269,-4.8782387,4.658024
8.028269,-4.8782387,4.658024
8.028269,-4.8782387,4.658024
8.028269,-4.8782387,4.658024
8.200611,-4.121848,5.328243
8.200611,-4.121848,5.328243
8.200611,-4.121848,5.328243
8.200611,-4.121848,5.328243
7.482519,-3.8250370000000005,5.395264599999999
7.482519,-3.8250370000000005,5.395264599999999
7.482519,-3.8250370000000005,5.395264599999999
7.482519,-3.8250370000000005,5.395264599999999
6.831449,-4.389936,5.2707953000000005
6.831449,-4.389936,5.2707953000000005
6.831449,-4.389936,5.2707953000000005
6.831449,-4.389936,5.2707953000000005
7.2623043,-4.0548263,5.653778
7.2623043,-4.0548263,5.653778
7.2623043,-4.0548263,5.653778
7.2623043,-4.0548263,5.653778
7.7793303,-3.9016335,5.692076
7.7793303,-3.9016335,5.692076
7.7793303,-3.9016335,5.692076
7.7793303,-3.9016335,5.692076
7.7793303,-3.9016335,5.692076
7.7793303,-3.9016335,5.692076
7.7793303,-3.9016335,5.692076
7.7793303,-3.9016335,5.692076
8.363379,-3.9016335,5.098453500000001
8.363379,-3.9016335,5.098453500000001
8.363379,-3.9016335,5.098453500000001
8.363379,-3.9016335,5.098453500000001
9.742115,-4.8207912,4.916537
9.742115,-4.8207912,4.916537
9.742115,-4.8207912,4.916537
9.742115,-4.8207912,4.916537
9.062322,-4.0069537,4.648448999999999
9.062322,-4.0069537,4.648448999999999
9.062322,-4.0069537,4.648448999999999
9.062322,-4.0069537,4.648448999999999
9.474028,-3.7580150000000003,4.1409974
9.474028,-3.7580150000000003,4.1409974
9.474028,-3.7580150000000003,4.1409974
9.474028,-3.7580150000000003,4.1409974
9.177217,-3.3463089999999998,3.6622693999999996
9.177217,-3.3463089999999998,3.6622693999999996
9.177217,-3.3463089999999998,3.6622693999999996
9.177217,-3.3463089999999998,3.6622693999999996
7.731457700000001,-2.427151,3.5760984
7.731457700000001,-2.427151,3.5760984
7.731457700000001,-2.427151,3.5760984
7.731457700000001,-2.427151,3.5760984
6.975067,-2.4558747000000003,3.5282254
6.975067,-2.4558747000000003,3.5282254
6.975067,-2.4558747000000003,3.5282254
6.975067,-2.4558747000000003,3.5282254
6.9942164,-2.4654493,3.8729098
6.9942164,-2.4654493,3.8729098
6.9942164,-2.4654493,3.8729098
6.9942164,-2.4654493,3.8729098
7.5303917,-2.4463003,3.6622693999999996
7.5303917,-2.4463003,3.6622693999999996
7.5303917,-2.4463003,3.6622693999999996
7.5303917,-2.4463003,3.6622693999999996
9.368708,-2.7239625,3.3654580000000003
9.368708,-2.7239625,3.3654580000000003
9.368708,-2.7239625,3.3654580000000003
9.368708,-2.7239625,3.3654580000000003
12.087883,-2.5803439999999997,3.2984362000000003
12.087883,-2.5803439999999997,3.2984362000000003
12.087883,-2.5803439999999997,3.2984362000000003
12.087883,-2.5803439999999997,3.2984362000000003
11.331491999999999,-2.494173,3.4803526
11.331491999999999,-2.494173,3.4803526
11.331491999999999,-2.494173,3.4803526
11.331491999999999,-2.494173,3.4803526
10.2016945,-2.3314054,3.690993
10.2016945,-2.3314054,3.690993
10.2016945,-2.3314054,3.690993
10.2016945,-2.3314054,3.690993
10.287866000000001,-2.149489,3.4899273
10.287866000000001,-2.149489,3.4899273
10.287866000000001,-2.149489,3.4899273
10.287866000000001,-2.149489,3.4899273
6.984642,-2.1973617,3.0303482999999996
6.984642,-2.1973617,3.0303482999999996
6.984642,-2.1973617,3.0303482999999996
6.984642,-2.1973617,3.0303482999999996
5.347392,-2.4558747000000003,2.6377914000000002
5.347392,-2.4558747000000003,2.6377914000000002
5.347392,-2.4558747000000003,2.6377914000000002
5.347392,-2.4558747000000003,2.6377914000000002
6.764427,-2.88673,3.3271596
6.764427,-2.88673,3.3271596
6.764427,-2.88673,3.3271596
6.764427,-2.88673,3.3271596
8.794233,-3.3271596,4.0931244
8.794233,-3.3271596,4.0931244
8.794233,-3.3271596,4.0931244
8.794233,-3.3271596,4.0931244
9.924032,-3.9399316,3.997379
9.924032,-3.9399316,3.997379
9.924032,-3.9399316,3.997379
9.924032,-3.9399316,3.997379
9.991054,-4.0931244,3.7101421
9.991054,-4.0931244,3.7101421
9.991054,-4.0931244,3.7101421
9.991054,-4.0931244,3.7101421
10.239991999999999,-4.6388745,3.4803526
10.239991999999999,-4.6388745,3.4803526
10.239991999999999,-4.6388745,3.4803526
10.239991999999999,-4.6388745,3.4803526
11.982562,-4.255892299999999,2.5228968
11.982562,-4.255892299999999,2.5228968
11.982562,-4.255892299999999,2.5228968
11.982562,-4.255892299999999,2.5228968
12.25065,-3.777164,2.7622607000000006
12.25065,-3.777164,2.7622607000000006
12.25065,-3.777164,2.7622607000000006
12.25065,-3.777164,2.7622607000000006
7.4154973,-2.1303396,2.4750240000000003
7.4154973,-2.1303396,2.4750240000000003
7.4154973,-2.1303396,2.4750240000000003
7.4154973,-2.1303396,2.4750240000000003
7.4154973,-2.1303396,2.4750240000000003
6.1995277,-1.8143792,1.9579976000000003
6.1995277,-1.8143792,1.9579976000000003
6.1995277,-1.8143792,1.9579976000000003
7.080387599999999,-1.7473572,1.8718264999999998
7.080387599999999,-1.7473572,1.8718264999999998
7.080387599999999,-1.7473572,1.8718264999999998
7.080387599999999,-1.7473572,1.8718264999999998
9.014449,-1.7282081999999999,1.9101248
9.014449,-1.7282081999999999,1.9101248
9.014449,-1.7282081999999999,1.9101248
9.014449,-1.7282081999999999,1.9101248
12.825124,-2.2643836,2.2452345
12.825124,-2.2643836,2.2452345
12.825124,-2.2643836,2.2452345
12.825124,-2.2643836,2.2452345
12.987891000000001,-2.408002,2.9920502
12.987891000000001,-2.408002,2.9920502
12.987891000000001,-2.408002,2.9920502
12.987891000000001,-2.408002,2.9920502
12.987891000000001,-2.408002,2.9920502
9.560199,-2.9633265,2.6569404999999997
9.560199,-2.9633265,2.6569404999999997
9.560199,-2.9633265,2.6569404999999997
9.914457,-1.4313968000000001,3.1452432
9.914457,-1.4313968000000001,3.1452432
9.914457,-1.4313968000000001,3.1452432
9.914457,-1.4313968000000001,3.1452432
5.2516465,-1.5558661,2.6952388
5.2516465,-1.5558661,2.6952388
5.2516465,-1.5558661,2.6952388
5.2516465,-1.5558661,2.6952388
5.2707953000000005,-2.9824755,2.6282167000000003
5.2707953000000005,-2.9824755,2.6282167000000003
5.2707953000000005,-2.9824755,2.6282167000000003
5.2707953000000005,-2.9824755,2.6282167000000003
7.8367777,-3.4995019999999997,3.8250370000000005
7.8367777,-3.4995019999999997,3.8250370000000005
7.8367777,-3.4995019999999997,3.8250370000000005
7.8367777,-3.4995019999999997,3.8250370000000005
7.8367777,-3.4995019999999997,3.8250370000000005
9.62722,-4.5335545999999995,3.930357
9.62722,-4.5335545999999995,3.930357
9.62722,-4.5335545999999995,3.930357
11.226172,-4.2080193,3.8537605000000004
11.226172,-4.2080193,3.8537605000000004
11.226172,-4.2080193,3.8537605000000004
11.226172,-4.2080193,3.8537605000000004
11.226172,-4.2080193,3.8537605000000004
11.858092999999998,-3.7580150000000003,3.6335455999999997
11.858092999999998,-3.7580150000000003,3.6335455999999997
11.858092999999998,-3.7580150000000003,3.6335455999999997
11.858092999999998,-3.7580150000000003,3.6335455999999997
11.207023,-3.5760984,2.494173
11.207023,-3.5760984,2.494173
11.207023,-3.5760984,2.494173
12.154904,-3.1548176,2.1973617
12.154904,-3.1548176,2.1973617
12.154904,-3.1548176,2.1973617
12.154904,-3.1548176,2.1973617
12.154904,-3.1548176,2.1973617
7.042089,-2.0633178,1.9579976000000003
7.042089,-2.0633178,1.9579976000000003
7.042089,-2.0633178,1.9579976000000003
7.042089,-2.0633178,1.9579976000000003
5.9697385,-1.7377827000000001,1.4984187
5.9697385,-1.7377827000000001,1.4984187
5.9697385,-1.7377827000000001,1.4984187
5.9697385,-1.7377827000000001,1.4984187
5.9697385,-1.7377827000000001,1.4984187
5.9697385,-1.7377827000000001,1.4984187
5.9697385,-1.7377827000000001,1.4984187
9.493176,-1.7665064,1.3930986
9.493176,-1.7665064,1.3930986
9.493176,-1.7665064,1.3930986
9.493176,-1.7665064,1.3930986
12.748528,-1.862252,2.168638
12.748528,-1.862252,2.168638
12.748528,-1.862252,2.168638
12.748528,-1.862252,2.168638
12.097457,-1.7665064,2.2931072999999995
12.097457,-1.7665064,2.2931072999999995
12.097457,-1.7665064,2.2931072999999995
12.097457,-1.7665064,2.2931072999999995
10.393186,-2.5228968,2.4845984
10.393186,-2.5228968,2.4845984
10.393186,-2.5228968,2.4845984
10.393186,-2.5228968,2.4845984
10.393186,-2.5228968,2.4845984
11.245321,-1.8718264999999998,2.88673
11.245321,-1.8718264999999998,2.88673
11.245321,-1.8718264999999998,2.88673
5.3569665,-0.6750065,2.6569404999999997
5.3569665,-0.6750065,2.6569404999999997
5.3569665,-0.6750065,2.6569404999999997
5.3569665,-0.6750065,2.6569404999999997
5.38569,-2.3792782000000003,2.0441686999999997
5.38569,-2.3792782000000003,2.0441686999999997
5.38569,-2.3792782000000003,2.0441686999999997
5.38569,-2.3792782000000003,2.0441686999999997
5.38569,-2.3792782000000003,2.0441686999999997
7.4442205,-2.3026817000000004,2.5803439999999997
7.4442205,-2.3026817000000004,2.5803439999999997
7.4442205,-2.3026817000000004,2.5803439999999997
9.933606,-2.6090677,3.0494976
9.933606,-2.6090677,3.0494976
9.933606,-2.6090677,3.0494976
9.933606,-2.6090677,3.0494976
9.933606,-2.6090677,3.0494976
11.934689500000001,-2.9441773999999996,3.0877957
11.934689500000001,-2.9441773999999996,3.0877957
11.934689500000001,-2.9441773999999996,3.0877957
11.934689500000001,-2.9441773999999996,3.0877957
12.394267999999999,-3.2026904,3.5090763999999997
12.394267999999999,-3.2026904,3.5090763999999997
12.394267999999999,-3.2026904,3.5090763999999997
10.862339,-3.7005677,2.6856642
10.862339,-3.7005677,2.6856642
10.862339,-3.7005677,2.6856642
10.862339,-3.7005677,2.6856642
10.862339,-3.7005677,2.6856642
13.591088000000001,-3.4133307999999998,2.427151
13.591088000000001,-3.4133307999999998,2.427151
13.591088000000001,-3.4133307999999998,2.427151
13.591088000000001,-3.4133307999999998,2.427151
8.55487,-2.1877869999999997,1.9196993000000002
8.55487,-2.1877869999999997,1.9196993000000002
8.55487,-2.1877869999999997,1.9196993000000002
8.55487,-2.1877869999999997,1.9196993000000002
6.391019,-2.0633178,1.4122477
6.391019,-2.0633178,1.4122477
6.391019,-2.0633178,1.4122477
6.391019,-2.0633178,1.4122477
7.4920936000000005,-1.7186337,1.2111819
7.4920936000000005,-1.7186337,1.2111819
7.4920936000000005,-1.7186337,1.2111819
7.4920936000000005,-1.7186337,1.2111819
8.918703,-1.3165021000000001,1.3452256999999999
8.918703,-1.3165021000000001,1.3452256999999999
8.918703,-1.3165021000000001,1.3452256999999999
8.918703,-1.3165021000000001,1.3452256999999999
10.670848,-1.7282081999999999,1.6133133999999998
10.670848,-1.7282081999999999,1.6133133999999998
10.670848,-1.7282081999999999,1.6133133999999998
12.154904,-1.6324625,1.9579976000000003
12.154904,-1.6324625,1.9579976000000003
12.154904,-1.6324625,1.9579976000000003
12.154904,-1.6324625,1.9579976000000003
12.154904,-1.6324625,1.9579976000000003
10.575102000000001,-2.0824668,2.4750240000000003
10.575102000000001,-2.0824668,2.4750240000000003
10.575102000000001,-2.0824668,2.4750240000000003
10.575102000000001,-2.0824668,2.4750240000000003
12.0400095,-2.168638,2.8292825
12.0400095,-2.168638,2.8292825
12.0400095,-2.168638,2.8292825
7.1665583,-1.383524,3.2697124
7.1665583,-1.383524,3.2697124
7.1665583,-1.383524,3.2697124
7.1665583,-1.383524,3.2697124
4.275041000000001,-2.34098,2.34098
4.275041000000001,-2.34098,2.34098
4.275041000000001,-2.34098,2.34098
4.275041000000001,-2.34098,2.34098
6.333572,-2.6569404999999997,2.9250283
6.333572,-2.6569404999999997,2.9250283
6.333572,-2.6569404999999997,2.9250283
6.333572,-2.6569404999999997,2.9250283
9.062322,-3.4899273,3.451629
9.062322,-3.4899273,3.451629
9.062322,-3.4899273,3.451629
9.062322,-3.4899273,3.451629
11.551707,-3.8154623999999995,3.4899273
11.551707,-3.8154623999999995,3.4899273
11.551707,-3.8154623999999995,3.4899273
11.551707,-3.8154623999999995,3.4899273
12.327247,-3.6335455999999997,3.7101421
12.327247,-3.6335455999999997,3.7101421
12.327247,-3.6335455999999997,3.7101421
12.327247,-3.6335455999999997,3.7101421
10.747444,-3.8058877,3.1835412999999995
10.747444,-3.8058877,3.1835412999999995
10.747444,-3.8058877,3.1835412999999995
10.747444,-3.8058877,3.1835412999999995
13.495343,-3.5856729,2.408002
13.495343,-3.5856729,2.408002
13.495343,-3.5856729,2.408002
13.495343,-3.5856729,2.408002
13.495343,-3.5856729,2.408002
10.172971,-2.1590632999999997,1.9196993000000002
10.172971,-2.1590632999999997,1.9196993000000002
10.172971,-2.1590632999999997,1.9196993000000002
6.103782,-1.5941644,1.709059
6.103782,-1.5941644,1.709059
6.103782,-1.5941644,1.709059
6.103782,-1.5941644,1.709059
6.103782,-1.5941644,1.709059
6.333572,-1.6133133999999998,1.2303311000000001
6.333572,-1.6133133999999998,1.2303311000000001
6.333572,-1.6133133999999998,1.2303311000000001
6.333572,-1.6133133999999998,1.2303311000000001
8.66019,-1.4026731000000001,1.3356511999999998
8.66019,-1.4026731000000001,1.3356511999999998
8.66019,-1.4026731000000001,1.3356511999999998
9.5219,-1.5367169,1.8143792
9.5219,-1.5367169,1.8143792
9.5219,-1.5367169,1.8143792
9.5219,-1.5367169,1.8143792
9.5219,-1.5367169,1.8143792
11.092129,-1.5750152,2.3314054
11.092129,-1.5750152,2.3314054
11.092129,-1.5750152,2.3314054
11.092129,-1.5750152,2.3314054
12.0400095,-2.0058703,3.1260939999999997
12.0400095,-2.0058703,3.1260939999999997
12.0400095,-2.0058703,3.1260939999999997
12.0400095,-2.0058703,3.1260939999999997
10.594251,-3.1260939999999997,2.6090677
10.594251,-3.1260939999999997,2.6090677
10.594251,-3.1260939999999997,2.6090677
10.594251,-3.1260939999999997,2.6090677
10.833615,-2.5324712000000003,3.518651
10.833615,-2.5324712000000003,3.518651
10.833615,-2.5324712000000003,3.518651
10.833615,-2.5324712000000003,3.518651
6.400593799999999,-2.149489,2.8580062
6.400593799999999,-2.149489,2.8580062
6.400593799999999,-2.149489,2.8580062
6.400593799999999,-2.149489,2.8580062
5.108028,-2.5899186000000003,2.1782124
5.108028,-2.5899186000000003,2.1782124
5.108028,-2.5899186000000003,2.1782124
5.108028,-2.5899186000000003,2.1782124
6.7548523000000005,-2.8963046,2.7718353
6.7548523000000005,-2.8963046,2.7718353
6.7548523000000005,-2.8963046,2.7718353
6.7548523000000005,-2.8963046,2.7718353
9.924032,-3.4324798999999997,3.212265
9.924032,-3.4324798999999997,3.212265
9.924032,-3.4324798999999997,3.212265
9.924032,-3.4324798999999997,3.212265
11.743198,-3.7292912000000005,3.451629
11.743198,-3.7292912000000005,3.451629
11.743198,-3.7292912000000005,3.451629
11.838944,-4.0356774,3.4229053999999994
11.838944,-4.0356774,3.4229053999999994
11.838944,-4.0356774,3.4229053999999994
11.838944,-4.0356774,3.4229053999999994
11.838944,-4.0356774,3.4229053999999994
11.49426,-4.045252,2.2931072999999995
11.49426,-4.045252,2.2931072999999995
11.49426,-4.045252,2.2931072999999995
11.49426,-4.045252,2.2931072999999995
12.930444,-3.2026904,2.5228968
12.930444,-3.2026904,2.5228968
12.930444,-3.2026904,2.5228968
12.930444,-3.2026904,2.5228968
7.6740103,-2.0537431,2.2165107999999996
7.6740103,-2.0537431,2.2165107999999996
7.6740103,-2.0537431,2.2165107999999996
7.6740103,-2.0537431,2.2165107999999996
6.333572,-2.034594,1.6420371999999999
6.333572,-2.034594,1.6420371999999999
6.333572,-2.034594,1.6420371999999999
6.333572,-2.034594,1.6420371999999999
7.2623043,-1.2973529,1.469695
7.2623043,-1.2973529,1.469695
7.2623043,-1.2973529,1.469695
7.2623043,-1.2973529,1.469695
8.526146,-1.4601203999999999,1.5750152
8.526146,-1.4601203999999999,1.5750152
8.526146,-1.4601203999999999,1.5750152
8.526146,-1.4601203999999999,1.5750152
10.833615,-1.5750152,2.2165107999999996
10.833615,-1.5750152,2.2165107999999996
10.833615,-1.5750152,2.2165107999999996
10.833615,-1.5750152,2.2165107999999996
11.934689500000001,-1.862252,2.8580062
11.934689500000001,-1.862252,2.8580062
11.934689500000001,-1.862252,2.8580062
11.934689500000001,-1.862252,2.8580062
10.287866000000001,-2.972901,2.8963046
10.287866000000001,-2.972901,2.8963046
10.287866000000001,-2.972901,2.8963046
10.287866000000001,-2.972901,2.8963046
11.752773,-3.1069447999999995,3.5760984
11.752773,-3.1069447999999995,3.5760984
11.752773,-3.1069447999999995,3.5760984
11.752773,-3.1069447999999995,3.5760984
7.520817299999999,-2.0633178,3.5569491
7.520817299999999,-2.0633178,3.5569491
7.520817299999999,-2.0633178,3.5569491
7.520817299999999,-2.0633178,3.5569491
4.9739842,-2.8484317999999997,2.7814097
4.9739842,-2.8484317999999997,2.7814097
4.9739842,-2.8484317999999997,2.7814097
4.9739842,-2.8484317999999997,2.7814097
5.9697385,-3.0303482999999996,3.1643922000000004
5.9697385,-3.0303482999999996,3.1643922000000004
5.9697385,-3.0303482999999996,3.1643922000000004
5.9697385,-3.0303482999999996,3.1643922000000004
8.679339,-4.1984449999999995,3.2601378
8.679339,-4.1984449999999995,3.2601378
8.679339,-4.1984449999999995,3.2601378
8.679339,-4.1984449999999995,3.2601378
10.92936,-4.2271686,2.8484317999999997
10.92936,-4.2271686,2.8484317999999997
10.92936,-4.2271686,2.8484317999999997
10.92936,-4.2271686,2.8484317999999997
11.59958,-4.102699299999999,2.6377914000000002
11.59958,-4.102699299999999,2.6377914000000002
11.59958,-4.102699299999999,2.6377914000000002
11.59958,-4.102699299999999,2.6377914000000002
11.417664,-3.9686553,2.1303396
11.417664,-3.9686553,2.1303396
11.417664,-3.9686553,2.1303396
11.417664,-3.9686553,2.1303396
12.470865,-3.3367343000000003,1.3356511999999998
12.470865,-3.3367343000000003,1.3356511999999998
12.470865,-3.3367343000000003,1.3356511999999998
12.470865,-3.3367343000000003,1.3356511999999998
9.196365,-2.254809,1.383524
9.196365,-2.254809,1.383524
9.196365,-2.254809,1.383524
9.196365,-2.254809,1.383524
6.180379,-1.6037389,1.2111819
6.180379,-1.6037389,1.2111819
6.180379,-1.6037389,1.2111819
6.180379,-1.6037389,1.2111819
7.243155000000001,-1.5845897,0.8473485999999999
7.243155000000001,-1.5845897,0.8473485999999999
7.243155000000001,-1.5845897,0.8473485999999999
7.243155000000001,-1.5845897,0.8473485999999999
9.62722,-1.469695,1.3165021000000001
9.62722,-1.469695,1.3165021000000001
9.62722,-1.469695,1.3165021000000001
9.62722,-1.469695,1.3165021000000001
9.62722,-1.469695,1.3165021000000001
11.226172,-1.8239537000000001,1.776081
11.226172,-1.8239537000000001,1.776081
11.226172,-1.8239537000000001,1.776081
12.097457,-1.1345854,2.4558747000000003
12.097457,-1.1345854,2.4558747000000003
12.097457,-1.1345854,2.4558747000000003
12.097457,-1.1345854,2.4558747000000003
12.097457,-1.1345854,2.4558747000000003
11.542132,-1.7952299999999999,2.561195
11.542132,-1.7952299999999999,2.561195
11.542132,-1.7952299999999999,2.561195
11.542132,-1.7952299999999999,2.561195
10.814466,-1.8909756999999998,2.1399142999999996
10.814466,-1.8909756999999998,2.1399142999999996
10.814466,-1.8909756999999998,2.1399142999999996
9.215514,-0.8664976999999999,2.2643836
9.215514,-0.8664976999999999,2.2643836
9.215514,-0.8664976999999999,2.2643836
9.215514,-0.8664976999999999,2.2643836
5.3569665,-2.4558747000000003,1.9101248
5.3569665,-2.4558747000000003,1.9101248
5.3569665,-2.4558747000000003,1.9101248
5.3569665,-2.4558747000000003,1.9101248
5.3569665,-2.4558747000000003,1.9101248
6.850598,-3.0686467,2.1207652
6.850598,-3.0686467,2.1207652
6.850598,-3.0686467,2.1207652
6.850598,-3.0686467,2.1207652
10.029352000000001,-2.5324712000000003,3.3080106
10.029352000000001,-2.5324712000000003,3.3080106
10.029352000000001,-2.5324712000000003,3.3080106
10.709146,-2.2165107999999996,3.1452432
10.709146,-2.2165107999999996,3.1452432
10.709146,-2.2165107999999996,3.1452432
10.709146,-2.2165107999999996,3.1452432
10.709146,-2.2165107999999996,3.1452432
11.044255,-0.8856468000000001,2.5420458
11.044255,-0.8856468000000001,2.5420458
11.044255,-0.8856468000000001,2.5420458
11.044255,-0.8856468000000001,2.5420458
12.681505,-0.665432,1.9101248
12.681505,-0.665432,1.9101248
12.681505,-0.665432,1.9101248
10.594251,-0.110107444,0.56011176
10.594251,-0.110107444,0.56011176
10.594251,-0.110107444,0.56011176
10.594251,-0.110107444,0.56011176
10.594251,-0.110107444,0.56011176
10.82404,-0.76117754,0.13883112
10.82404,-0.76117754,0.13883112
10.82404,-0.76117754,0.13883112
10.82404,-0.76117754,0.13883112
7.654861,-0.44521707,0.9718179
7.654861,-0.44521707,0.9718179
7.654861,-0.44521707,0.9718179
6.8410234,-0.46436617,1.1537346000000002
6.8410234,-0.46436617,1.1537346000000002
6.8410234,-0.46436617,1.1537346000000002
6.8410234,-0.46436617,1.1537346000000002
6.8410234,-0.46436617,1.1537346000000002
9.368708,-0.61755913,1.1154363
9.368708,-0.61755913,1.1154363
9.368708,-0.61755913,1.1154363
9.368708,-0.61755913,1.1154363
11.15915,-1.6803354,1.5654407
11.15915,-1.6803354,1.5654407
11.15915,-1.6803354,1.5654407
11.15915,-1.6803354,1.5654407
11.771922,-1.383524,2.1973617
11.771922,-1.383524,2.1973617
11.771922,-1.383524,2.1973617
11.771922,-1.383524,2.1973617
13.552791000000001,-0.69415563,2.494173
13.552791000000001,-0.69415563,2.494173
13.552791000000001,-0.69415563,2.494173
13.552791000000001,-0.69415563,2.494173
10.345312,-0.76117754,2.0920415
10.345312,-0.76117754,2.0920415
10.345312,-0.76117754,2.0920415
10.345312,-0.76117754,2.0920415
9.608071,-1.1633091,1.1728836
9.608071,-1.1633091,1.1728836
9.608071,-1.1633091,1.1728836
9.608071,-1.1633091,1.1728836
8.487848,-1.1345854,1.6899098999999997
8.487848,-1.1345854,1.6899098999999997
8.487848,-1.1345854,1.6899098999999997
8.487848,-1.1345854,1.6899098999999997
5.289944599999999,-0.7324539000000001,1.4888442
5.289944599999999,-0.7324539000000001,1.4888442
5.289944599999999,-0.7324539000000001,1.4888442
5.289944599999999,-0.7324539000000001,1.4888442
6.831449,-2.3792782000000003,1.9005502
6.831449,-2.3792782000000003,1.9005502
6.831449,-2.3792782000000003,1.9005502
6.831449,-2.3792782000000003,1.9005502
9.033598,-4.0931244,2.561195
9.033598,-4.0931244,2.561195
9.033598,-4.0931244,2.561195
9.033598,-4.0931244,2.561195
10.584677000000001,-4.466532,2.9920502
10.584677000000001,-4.466532,2.9920502
10.584677000000001,-4.466532,2.9920502
10.584677000000001,-4.466532,2.9920502
11.743198,-4.5527034,3.2505634
11.743198,-4.5527034,3.2505634
11.743198,-4.5527034,3.2505634
11.743198,-4.5527034,3.2505634
10.728295,-4.5335545999999995,2.9250283
10.728295,-4.5335545999999995,2.9250283
10.728295,-4.5335545999999995,2.9250283
10.728295,-4.5335545999999995,2.9250283
12.336822,-4.389936,2.149489
12.336822,-4.389936,2.149489
12.336822,-4.389936,2.149489
12.336822,-4.389936,2.149489
10.393186,-2.494173,1.9675721999999998
10.393186,-2.494173,1.9675721999999998
10.393186,-2.494173,1.9675721999999998
10.393186,-2.494173,1.9675721999999998
5.9027166,-1.5941644,1.6133133999999998
5.9027166,-1.5941644,1.6133133999999998
5.9027166,-1.5941644,1.6133133999999998
5.9027166,-1.5941644,1.6133133999999998
6.1420803,-1.3452256999999999,1.0292653
6.1420803,-1.3452256999999999,1.0292653
6.1420803,-1.3452256999999999,1.0292653
6.1420803,-1.3452256999999999,1.0292653
9.272962,-1.6133133999999998,1.2973529
9.272962,-1.6133133999999998,1.2973529
9.272962,-1.6133133999999998,1.2973529
11.111278,-2.0058703,1.8718264999999998
11.111278,-2.0058703,1.8718264999999998
11.111278,-2.0058703,1.8718264999999998
11.111278,-2.0058703,1.8718264999999998
11.111278,-2.0058703,1.8718264999999998
13.284702,-1.2877783999999999,2.1973617
13.284702,-1.2877783999999999,2.1973617
13.284702,-1.2877783999999999,2.1973617
13.284702,-1.2877783999999999,2.1973617
11.15915,-1.5845897,2.3122563
11.15915,-1.5845897,2.3122563
11.15915,-1.5845897,2.3122563
9.550624000000001,-2.321831,2.0250196
9.550624000000001,-2.321831,2.0250196
9.550624000000001,-2.321831,2.0250196
9.550624000000001,-2.321831,2.0250196
9.550624000000001,-2.321831,2.0250196
10.326163000000001,-0.6271336999999999,2.3026817000000004
10.326163000000001,-0.6271336999999999,2.3026817000000004
10.326163000000001,-0.6271336999999999,2.3026817000000004
10.326163000000001,-0.6271336999999999,2.3026817000000004
5.088879,-1.0867126,1.9675721999999998
5.088879,-1.0867126,1.9675721999999998
5.088879,-1.0867126,1.9675721999999998
5.8931417,-2.7814097,2.0633178
5.8931417,-2.7814097,2.0633178
5.8931417,-2.7814097,2.0633178
5.8931417,-2.7814097,2.0633178
5.8931417,-2.7814097,2.0633178
8.44955,-2.4845984,3.3463089999999998
8.44955,-2.4845984,3.3463089999999998
8.44955,-2.4845984,3.3463089999999998
9.914457,-2.8388572,3.3271596
9.914457,-2.8388572,3.3271596
9.914457,-2.8388572,3.3271596
9.914457,-2.8388572,3.3271596
11.905966000000001,-3.3463089999999998,2.9633265
11.905966000000001,-3.3463089999999998,2.9633265
11.905966000000001,-3.3463089999999998,2.9633265
11.905966000000001,-3.3463089999999998,2.9633265
11.905966000000001,-3.3463089999999998,2.9633265
11.436812,-3.5090763999999997,3.1165195
11.436812,-3.5090763999999997,3.1165195
11.436812,-3.5090763999999997,3.1165195
11.436812,-3.5090763999999997,3.1165195
10.785743,-3.4899273,2.4750240000000003
10.785743,-3.4899273,2.4750240000000003
10.785743,-3.4899273,2.4750240000000003
14.318755,-3.0494976,2.34098
14.318755,-3.0494976,2.34098
14.318755,-3.0494976,2.34098
14.318755,-3.0494976,2.34098
14.318755,-3.0494976,2.34098
7.6069884000000005,-2.0728923999999997,1.9005502
7.6069884000000005,-2.0728923999999997,1.9005502
7.6069884000000005,-2.0728923999999997,1.9005502
7.6069884000000005,-2.0728923999999997,1.9005502
5.519734,-1.6133133999999998,1.1058618
5.519734,-1.6133133999999998,1.1058618
5.519734,-1.6133133999999998,1.1058618
7.2335806,-1.5367169,1.0005416
7.2335806,-1.5367169,1.0005416
7.2335806,-1.5367169,1.0005416
7.2335806,-1.5367169,1.0005416
7.2335806,-1.5367169,1.0005416
9.6942425,-1.2877783999999999,1.1250108
9.6942425,-1.2877783999999999,1.1250108
9.6942425,-1.2877783999999999,1.1250108
9.6942425,-1.2877783999999999,1.1250108
12.020861,-1.6803354,1.709059
12.020861,-1.6803354,1.709059
12.020861,-1.6803354,1.709059
12.308098,-1.7282081999999999,2.3026817000000004
12.308098,-1.7282081999999999,2.3026817000000004
12.308098,-1.7282081999999999,2.3026817000000004
12.308098,-1.7282081999999999,2.3026817000000004
12.308098,-1.7282081999999999,2.3026817000000004
10.211267999999999,-2.0537431,2.2260852000000004
10.211267999999999,-2.0537431,2.2260852000000004
10.211267999999999,-2.0537431,2.2260852000000004
10.211267999999999,-2.0537431,2.2260852000000004
11.302769,-2.2356597999999996,2.5037475
11.302769,-2.2356597999999996,2.5037475
11.302769,-2.2356597999999996,2.5037475
11.302769,-2.2356597999999996,2.5037475
6.2282515,-1.1633091,2.867581
6.2282515,-1.1633091,2.867581
6.2282515,-1.1633091,2.867581
4.8207912,-2.149489,1.9962958
4.8207912,-2.149489,1.9962958
4.8207912,-2.149489,1.9962958
4.8207912,-2.149489,1.9962958
4.8207912,-2.149489,1.9962958
7.128260000000001,-3.1356685,2.3697037999999995
7.128260000000001,-3.1356685,2.3697037999999995
7.128260000000001,-3.1356685,2.3697037999999995
7.128260000000001,-3.1356685,2.3697037999999995
10.19212,-3.193116,3.0111992
10.19212,-3.193116,3.0111992
10.19212,-3.193116,3.0111992
12.126180999999999,-3.3750327000000007,3.1835412999999995
12.126180999999999,-3.3750327000000007,3.1835412999999995
12.126180999999999,-3.3750327000000007,3.1835412999999995
12.126180999999999,-3.3750327000000007,3.1835412999999995
12.126180999999999,-3.3750327000000007,3.1835412999999995
12.719804,-3.8058877,3.1356685
12.719804,-3.8058877,3.1356685
12.719804,-3.8058877,3.1356685
12.719804,-3.8058877,3.1356685
11.580430999999999,-3.3750327000000007,1.9005502
11.580430999999999,-3.3750327000000007,1.9005502
11.580430999999999,-3.3750327000000007,1.9005502
12.633633,-2.9633265,1.8048046999999998
12.633633,-2.9633265,1.8048046999999998
12.633633,-2.9633265,1.8048046999999998
12.633633,-2.9633265,1.8048046999999998
12.633633,-2.9633265,1.8048046999999998
7.6452865999999995,-1.5175678999999997,1.5462915000000002
7.6452865999999995,-1.5175678999999997,1.5462915000000002
7.6452865999999995,-1.5175678999999997,1.5462915000000002
7.6452865999999995,-1.5175678999999997,1.5462915000000002
5.778247400000001,-0.9622433000000001,1.3069274
5.778247400000001,-0.9622433000000001,1.3069274
5.778247400000001,-0.9622433000000001,1.3069274
5.778247400000001,-0.9622433000000001,1.3069274
7.788905000000001,-1.0771381000000002,1.0867126
7.788905000000001,-1.0771381000000002,1.0867126
7.788905000000001,-1.0771381000000002,1.0867126
7.788905000000001,-1.0771381000000002,1.0867126
10.412334,-1.2877783999999999,1.1345854
10.412334,-1.2877783999999999,1.1345854
10.412334,-1.2877783999999999,1.1345854
10.412334,-1.2877783999999999,1.1345854
12.403843,-1.4409714,1.5558661
12.403843,-1.4409714,1.5558661
12.403843,-1.4409714,1.5558661
12.403843,-1.4409714,1.5558661
12.490014,-1.5271424,1.8239537000000001
12.490014,-1.5271424,1.8239537000000001
12.490014,-1.5271424,1.8239537000000001
12.490014,-1.5271424,1.8239537000000001
9.971905,-1.8431028999999999,1.862252
9.971905,-1.8431028999999999,1.862252
9.971905,-1.8431028999999999,1.862252
9.971905,-1.8431028999999999,1.862252
11.455961,-1.7377827000000001,2.3505547000000004
11.455961,-1.7377827000000001,2.3505547000000004
11.455961,-1.7377827000000001,2.3505547000000004
11.455961,-1.7377827000000001,2.3505547000000004
5.950589,-1.3165021000000001,2.427151
5.950589,-1.3165021000000001,2.427151
5.950589,-1.3165021000000001,2.427151
5.950589,-1.3165021000000001,2.427151
5.0505805,-2.2069361,1.9675721999999998
5.0505805,-2.2069361,1.9675721999999998
5.0505805,-2.2069361,1.9675721999999998
5.0505805,-2.2069361,1.9675721999999998
7.434646000000001,-2.905879,2.6760897999999997
7.434646000000001,-2.905879,2.6760897999999997
7.434646000000001,-2.905879,2.6760897999999997
7.434646000000001,-2.905879,2.6760897999999997
9.5889225,-2.6377914000000002,2.9441773999999996
9.5889225,-2.6377914000000002,2.9441773999999996
9.5889225,-2.6377914000000002,2.9441773999999996
9.5889225,-2.6377914000000002,2.9441773999999996
9.5889225,-2.6377914000000002,2.9441773999999996
12.365545,-2.9537517999999996,2.905879
12.365545,-2.9537517999999996,2.905879
12.365545,-2.9537517999999996,2.905879
13.141085,-3.1260939999999997,2.9920502
13.141085,-3.1260939999999997,2.9920502
13.141085,-3.1260939999999997,2.9920502
13.141085,-3.1260939999999997,2.9920502
10.670848,-3.3654580000000003,2.0441686999999997
10.670848,-3.3654580000000003,2.0441686999999997
10.670848,-3.3654580000000003,2.0441686999999997
10.670848,-3.3654580000000003,2.0441686999999997
13.658110999999998,-2.8963046,1.7952299999999999
13.658110999999998,-2.8963046,1.7952299999999999
13.658110999999998,-2.8963046,1.7952299999999999
13.658110999999998,-2.8963046,1.7952299999999999
8.669764500000001,-1.9005502,1.6324625
8.669764500000001,-1.9005502,1.6324625
8.669764500000001,-1.9005502,1.6324625
8.669764500000001,-1.9005502,1.6324625
5.941015,-1.8143792,1.2207563999999997
5.941015,-1.8143792,1.2207563999999997
5.941015,-1.8143792,1.2207563999999997
5.941015,-1.8143792,1.2207563999999997
7.252729400000001,-1.5367169,1.1058618
7.252729400000001,-1.5367169,1.1058618
7.252729400000001,-1.5367169,1.1058618
7.252729400000001,-1.5367169,1.1058618
8.870830999999999,-1.3930986,1.1728836
8.870830999999999,-1.3930986,1.1728836
8.870830999999999,-1.3930986,1.1728836
8.870830999999999,-1.3930986,1.1728836
11.36979,-1.709059,1.2590546999999999
11.36979,-1.709059,1.2590546999999999
11.36979,-1.709059,1.2590546999999999
11.36979,-1.709059,1.2590546999999999
12.681505,-1.9196993000000002,1.4984187
12.681505,-1.9196993000000002,1.4984187
12.681505,-1.9196993000000002,1.4984187
12.681505,-1.9196993000000002,1.4984187
12.681505,-1.9196993000000002,1.4984187
9.847435,-2.1207652,1.8431028999999999
9.847435,-2.1207652,1.8431028999999999
9.847435,-2.1207652,1.8431028999999999
11.791071,-2.4367256,2.1877869999999997
11.791071,-2.4367256,2.1877869999999997
11.791071,-2.4367256,2.1877869999999997
11.791071,-2.4367256,2.1877869999999997
8.248484,-1.3069274,2.9154537
8.248484,-1.3069274,2.9154537
8.248484,-1.3069274,2.9154537
8.248484,-1.3069274,2.9154537
8.248484,-1.3069274,2.9154537
4.8973875,-1.8526775000000002,2.2931072999999995
4.8973875,-1.8526775000000002,2.2931072999999995
4.8973875,-1.8526775000000002,2.2931072999999995
6.0559096,-2.905879,2.321831
6.0559096,-2.905879,2.321831
6.0559096,-2.905879,2.321831
6.0559096,-2.905879,2.321831
8.641041,-2.733537,3.1260939999999997
8.641041,-2.733537,3.1260939999999997
8.641041,-2.733537,3.1260939999999997
8.641041,-2.733537,3.1260939999999997
8.641041,-2.733537,3.1260939999999997
12.049584,-2.7718353,3.3271596
12.049584,-2.7718353,3.3271596
12.049584,-2.7718353,3.3271596
12.049584,-2.7718353,3.3271596
12.978316,-2.8101335,3.231414
12.978316,-2.8101335,3.231414
12.978316,-2.8101335,3.231414
11.130426,-3.8537605000000004,2.4845984
11.130426,-3.8537605000000004,2.4845984
11.130426,-3.8537605000000004,2.4845984
11.130426,-3.8537605000000004,2.4845984
11.130426,-3.8537605000000004,2.4845984
11.963413000000001,-3.4133307999999998,1.3643749
11.963413000000001,-3.4133307999999998,1.3643749
11.963413000000001,-3.4133307999999998,1.3643749
11.963413000000001,-3.4133307999999998,1.3643749
11.302769,-2.321831,1.2590546999999999
11.302769,-2.321831,1.2590546999999999
11.302769,-2.321831,1.2590546999999999
6.8601727,-1.5079931999999998,1.2782038
6.8601727,-1.5079931999999998,1.2782038
6.8601727,-1.5079931999999998,1.2782038
6.8601727,-1.5079931999999998,1.2782038
6.8601727,-1.5079931999999998,1.2782038
5.6154795,-1.1154363,0.8856468000000001
5.6154795,-1.1154363,0.8856468000000001
5.6154795,-1.1154363,0.8856468000000001
5.6154795,-1.1154363,0.8856468000000001
8.32508,-1.2303311000000001,0.9526688
8.32508,-1.2303311000000001,0.9526688
8.32508,-1.2303311000000001,0.9526688
11.762347,-1.4026731000000001,1.3548003
11.762347,-1.4026731000000001,1.3548003
11.762347,-1.4026731000000001,1.3548003
11.762347,-1.4026731000000001,1.3548003
11.762347,-1.4026731000000001,1.3548003
13.265553,-1.5367169,1.6133133999999998
13.265553,-1.5367169,1.6133133999999998
13.265553,-1.5367169,1.6133133999999998
13.265553,-1.5367169,1.6133133999999998
11.178299,-1.4792696,1.8718264999999998
11.178299,-1.4792696,1.8718264999999998
11.178299,-1.4792696,1.8718264999999998
11.178299,-1.4792696,1.8718264999999998
10.594251,-1.9292740000000002,2.0824668
10.594251,-1.9292740000000002,2.0824668
10.594251,-1.9292740000000002,2.0824668
10.594251,-1.9292740000000002,2.0824668
9.7899885,-1.1154363,2.6090677
9.7899885,-1.1154363,2.6090677
9.7899885,-1.1154363,2.6090677
9.7899885,-1.1154363,2.6090677
5.6633525,-1.9675721999999998,1.9962958
5.6633525,-1.9675721999999998,1.9962958
5.6633525,-1.9675721999999998,1.9962958
5.6633525,-1.9675721999999998,1.9962958
5.634629,-2.5899186000000003,2.034594
5.634629,-2.5899186000000003,2.034594
5.634629,-2.5899186000000003,2.034594
5.634629,-2.5899186000000003,2.034594
7.5399666,-2.6090677,2.800559
7.5399666,-2.6090677,2.800559
7.5399666,-2.6090677,2.800559
7.5399666,-2.6090677,2.800559
10.220842999999999,-2.6569404999999997,2.9920502
10.220842999999999,-2.6569404999999997,2.9920502
10.220842999999999,-2.6569404999999997,2.9920502
10.220842999999999,-2.6569404999999997,2.9920502
12.69108,-3.059072,2.9250283
12.69108,-3.059072,2.9250283
12.69108,-3.059072,2.9250283
12.69108,-3.059072,2.9250283
12.624058,-3.9207826,3.1260939999999997
12.624058,-3.9207826,3.1260939999999997
12.624058,-3.9207826,3.1260939999999997
12.624058,-3.9207826,3.1260939999999997
11.551707,-3.777164,2.0728923999999997
11.551707,-3.777164,2.0728923999999997
11.551707,-3.777164,2.0728923999999997
11.551707,-3.777164,2.0728923999999997
12.537887,-2.9441773999999996,1.8718264999999998
12.537887,-2.9441773999999996,1.8718264999999998
12.537887,-2.9441773999999996,1.8718264999999998
12.537887,-2.9441773999999996,1.8718264999999998
7.626137299999999,-2.168638,1.4122477
7.626137299999999,-2.168638,1.4122477
7.626137299999999,-2.168638,1.4122477
7.626137299999999,-2.168638,1.4122477
5.9314404000000005,-2.0824668,0.90479594
5.9314404000000005,-2.0824668,0.90479594
5.9314404000000005,-2.0824668,0.90479594
5.9314404000000005,-2.0824668,0.90479594
7.252729400000001,-1.6899098999999997,0.9718179
7.252729400000001,-1.6899098999999997,0.9718179
7.252729400000001,-1.6899098999999997,0.9718179
7.252729400000001,-1.6899098999999997,0.9718179
9.368708,-1.5079931999999998,1.2399056
9.368708,-1.5079931999999998,1.2399056
9.368708,-1.5079931999999998,1.2399056
9.368708,-1.5079931999999998,1.2399056
12.509163000000001,-1.4505458999999998,1.9388485
12.509163000000001,-1.4505458999999998,1.9388485
12.509163000000001,-1.4505458999999998,1.9388485
12.509163000000001,-1.4505458999999998,1.9388485
11.49426,-1.6228879999999999,2.0920415
11.49426,-1.6228879999999999,2.0920415
11.49426,-1.6228879999999999,2.0920415
11.49426,-1.6228879999999999,2.0920415
8.765511,-2.0250196,1.9292740000000002
8.765511,-2.0250196,1.9292740000000002
8.765511,-2.0250196,1.9292740000000002
8.765511,-2.0250196,1.9292740000000002
11.781497,-2.7622607000000006,2.0250196
11.781497,-2.7622607000000006,2.0250196
11.781497,-2.7622607000000006,2.0250196
11.781497,-2.7622607000000006,2.0250196
8.018694,-2.1303396,2.5803439999999997
8.018694,-2.1303396,2.5803439999999997
8.018694,-2.1303396,2.5803439999999997
8.018694,-2.1303396,2.5803439999999997
4.9739842,-2.647366,2.1303396
4.9739842,-2.647366,2.1303396
4.9739842,-2.647366,2.1303396
4.9739842,-2.647366,2.1303396
4.9739842,-2.647366,2.1303396
6.1420803,-2.5228968,2.7622607000000006
6.1420803,-2.5228968,2.7622607000000006
6.1420803,-2.5228968,2.7622607000000006
8.55487,-2.8292825,3.2888615
8.55487,-2.8292825,3.2888615
8.55487,-2.8292825,3.2888615
8.55487,-2.8292825,3.2888615
11.657027000000001,-2.647366,3.6143966
11.657027000000001,-2.647366,3.6143966
11.657027000000001,-2.647366,3.6143966
11.657027000000001,-2.647366,3.6143966
11.657027000000001,-2.647366,3.6143966
12.288948,-3.3175852,3.0016246
12.288948,-3.3175852,3.0016246
12.288948,-3.3175852,3.0016246
11.092129,-4.169721,2.7048132000000003
11.092129,-4.169721,2.7048132000000003
11.092129,-4.169721,2.7048132000000003
11.092129,-4.169721,2.7048132000000003
13.255979,-4.1409974,1.5367169
13.255979,-4.1409974,1.5367169
13.255979,-4.1409974,1.5367169
13.255979,-4.1409974,1.5367169
13.255979,-4.1409974,1.5367169
11.542132,-2.647366,1.9005502
11.542132,-2.647366,1.9005502
11.542132,-2.647366,1.9005502
11.542132,-2.647366,1.9005502
6.639958,-1.862252,1.5845897
6.639958,-1.862252,1.5845897
6.639958,-1.862252,1.5845897
6.5154879999999995,-1.5175678999999997,1.1154363
6.5154879999999995,-1.5175678999999997,1.1154363
6.5154879999999995,-1.5175678999999997,1.1154363
6.5154879999999995,-1.5175678999999997,1.1154363
6.5154879999999995,-1.5175678999999997,1.1154363
8.277207,-0.98139244,1.3548003
8.277207,-0.98139244,1.3548003
8.277207,-0.98139244,1.3548003
8.277207,-0.98139244,1.3548003
9.876159,-1.2111819,1.383524
9.876159,-1.2111819,1.383524
9.876159,-1.2111819,1.383524
12.825124,-1.4888442,1.6133133999999998
12.825124,-1.4888442,1.6133133999999998
12.825124,-1.4888442,1.6133133999999998
12.825124,-1.4888442,1.6133133999999998
12.825124,-1.4888442,1.6133133999999998
11.446387,-2.3026817000000004,2.2643836
11.446387,-2.3026817000000004,2.2643836
11.446387,-2.3026817000000004,2.2643836
11.446387,-2.3026817000000004,2.2643836
10.498505999999999,-2.513322,2.1590632999999997
10.498505999999999,-2.513322,2.1590632999999997
10.498505999999999,-2.513322,2.1590632999999997
10.40276,-1.9005502,2.7622607000000006
10.40276,-1.9005502,2.7622607000000006
10.40276,-1.9005502,2.7622607000000006
10.40276,-1.9005502,2.7622607000000006
10.40276,-1.9005502,2.7622607000000006
4.9835587,-2.0058703,2.254809
4.9835587,-2.0058703,2.254809
4.9835587,-2.0058703,2.254809
4.9835587,-2.0058703,2.254809
5.3378177,-2.1590632999999997,2.2069361
5.3378177,-2.1590632999999997,2.2069361
5.3378177,-2.1590632999999997,2.2069361
5.3378177,-2.1590632999999997,2.2069361
8.181462,-2.6952388,2.8580062
8.181462,-2.6952388,2.8580062
8.181462,-2.6952388,2.8580062
10.498505999999999,-3.2409887000000004,3.1069447999999995
10.498505999999999,-3.2409887000000004,3.1069447999999995
10.498505999999999,-3.2409887000000004,3.1069447999999995
10.498505999999999,-3.2409887000000004,3.1069447999999995
10.498505999999999,-3.2409887000000004,3.1069447999999995
12.710229,-3.2505634,3.1835412999999995
12.710229,-3.2505634,3.1835412999999995
12.710229,-3.2505634,3.1835412999999995
12.710229,-3.2505634,3.1835412999999995
12.6527815,-3.7005677,3.3367343000000003
12.6527815,-3.7005677,3.3367343000000003
12.6527815,-3.7005677,3.3367343000000003
11.408089,-3.6143966,1.9292740000000002
11.408089,-3.6143966,1.9292740000000002
11.408089,-3.6143966,1.9292740000000002
11.408089,-3.6143966,1.9292740000000002
11.408089,-3.6143966,1.9292740000000002
13.390023000000001,-2.8963046,1.948423
13.390023000000001,-2.8963046,1.948423
13.390023000000001,-2.8963046,1.948423
13.390023000000001,-2.8963046,1.948423
7.396348,-1.862252,1.4888442
7.396348,-1.862252,1.4888442
7.396348,-1.862252,1.4888442
6.2378263,-1.14416,0.7324539000000001
6.2378263,-1.14416,0.7324539000000001
6.2378263,-1.14416,0.7324539000000001
6.2378263,-1.14416,0.7324539000000001
6.2378263,-1.14416,0.7324539000000001
7.310177,-1.4601203999999999,0.8952214
7.310177,-1.4601203999999999,0.8952214
7.310177,-1.4601203999999999,0.8952214
7.310177,-1.4601203999999999,0.8952214
9.359133,-1.4218222,1.0196906
9.359133,-1.4218222,1.0196906
9.359133,-1.4218222,1.0196906
9.359133,-1.4218222,1.0196906
12.308098,-1.9005502,1.5271424
12.308098,-1.9005502,1.5271424
12.308098,-1.9005502,1.5271424
12.308098,-1.9005502,1.5271424
11.867668,-2.1207652,2.168638
11.867668,-2.1207652,2.168638
11.867668,-2.1207652,2.168638
11.867668,-2.1207652,2.168638
10.488931,-2.3505547000000004,2.2835326
10.488931,-2.3505547000000004,2.2835326
10.488931,-2.3505547000000004,2.2835326
10.488931,-2.3505547000000004,2.2835326
10.910212,-2.4558747000000003,2.9633265
10.910212,-2.4558747000000003,2.9633265
10.910212,-2.4558747000000003,2.9633265
10.910212,-2.4558747000000003,2.9633265
5.988887999999999,-1.8718264999999998,2.6569404999999997
5.988887999999999,-1.8718264999999998,2.6569404999999997
5.988887999999999,-1.8718264999999998,2.6569404999999997
5.988887999999999,-1.8718264999999998,2.6569404999999997
5.098453500000001,-2.5803439999999997,2.3026817000000004
5.098453500000001,-2.5803439999999997,2.3026817000000004
5.098453500000001,-2.5803439999999997,2.3026817000000004
5.098453500000001,-2.5803439999999997,2.3026817000000004
7.281453,-2.5324712000000003,2.6090677
7.281453,-2.5324712000000003,2.6090677
7.281453,-2.5324712000000003,2.6090677
7.281453,-2.5324712000000003,2.6090677
10.431483,-2.5228968,3.2409887000000004
10.431483,-2.5228968,3.2409887000000004
10.431483,-2.5228968,3.2409887000000004
10.431483,-2.5228968,3.2409887000000004
12.738953,-2.561195,2.9824755
12.738953,-2.561195,2.9824755
12.738953,-2.561195,2.9824755
12.738953,-2.561195,2.9824755
12.557036,-4.2271686,2.561195
12.557036,-4.2271686,2.561195
12.557036,-4.2271686,2.561195
12.557036,-4.2271686,2.561195
12.557036,-4.2271686,2.561195
11.618729,-4.342063,0.9718179
11.618729,-4.342063,0.9718179
11.618729,-4.342063,0.9718179
12.633633,-2.5037475,2.4175766
12.633633,-2.5037475,2.4175766
12.633633,-2.5037475,2.4175766
12.633633,-2.5037475,2.4175766
7.252729400000001,-2.015445,1.8526775000000002
7.252729400000001,-2.015445,1.8526775000000002
7.252729400000001,-2.015445,1.8526775000000002
7.252729400000001,-2.015445,1.8526775000000002
5.8548436,-2.5516202,0.93351966
5.8548436,-2.5516202,0.93351966
5.8548436,-2.5516202,0.93351966
5.8548436,-2.5516202,0.93351966
7.9037995,-1.9196993000000002,1.0962871
7.9037995,-1.9196993000000002,1.0962871
7.9037995,-1.9196993000000002,1.0962871
7.9037995,-1.9196993000000002,1.0962871
9.359133,-0.8856468000000001,1.6611862000000002
9.359133,-0.8856468000000001,1.6611862000000002
9.359133,-0.8856468000000001,1.6611862000000002
9.359133,-0.8856468000000001,1.6611862000000002
11.848517999999999,-1.2399056,1.8718264999999998
11.848517999999999,-1.2399056,1.8718264999999998
11.848517999999999,-1.2399056,1.8718264999999998
11.848517999999999,-1.2399056,1.8718264999999998
12.643207,-2.1590632999999997,1.9962958
12.643207,-2.1590632999999997,1.9962958
12.643207,-2.1590632999999997,1.9962958
12.643207,-2.1590632999999997,1.9962958
9.924032,-2.3122563,2.0728923999999997
9.924032,-2.3122563,2.0728923999999997
9.924032,-2.3122563,2.0728923999999997
9.924032,-2.3122563,2.0728923999999997
12.030436,-1.5558661,2.733537
12.030436,-1.5558661,2.733537
12.030436,-1.5558661,2.733537
12.030436,-1.5558661,2.733537
12.030436,-1.5558661,2.733537
5.8548436,-1.2782038,2.4845984
5.8548436,-1.2782038,2.4845984
5.8548436,-1.2782038,2.4845984
4.5910015,-2.427151,1.7665064
4.5910015,-2.427151,1.7665064
4.5910015,-2.427151,1.7665064
4.5910015,-2.427151,1.7665064
4.5910015,-2.427151,1.7665064
7.252729400000001,-2.5803439999999997,2.5899186000000003
7.252729400000001,-2.5803439999999997,2.5899186000000003
7.252729400000001,-2.5803439999999997,2.5899186000000003
7.252729400000001,-2.5803439999999997,2.5899186000000003
10.19212,-2.6282167000000003,3.2505634
10.19212,-2.6282167000000003,3.2505634
10.19212,-2.6282167000000003,3.2505634
12.786825,-2.733537,3.231414
12.786825,-2.733537,3.231414
12.786825,-2.733537,3.231414
12.786825,-2.733537,3.231414
13.160233499999999,-3.4899273,3.0016246
13.160233499999999,-3.4899273,3.0016246
13.160233499999999,-3.4899273,3.0016246
13.160233499999999,-3.4899273,3.0016246
13.160233499999999,-3.4899273,3.0016246
10.134672,-3.2984362000000003,1.9005502
10.134672,-3.2984362000000003,1.9005502
10.134672,-3.2984362000000003,1.9005502
10.134672,-3.2984362000000003,1.9005502
13.485767999999998,-2.9633265,1.7282081999999999
13.485767999999998,-2.9633265,1.7282081999999999
13.485767999999998,-2.9633265,1.7282081999999999
8.765511,-2.168638,1.5367169
8.765511,-2.168638,1.5367169
8.765511,-2.168638,1.5367169
8.765511,-2.168638,1.5367169
8.765511,-2.168638,1.5367169
6.0080366,-1.6803354,1.2303311000000001
6.0080366,-1.6803354,1.2303311000000001
6.0080366,-1.6803354,1.2303311000000001
6.0080366,-1.6803354,1.2303311000000001
6.9942164,-1.6133133999999998,1.0962871
6.9942164,-1.6133133999999998,1.0962871
6.9942164,-1.6133133999999998,1.0962871
9.148492999999998,-1.5558661,1.2016073
9.148492999999998,-1.5558661,1.2016073
9.148492999999998,-1.5558661,1.2016073
9.148492999999998,-1.5558661,1.2016073
9.148492999999998,-1.5558661,1.2016073
11.197449,-1.6803354,1.7569318999999999
11.197449,-1.6803354,1.7569318999999999
11.197449,-1.6803354,1.7569318999999999
11.197449,-1.6803354,1.7569318999999999
12.470865,-1.8048046999999998,1.7952299999999999
12.470865,-1.8048046999999998,1.7952299999999999
12.470865,-1.8048046999999998,1.7952299999999999
9.75169,-2.015445,1.7952299999999999
9.75169,-2.015445,1.7952299999999999
9.75169,-2.015445,1.7952299999999999
9.75169,-2.015445,1.7952299999999999
9.75169,-2.015445,1.7952299999999999
11.915541000000001,-2.4463003,2.1399142999999996
11.915541000000001,-2.4463003,2.1399142999999996
11.915541000000001,-2.4463003,2.1399142999999996
11.915541000000001,-2.4463003,2.1399142999999996
8.047417999999999,-1.4122477,2.360129
8.047417999999999,-1.4122477,2.360129
8.047417999999999,-1.4122477,2.360129
8.047417999999999,-1.4122477,2.360129
5.041005999999999,-1.8718264999999998,2.0728923999999997
5.041005999999999,-1.8718264999999998,2.0728923999999997
5.041005999999999,-1.8718264999999998,2.0728923999999997
5.041005999999999,-1.8718264999999998,2.0728923999999997
6.5633610000000004,-2.4463003,2.1877869999999997
6.5633610000000004,-2.4463003,2.1877869999999997
6.5633610000000004,-2.4463003,2.1877869999999997
6.5633610000000004,-2.4463003,2.1877869999999997
8.957002000000001,-2.647366,2.7718353
8.957002000000001,-2.647366,2.7718353
8.957002000000001,-2.647366,2.7718353
8.957002000000001,-2.647366,2.7718353
11.05383,-2.5516202,2.8580062
11.05383,-2.5516202,2.8580062
11.05383,-2.5516202,2.8580062
11.05383,-2.5516202,2.8580062
12.968742,-2.7718353,2.5994933
12.968742,-2.7718353,2.5994933
12.968742,-2.7718353,2.5994933
12.968742,-2.7718353,2.5994933
13.093211,-3.5569491,2.7048132000000003
13.093211,-3.5569491,2.7048132000000003
13.093211,-3.5569491,2.7048132000000003
13.093211,-3.5569491,2.7048132000000003
12.614484,-2.800559,1.4409714
12.614484,-2.800559,1.4409714
12.614484,-2.800559,1.4409714
12.614484,-2.800559,1.4409714
9.483603,-2.0537431,1.7473572
9.483603,-2.0537431,1.7473572
9.483603,-2.0537431,1.7473572
9.483603,-2.0537431,1.7473572
6.094208,-1.5175678999999997,1.2877783999999999
6.094208,-1.5175678999999997,1.2877783999999999
6.094208,-1.5175678999999997,1.2877783999999999
6.869747,-1.2399056,1.1920328000000002
6.869747,-1.2399056,1.1920328000000002
6.869747,-1.2399056,1.1920328000000002
6.869747,-1.2399056,1.1920328000000002
6.869747,-1.2399056,1.1920328000000002
9.004874000000001,-0.8760723,1.1824582000000001
9.004874000000001,-0.8760723,1.1824582000000001
9.004874000000001,-0.8760723,1.1824582000000001
9.004874000000001,-0.8760723,1.1824582000000001
10.40276,-1.5654407,1.2782038
10.40276,-1.5654407,1.2782038
10.40276,-1.5654407,1.2782038
12.470865,-1.6228879999999999,1.5175678999999997
12.470865,-1.6228879999999999,1.5175678999999997
12.470865,-1.6228879999999999,1.5175678999999997
12.470865,-1.6228879999999999,1.5175678999999997
12.470865,-1.6228879999999999,1.5175678999999997
11.49426,-1.9867213,1.9867213
11.49426,-1.9867213,1.9867213
11.49426,-1.9867213,1.9867213
8.7750845,-2.2739582,1.9196993000000002
8.7750845,-2.2739582,1.9196993000000002
8.7750845,-2.2739582,1.9196993000000002
8.7750845,-2.2739582,1.9196993000000002
11.609155,-1.4409714,2.6377914000000002
11.609155,-1.4409714,2.6377914000000002
11.609155,-1.4409714,2.6377914000000002
11.609155,-1.4409714,2.6377914000000002
6.304848000000001,-1.6803354,2.3122563
6.304848000000001,-1.6803354,2.3122563
6.304848000000001,-1.6803354,2.3122563
6.304848000000001,-1.6803354,2.3122563
6.304848000000001,-1.6803354,2.3122563
5.0505805,-2.7909843999999997,1.8909756999999998
5.0505805,-2.7909843999999997,1.8909756999999998
5.0505805,-2.7909843999999997,1.8909756999999998
7.0037910000000005,-2.494173,3.1739669999999998
7.0037910000000005,-2.494173,3.1739669999999998
7.0037910000000005,-2.494173,3.1739669999999998
7.0037910000000005,-2.494173,3.1739669999999998
10.326163000000001,-2.360129,3.7292912000000005
10.326163000000001,-2.360129,3.7292912000000005
10.326163000000001,-2.360129,3.7292912000000005
10.326163000000001,-2.360129,3.7292912000000005
10.326163000000001,-2.360129,3.7292912000000005
13.610238,-3.1835412999999995,2.666515
13.610238,-3.1835412999999995,2.666515
13.610238,-3.1835412999999995,2.666515
13.907048999999999,-3.4612036,2.1782124
13.907048999999999,-3.4612036,2.1782124
13.907048999999999,-3.4612036,2.1782124
13.907048999999999,-3.4612036,2.1782124
10.94851,-3.384607,1.5271424
10.94851,-3.384607,1.5271424
10.94851,-3.384607,1.5271424
10.94851,-3.384607,1.5271424
10.94851,-3.384607,1.5271424
10.728295,-2.254809,1.0675635
10.728295,-2.254809,1.0675635
10.728295,-2.254809,1.0675635
6.5154879999999995,-1.5079931999999998,1.2782038
6.5154879999999995,-1.5079931999999998,1.2782038
6.5154879999999995,-1.5079931999999998,1.2782038
6.5154879999999995,-1.5079931999999998,1.2782038
6.4963393,-1.8048046999999998,0.9430941999999999
6.4963393,-1.8048046999999998,0.9430941999999999
6.4963393,-1.8048046999999998,0.9430941999999999
6.4963393,-1.8048046999999998,0.9430941999999999
6.4963393,-1.8048046999999998,0.9430941999999999
8.44955,-1.6611862000000002,1.3260766000000002
8.44955,-1.6611862000000002,1.3260766000000002
8.44955,-1.6611862000000002,1.3260766000000002
8.44955,-1.6611862000000002,1.3260766000000002
10.584677000000001,-1.6420371999999999,1.3260766000000002
10.584677000000001,-1.6420371999999999,1.3260766000000002
10.584677000000001,-1.6420371999999999,1.3260766000000002
12.049584,-2.0920415,1.5654407
12.049584,-2.0920415,1.5654407
12.049584,-2.0920415,1.5654407
12.049584,-2.0920415,1.5654407
12.049584,-2.0920415,1.5654407
13.188957,-1.4984187,1.8239537000000001
13.188957,-1.4984187,1.8239537000000001
13.188957,-1.4984187,1.8239537000000001
13.188957,-1.4984187,1.8239537000000001
9.876159,-1.8239537000000001,1.7186337
9.876159,-1.8239537000000001,1.7186337
9.876159,-1.8239537000000001,1.7186337
10.622974000000001,-0.85692316,1.7856555
10.622974000000001,-0.85692316,1.7856555
10.622974000000001,-0.85692316,1.7856555
10.622974000000001,-0.85692316,1.7856555
10.622974000000001,-0.85692316,1.7856555
6.1612295999999995,-0.9430941999999999,1.9867213
6.1612295999999995,-0.9430941999999999,1.9867213
6.1612295999999995,-0.9430941999999999,1.9867213
5.586755999999999,-1.4792696,2.1111906000000005
5.586755999999999,-1.4792696,2.1111906000000005
5.586755999999999,-1.4792696,2.1111906000000005
5.586755999999999,-1.4792696,2.1111906000000005
7.137835000000001,-2.494173,2.9633265
7.137835000000001,-2.494173,2.9633265
7.137835000000001,-2.494173,2.9633265
7.137835000000001,-2.494173,2.9633265
9.64637,-3.1452432,3.193116
9.64637,-3.1452432,3.193116
9.64637,-3.1452432,3.193116
9.64637,-3.1452432,3.193116
12.403843,-3.7101421,3.0016246
12.403843,-3.7101421,3.0016246
12.403843,-3.7101421,3.0016246
12.403843,-3.7101421,3.0016246
12.920869,-3.8824842000000004,3.0303482999999996
12.920869,-3.8824842000000004,3.0303482999999996
12.920869,-3.8824842000000004,3.0303482999999996
12.920869,-3.8824842000000004,3.0303482999999996
11.455961,-3.3558834,1.6803354
11.455961,-3.3558834,1.6803354
11.455961,-3.3558834,1.6803354
11.455961,-3.3558834,1.6803354
12.308098,-2.7239625,1.862252
12.308098,-2.7239625,1.862252
12.308098,-2.7239625,1.862252
12.308098,-2.7239625,1.862252
7.693159,-1.7856555,1.5271424
7.693159,-1.7856555,1.5271424
7.693159,-1.7856555,1.5271424
7.693159,-1.7856555,1.5271424
5.979312999999999,-1.1824582000000001,1.2303311000000001
5.979312999999999,-1.1824582000000001,1.2303311000000001
5.979312999999999,-1.1824582000000001,1.2303311000000001
5.979312999999999,-1.1824582000000001,1.2303311000000001
7.693159,-1.2399056,1.1154363
7.693159,-1.2399056,1.1154363
7.693159,-1.2399056,1.1154363
7.693159,-1.2399056,1.1154363
9.7899885,-1.2303311000000001,1.3069274
9.7899885,-1.2303311000000001,1.3069274
9.7899885,-1.2303311000000001,1.3069274
9.7899885,-1.2303311000000001,1.3069274
12.059159,-1.3069274,1.6803354
12.059159,-1.3069274,1.6803354
12.059159,-1.3069274,1.6803354
12.059159,-1.3069274,1.6803354
11.800646,-1.6420371999999999,1.8239537000000001
11.800646,-1.6420371999999999,1.8239537000000001
11.800646,-1.6420371999999999,1.8239537000000001
9.675094,-2.2835326,1.7665064
9.675094,-2.2835326,1.7665064
9.675094,-2.2835326,1.7665064
9.675094,-2.2835326,1.7665064
9.675094,-2.2835326,1.7665064
12.470865,-2.3314054,2.2643836
12.470865,-2.3314054,2.2643836
12.470865,-2.3314054,2.2643836
7.377198700000001,-1.5462915000000002,2.5516202
7.377198700000001,-1.5462915000000002,2.5516202
7.377198700000001,-1.5462915000000002,2.5516202
7.377198700000001,-1.5462915000000002,2.5516202
4.868664,-1.6037389,2.1399142999999996
4.868664,-1.6037389,2.1399142999999996
4.868664,-1.6037389,2.1399142999999996
4.868664,-1.6037389,2.1399142999999996
6.314422599999999,-2.360129,2.5707695
6.314422599999999,-2.360129,2.5707695
6.314422599999999,-2.360129,2.5707695
6.314422599999999,-2.360129,2.5707695
9.378282,-2.9346027,3.0494976
9.378282,-2.9346027,3.0494976
9.378282,-2.9346027,3.0494976
9.378282,-2.9346027,3.0494976
11.829369999999999,-2.647366,3.059072
11.829369999999999,-2.647366,3.059072
11.829369999999999,-2.647366,3.059072
11.829369999999999,-2.647366,3.059072
13.677259,-3.1548176,2.7048132000000003
13.677259,-3.1548176,2.7048132000000003
13.677259,-3.1548176,2.7048132000000003
13.677259,-3.1548176,2.7048132000000003
13.677259,-3.1548176,2.7048132000000003
11.743198,-3.6526947,2.6952388
11.743198,-3.6526947,2.6952388
11.743198,-3.6526947,2.6952388
12.049584,-3.3080106,1.6420371999999999
12.049584,-3.3080106,1.6420371999999999
12.049584,-3.3080106,1.6420371999999999
12.049584,-3.3080106,1.6420371999999999
10.096374,-2.360129,1.8239537000000001
10.096374,-2.360129,1.8239537000000001
10.096374,-2.360129,1.8239537000000001
10.096374,-2.360129,1.8239537000000001
6.065484,-1.6899098999999997,1.3548003
6.065484,-1.6899098999999997,1.3548003
6.065484,-1.6899098999999997,1.3548003
6.065484,-1.6899098999999997,1.3548003
6.4197426,-2.015445,0.8090504
6.4197426,-2.015445,0.8090504
6.4197426,-2.015445,0.8090504
6.4197426,-2.015445,0.8090504
8.602742,-1.6516117,1.1345854
8.602742,-1.6516117,1.1345854
8.602742,-1.6516117,1.1345854
8.602742,-1.6516117,1.1345854
9.703816999999999,-1.6420371999999999,1.4601203999999999
9.703816999999999,-1.6420371999999999,1.4601203999999999
9.703816999999999,-1.6420371999999999,1.4601203999999999
9.703816999999999,-1.6420371999999999,1.4601203999999999
12.480439,-1.6994845,1.6228879999999999
12.480439,-1.6994845,1.6228879999999999
12.480439,-1.6994845,1.6228879999999999
12.480439,-1.6994845,1.6228879999999999
11.7336235,-1.8431028999999999,2.168638
11.7336235,-1.8431028999999999,2.168638
11.7336235,-1.8431028999999999,2.168638
11.7336235,-1.8431028999999999,2.168638
11.05383,-1.7856555,1.9771467
11.05383,-1.7856555,1.9771467
11.05383,-1.7856555,1.9771467
11.05383,-1.7856555,1.9771467
10.29744,-0.3111732,2.3792782000000003
10.29744,-0.3111732,2.3792782000000003
10.29744,-0.3111732,2.3792782000000003
10.29744,-0.3111732,2.3792782000000003
4.945260500000001,-1.3739493999999999,1.8048046999999998
4.945260500000001,-1.3739493999999999,1.8048046999999998
4.945260500000001,-1.3739493999999999,1.8048046999999998
4.945260500000001,-1.3739493999999999,1.8048046999999998
5.759098000000001,-2.7239625,1.9962958
5.759098000000001,-2.7239625,1.9962958
5.759098000000001,-2.7239625,1.9962958
5.759098000000001,-2.7239625,1.9962958
8.641041,-2.752686,3.451629
8.641041,-2.752686,3.451629
8.641041,-2.752686,3.451629
8.641041,-2.752686,3.451629
10.6134,-2.7048132000000003,3.7675896
10.6134,-2.7048132000000003,3.7675896
10.6134,-2.7048132000000003,3.7675896
10.6134,-2.7048132000000003,3.7675896
12.633633,-3.2505634,3.193116
12.633633,-3.2505634,3.193116
12.633633,-3.2505634,3.193116
12.633633,-3.2505634,3.193116
12.202777000000001,-3.1069447999999995,3.0111992
12.202777000000001,-3.1069447999999995,3.0111992
12.202777000000001,-3.1069447999999995,3.0111992
12.202777000000001,-3.1069447999999995,3.0111992
11.216598,-3.3558834,2.0920415
11.216598,-3.3558834,2.0920415
11.216598,-3.3558834,2.0920415
11.216598,-3.3558834,2.0920415
12.930444,-2.5228968,2.1590632999999997
12.930444,-2.5228968,2.1590632999999997
12.930444,-2.5228968,2.1590632999999997
12.930444,-2.5228968,2.1590632999999997
8.076141,-1.3643749,1.6803354
8.076141,-1.3643749,1.6803354
8.076141,-1.3643749,1.6803354
8.076141,-1.3643749,1.6803354
5.730374299999999,-1.7569318999999999,0.78032666
5.730374299999999,-1.7569318999999999,0.78032666
5.730374299999999,-1.7569318999999999,0.78032666
5.730374299999999,-1.7569318999999999,0.78032666
7.3389006,-1.6803354,0.7420284
7.3389006,-1.6803354,0.7420284
7.3389006,-1.6803354,0.7420284
7.3389006,-1.6803354,0.7420284
9.320834,-1.4313968000000001,1.2973529
9.320834,-1.4313968000000001,1.2973529
9.320834,-1.4313968000000001,1.2973529
9.320834,-1.4313968000000001,1.2973529
10.757019,-1.4984187,1.9962958
10.757019,-1.4984187,1.9962958
10.757019,-1.4984187,1.9962958
10.757019,-1.4984187,1.9962958
12.403843,-1.7282081999999999,2.2452345
12.403843,-1.7282081999999999,2.2452345
12.403843,-1.7282081999999999,2.2452345
12.403843,-1.7282081999999999,2.2452345
11.312344,-2.2643836,2.3122563
11.312344,-2.2643836,2.3122563
11.312344,-2.2643836,2.3122563
11.063405,-2.4845984,2.408002
11.063405,-2.4845984,2.408002
11.063405,-2.4845984,2.408002
11.063405,-2.4845984,2.408002
7.8272033,-1.9962958,2.3792782000000003
7.8272033,-1.9962958,2.3792782000000003
7.8272033,-1.9962958,2.3792782000000003
7.8272033,-1.9962958,2.3792782000000003
4.6675982000000005,-2.3888528,2.0441686999999997
4.6675982000000005,-2.3888528,2.0441686999999997
4.6675982000000005,-2.3888528,2.0441686999999997
4.6675982000000005,-2.3888528,2.0441686999999997
6.9176197,-3.078221,2.1877869999999997
6.9176197,-3.078221,2.1877869999999997
6.9176197,-3.078221,2.1877869999999997
6.9176197,-3.078221,2.1877869999999997
9.991054,-2.3984275,3.1739669999999998
9.991054,-2.3984275,3.1739669999999998
9.991054,-2.3984275,3.1739669999999998
9.991054,-2.3984275,3.1739669999999998
10.460207,-2.800559,2.5228968
10.460207,-2.800559,2.5228968
10.460207,-2.800559,2.5228968
11.532558,-3.2697124,2.647366
11.532558,-3.2697124,2.647366
11.532558,-3.2697124,2.647366
11.532558,-3.2697124,2.647366
12.317672,-3.6526947,3.0111992
12.317672,-3.6526947,3.0111992
12.317672,-3.6526947,3.0111992
12.317672,-3.6526947,3.0111992
14.854931,-2.9250283,1.3452256999999999
14.854931,-2.9250283,1.3452256999999999
14.854931,-2.9250283,1.3452256999999999
14.854931,-2.9250283,1.3452256999999999
14.854931,-2.9250283,1.3452256999999999
10.153821,-1.469695,1.8814011999999998
10.153821,-1.469695,1.8814011999999998
10.153821,-1.469695,1.8814011999999998
6.2091026,-1.5462915000000002,1.2111819
6.2091026,-1.5462915000000002,1.2111819
6.2091026,-1.5462915000000002,1.2111819
6.2091026,-1.5462915000000002,1.2111819
6.2091026,-1.5462915000000002,1.2111819
6.323997,-1.5079931999999998,0.70373017
6.323997,-1.5079931999999998,0.70373017
6.323997,-1.5079931999999998,0.70373017
9.31126,-1.4984187,0.9622433000000001
9.31126,-1.4984187,0.9622433000000001
9.31126,-1.4984187,0.9622433000000001
9.31126,-1.4984187,0.9622433000000001
9.943181,-1.6516117,1.0005416
9.943181,-1.6516117,1.0005416
9.943181,-1.6516117,1.0005416
9.943181,-1.6516117,1.0005416
11.379365,-1.6707608,1.1824582000000001
11.379365,-1.6707608,1.1824582000000001
11.379365,-1.6707608,1.1824582000000001
11.379365,-1.6707608,1.1824582000000001
11.800646,-2.0537431,1.6707608
11.800646,-2.0537431,1.6707608
11.800646,-2.0537431,1.6707608
11.800646,-2.0537431,1.6707608
11.666602000000001,-2.7622607000000006,2.034594
11.666602000000001,-2.7622607000000006,2.034594
11.666602000000001,-2.7622607000000006,2.034594
11.666602000000001,-2.7622607000000006,2.034594
9.732541000000001,-1.7665064,2.8580062
9.732541000000001,-1.7665064,2.8580062
9.732541000000001,-1.7665064,2.8580062
9.732541000000001,-1.7665064,2.8580062
5.586755999999999,-1.3260766000000002,2.427151
5.586755999999999,-1.3260766000000002,2.427151
5.586755999999999,-1.3260766000000002,2.427151
5.586755999999999,-1.3260766000000002,2.427151
5.797396,-2.733537,2.0824668
5.797396,-2.733537,2.0824668
5.797396,-2.733537,2.0824668
5.797396,-2.733537,2.0824668
7.6740103,-2.1877869999999997,2.8580062
7.6740103,-2.1877869999999997,2.8580062
7.6740103,-2.1877869999999997,2.8580062
7.6740103,-2.1877869999999997,2.8580062
7.6740103,-2.1877869999999997,2.8580062
10.153821,-2.88673,3.0303482999999996
10.153821,-2.88673,3.0303482999999996
10.153821,-2.88673,3.0303482999999996
12.863422,-3.1835412999999995,3.1643922000000004
12.863422,-3.1835412999999995,3.1643922000000004
12.863422,-3.1835412999999995,3.1643922000000004
12.863422,-3.1835412999999995,3.1643922000000004
11.963413000000001,-3.0973704,3.5665237999999997
11.963413000000001,-3.0973704,3.5665237999999997
11.963413000000001,-3.0973704,3.5665237999999997
11.963413000000001,-3.0973704,3.5665237999999997
11.963413000000001,-3.0973704,3.5665237999999997
12.269799,-3.9399316,1.9962958
12.269799,-3.9399316,1.9962958
12.269799,-3.9399316,1.9962958
13.141085,-2.8388572,2.513322
13.141085,-2.8388572,2.513322
13.141085,-2.8388572,2.513322
13.141085,-2.8388572,2.513322
13.141085,-2.8388572,2.513322
8.152739,-1.7665064,2.1303396
8.152739,-1.7665064,2.1303396
8.152739,-1.7665064,2.1303396
6.333572,-1.9196993000000002,0.9718179
6.333572,-1.9196993000000002,0.9718179
6.333572,-1.9196993000000002,0.9718179
6.333572,-1.9196993000000002,0.9718179
7.5495410000000005,-1.9196993000000002,0.7228793
7.5495410000000005,-1.9196993000000002,0.7228793
7.5495410000000005,-1.9196993000000002,0.7228793
7.5495410000000005,-1.9196993000000002,0.7228793
7.5495410000000005,-1.9196993000000002,0.7228793
8.497422,-1.3930986,0.8186249
8.497422,-1.3930986,0.8186249
8.497422,-1.3930986,0.8186249
10.843189,-1.6420371999999999,1.2877783999999999
10.843189,-1.6420371999999999,1.2877783999999999
10.843189,-1.6420371999999999,1.2877783999999999
10.843189,-1.6420371999999999,1.2877783999999999
10.843189,-1.6420371999999999,1.2877783999999999
11.781497,-1.6994845,1.948423
11.781497,-1.6994845,1.948423
11.781497,-1.6994845,1.948423
9.18679,-2.034594,2.3792782000000003
9.18679,-2.034594,2.3792782000000003
9.18679,-2.034594,2.3792782000000003
9.18679,-2.034594,2.3792782000000003
13.485767999999998,-2.254809,2.9633265
13.485767999999998,-2.254809,2.9633265
13.485767999999998,-2.254809,2.9633265
13.485767999999998,-2.254809,2.9633265
7.4729443,-1.9005502,2.714388
7.4729443,-1.9005502,2.714388
7.4729443,-1.9005502,2.714388
7.4729443,-1.9005502,2.714388
5.500585,-2.8484317999999997,2.2260852000000004
5.500585,-2.8484317999999997,2.2260852000000004
5.500585,-2.8484317999999997,2.2260852000000004
5.500585,-2.8484317999999997,2.2260852000000004
5.7016506,-2.6856642,2.6090677
5.7016506,-2.6856642,2.6090677
5.7016506,-2.6856642,2.6090677
5.7016506,-2.6856642,2.6090677
8.535721,-2.4750240000000003,2.9633265
8.535721,-2.4750240000000003,2.9633265
8.535721,-2.4750240000000003,2.9633265
8.535721,-2.4750240000000003,2.9633265
12.719804,-2.9154537,3.1165195
12.719804,-2.9154537,3.1165195
12.719804,-2.9154537,3.1165195
12.719804,-2.9154537,3.1165195
12.911294999999999,-3.3271596,3.039923
12.911294999999999,-3.3271596,3.039923
12.911294999999999,-3.3271596,3.039923
12.911294999999999,-3.3271596,3.039923
12.154904,-3.9016335,2.2835326
12.154904,-3.9016335,2.2835326
12.154904,-3.9016335,2.2835326
12.154904,-3.9016335,2.2835326
14.251732999999998,-2.9920502,1.8526775000000002
14.251732999999998,-2.9920502,1.8526775000000002
14.251732999999998,-2.9920502,1.8526775000000002
14.251732999999998,-2.9920502,1.8526775000000002
8.822957,-1.9771467,1.6994845
8.822957,-1.9771467,1.6994845
8.822957,-1.9771467,1.6994845
8.822957,-1.9771467,1.6994845
5.797396,-1.7377827000000001,0.85692316
5.797396,-1.7377827000000001,0.85692316
5.797396,-1.7377827000000001,0.85692316
5.797396,-1.7377827000000001,0.85692316
6.764427,-1.6707608,0.46436617
6.764427,-1.6707608,0.46436617
6.764427,-1.6707608,0.46436617
6.764427,-1.6707608,0.46436617
9.091045,-1.5845897,0.5888355
9.091045,-1.5845897,0.5888355
9.091045,-1.5845897,0.5888355
9.091045,-1.5845897,0.5888355
9.091045,-1.5845897,0.5888355
11.905966000000001,-0.9430941999999999,1.7569318999999999
11.905966000000001,-0.9430941999999999,1.7569318999999999
11.905966000000001,-0.9430941999999999,1.7569318999999999
13.02619,-1.0101161,2.3122563
13.02619,-1.0101161,2.3122563
13.02619,-1.0101161,2.3122563
13.02619,-1.0101161,2.3122563
11.590005999999999,-2.34098,2.9824755
11.590005999999999,-2.34098,2.9824755
11.590005999999999,-2.34098,2.9824755
11.590005999999999,-2.34098,2.9824755
11.590005999999999,-2.34098,2.9824755
11.331491999999999,-1.469695,2.427151
11.331491999999999,-1.469695,2.427151
11.331491999999999,-1.469695,2.427151
6.6016593,-0.99096704,2.1877869999999997
6.6016593,-0.99096704,2.1877869999999997
6.6016593,-0.99096704,2.1877869999999997
6.6016593,-0.99096704,2.1877869999999997
6.6016593,-0.99096704,2.1877869999999997
4.476107,-1.9101248,1.3643749
4.476107,-1.9101248,1.3643749
4.476107,-1.9101248,1.3643749
6.3814445,-2.0250196,2.4558747000000003
6.3814445,-2.0250196,2.4558747000000003
6.3814445,-2.0250196,2.4558747000000003
6.3814445,-2.0250196,2.4558747000000003
6.3814445,-2.0250196,2.4558747000000003
9.244238000000001,-2.7718353,3.384607
9.244238000000001,-2.7718353,3.384607
9.244238000000001,-2.7718353,3.384607
9.244238000000001,-2.7718353,3.384607
12.7964,-3.690993,3.193116
12.7964,-3.690993,3.193116
12.7964,-3.690993,3.193116
13.074062,-4.236743,3.0207740000000003
13.074062,-4.236743,3.0207740000000003
13.074062,-4.236743,3.0207740000000003
13.074062,-4.236743,3.0207740000000003
13.074062,-4.236743,3.0207740000000003
10.661273,-3.9782297999999994,2.666515
10.661273,-3.9782297999999994,2.666515
10.661273,-3.9782297999999994,2.666515
10.661273,-3.9782297999999994,2.666515
13.658110999999998,-3.4133307999999998,1.9196993000000002
13.658110999999998,-3.4133307999999998,1.9196993000000002
13.658110999999998,-3.4133307999999998,1.9196993000000002
13.658110999999998,-3.4133307999999998,1.9196993000000002
9.014449,-2.4367256,1.5845897
9.014449,-2.4367256,1.5845897
9.014449,-2.4367256,1.5845897
5.8261199999999995,-1.709059,1.2111819
5.8261199999999995,-1.709059,1.2111819
5.8261199999999995,-1.709059,1.2111819
5.8261199999999995,-1.709059,1.2111819
6.8793216,-1.4505458999999998,0.9622433000000001
6.8793216,-1.4505458999999998,0.9622433000000001
6.8793216,-1.4505458999999998,0.9622433000000001
6.8793216,-1.4505458999999998,0.9622433000000001
8.870830999999999,-1.1537346000000002,0.63670826
8.870830999999999,-1.1537346000000002,0.63670826
8.870830999999999,-1.1537346000000002,0.63670826
8.870830999999999,-1.1537346000000002,0.63670826
11.532558,-1.4984187,1.2686293
11.532558,-1.4984187,1.2686293
11.532558,-1.4984187,1.2686293
11.532558,-1.4984187,1.2686293
11.532558,-1.4984187,1.2686293
11.944264,-1.5845897,1.948423
11.944264,-1.5845897,1.948423
11.944264,-1.5845897,1.948423
10.374036,-1.8814011999999998,2.4463003
10.374036,-1.8814011999999998,2.4463003
10.374036,-1.8814011999999998,2.4463003
10.374036,-1.8814011999999998,2.4463003
12.5474615,-2.733537,2.3984275
12.5474615,-2.733537,2.3984275
12.5474615,-2.733537,2.3984275
12.5474615,-2.733537,2.3984275
9.703816999999999,-2.034594,2.5994933
9.703816999999999,-2.034594,2.5994933
9.703816999999999,-2.034594,2.5994933
9.703816999999999,-2.034594,2.5994933
4.8303657,-1.8335283,1.8143792
4.8303657,-1.8335283,1.8143792
4.8303657,-1.8335283,1.8143792
4.8303657,-1.8335283,1.8143792
4.8303657,-1.8335283,1.8143792
5.653778,-2.6090677,1.7473572
5.653778,-2.6090677,1.7473572
5.653778,-2.6090677,1.7473572
7.3389006,-2.4558747000000003,2.1782124
7.3389006,-2.4558747000000003,2.1782124
7.3389006,-2.4558747000000003,2.1782124
7.3389006,-2.4558747000000003,2.1782124
10.833615,-3.1452432,2.034594
10.833615,-3.1452432,2.034594
10.833615,-3.1452432,2.034594
10.833615,-3.1452432,2.034594
10.833615,-3.1452432,2.034594
13.782579,-3.4037561000000003,2.6282167000000003
13.782579,-3.4037561000000003,2.6282167000000003
13.782579,-3.4037561000000003,2.6282167000000003
12.164479,-4.08355,3.8346114
12.164479,-4.08355,3.8346114
12.164479,-4.08355,3.8346114
12.164479,-4.08355,3.8346114
12.164479,-4.08355,3.8346114
13.179382,-3.3558834,1.7282081999999999
13.179382,-3.3558834,1.7282081999999999
13.179382,-3.3558834,1.7282081999999999
13.179382,-3.3558834,1.7282081999999999
11.417664,-2.2356597999999996,2.015445
11.417664,-2.2356597999999996,2.015445
11.417664,-2.2356597999999996,2.015445
7.2240057,-2.015445,0.98139244
7.2240057,-2.015445,0.98139244
7.2240057,-2.015445,0.98139244
7.2240057,-2.015445,0.98139244
7.2240057,-2.015445,0.98139244
6.151655,-1.3930986,0.78990126
6.151655,-1.3930986,0.78990126
6.151655,-1.3930986,0.78990126
6.151655,-1.3930986,0.78990126
7.5782647,-0.9622433000000001,0.9430941999999999
7.5782647,-0.9622433000000001,0.9430941999999999
7.5782647,-0.9622433000000001,0.9430941999999999
7.5782647,-0.9622433000000001,0.9430941999999999
9.971905,-1.469695,1.3452256999999999
9.971905,-1.469695,1.3452256999999999
9.971905,-1.469695,1.3452256999999999
9.971905,-1.469695,1.3452256999999999
11.532558,-1.3930986,1.8335283
11.532558,-1.3930986,1.8335283
11.532558,-1.3930986,1.8335283
11.532558,-1.3930986,1.8335283
11.628304,-1.948423,2.3026817000000004
11.628304,-1.948423,2.3026817000000004
11.628304,-1.948423,2.3026817000000004
11.628304,-1.948423,2.3026817000000004
10.986808,-2.752686,1.8143792
10.986808,-2.752686,1.8143792
10.986808,-2.752686,1.8143792
10.986808,-2.752686,1.8143792
11.542132,-2.2739582,2.2452345
11.542132,-2.2739582,2.2452345
11.542132,-2.2739582,2.2452345
11.542132,-2.2739582,2.2452345
6.706979799999999,-1.9292740000000002,2.4367256
6.706979799999999,-1.9292740000000002,2.4367256
6.706979799999999,-1.9292740000000002,2.4367256
5.289944599999999,-2.7239625,1.7473572
5.289944599999999,-2.7239625,1.7473572
5.289944599999999,-2.7239625,1.7473572
5.289944599999999,-2.7239625,1.7473572
6.783575999999999,-2.7239625,2.4750240000000003
6.783575999999999,-2.7239625,2.4750240000000003
6.783575999999999,-2.7239625,2.4750240000000003
6.783575999999999,-2.7239625,2.4750240000000003
10.354887,-3.0877957,3.0111992
10.354887,-3.0877957,3.0111992
10.354887,-3.0877957,3.0111992
10.354887,-3.0877957,3.0111992
11.953838000000001,-3.4707782,3.1643922000000004
11.953838000000001,-3.4707782,3.1643922000000004
11.953838000000001,-3.4707782,3.1643922000000004
11.953838000000001,-3.4707782,3.1643922000000004
11.953838000000001,-3.4707782,3.1643922000000004
12.097457,-4.1601467,3.2601378
12.097457,-4.1601467,3.2601378
12.097457,-4.1601467,3.2601378
9.7899885,-4.016528,3.0686467
9.7899885,-4.016528,3.0686467
9.7899885,-4.016528,3.0686467
9.7899885,-4.016528,3.0686467
13.476192999999999,-3.4420545,2.3888528
13.476192999999999,-3.4420545,2.3888528
13.476192999999999,-3.4420545,2.3888528
13.476192999999999,-3.4420545,2.3888528
13.476192999999999,-3.4420545,2.3888528
11.05383,-2.4654493,1.862252
11.05383,-2.4654493,1.862252
11.05383,-2.4654493,1.862252
7.4920936000000005,-2.168638,1.0675635
7.4920936000000005,-2.168638,1.0675635
7.4920936000000005,-2.168638,1.0675635
7.4920936000000005,-2.168638,1.0675635
7.176133,-1.8718264999999998,0.7994758000000001
7.176133,-1.8718264999999998,0.7994758000000001
7.176133,-1.8718264999999998,0.7994758000000001
7.176133,-1.8718264999999998,0.7994758000000001
8.296356,-1.0388398,0.92394507
8.296356,-1.0388398,0.92394507
8.296356,-1.0388398,0.92394507
8.296356,-1.0388398,0.92394507
8.995299000000001,-1.1728836,0.9526688
8.995299000000001,-1.1728836,0.9526688
8.995299000000001,-1.1728836,0.9526688
8.995299000000001,-1.1728836,0.9526688
11.05383,-1.6516117,1.4984187
11.05383,-1.6516117,1.4984187
11.05383,-1.6516117,1.4984187
11.05383,-1.6516117,1.4984187
11.025106,-1.862252,2.1303396
11.025106,-1.862252,2.1303396
11.025106,-1.862252,2.1303396
11.025106,-1.862252,2.1303396
12.317672,-2.0537431,2.2739582
12.317672,-2.0537431,2.2739582
12.317672,-2.0537431,2.2739582
12.317672,-2.0537431,2.2739582
11.513409,-2.494173,2.8963046
11.513409,-2.494173,2.8963046
11.513409,-2.494173,2.8963046
11.513409,-2.494173,2.8963046
5.041005999999999,-2.3505547000000004,2.427151
5.041005999999999,-2.3505547000000004,2.427151
5.041005999999999,-2.3505547000000004,2.427151
5.041005999999999,-2.3505547000000004,2.427151
4.9835587,-2.8101335,2.0728923999999997
4.9835587,-2.8101335,2.0728923999999997
4.9835587,-2.8101335,2.0728923999999997
4.9835587,-2.8101335,2.0728923999999997
7.559115400000001,-3.4324798999999997,2.8771553
7.559115400000001,-3.4324798999999997,2.8771553
7.559115400000001,-3.4324798999999997,2.8771553
7.559115400000001,-3.4324798999999997,2.8771553
10.766592999999999,-3.6335455999999997,3.3367343000000003
10.766592999999999,-3.6335455999999997,3.3367343000000003
10.766592999999999,-3.6335455999999997,3.3367343000000003
10.766592999999999,-3.6335455999999997,3.3367343000000003
12.748528,-4.0931244,3.2697124
12.748528,-4.0931244,3.2697124
12.748528,-4.0931244,3.2697124
12.748528,-4.0931244,3.2697124
12.748528,-4.0931244,3.2697124
12.327247,-4.0644007,3.3941817000000003
12.327247,-4.0644007,3.3941817000000003
12.327247,-4.0644007,3.3941817000000003
11.484685,-3.1739669999999998,2.4175766
11.484685,-3.1739669999999998,2.4175766
11.484685,-3.1739669999999998,2.4175766
11.484685,-3.1739669999999998,2.4175766
13.945347,-2.254809,2.9154537
13.945347,-2.254809,2.9154537
13.945347,-2.254809,2.9154537
13.945347,-2.254809,2.9154537
8.181462,-1.1345854,2.0250196
8.181462,-1.1345854,2.0250196
8.181462,-1.1345854,2.0250196
8.181462,-1.1345854,2.0250196
5.6154795,-0.6558574,1.0388398
5.6154795,-0.6558574,1.0388398
5.6154795,-0.6558574,1.0388398
5.6154795,-0.6558574,1.0388398
7.2048570000000005,-0.8664976999999999,1.0005416
7.2048570000000005,-0.8664976999999999,1.0005416
7.2048570000000005,-0.8664976999999999,1.0005416
7.2048570000000005,-0.8664976999999999,1.0005416
9.148492999999998,-0.93351966,0.8281995000000001
9.148492999999998,-0.93351966,0.8281995000000001
9.148492999999998,-0.93351966,0.8281995000000001
9.148492999999998,-0.93351966,0.8281995000000001
11.302769,-1.5941644,1.2973529
11.302769,-1.5941644,1.2973529
11.302769,-1.5941644,1.2973529
11.302769,-1.5941644,1.2973529
12.375119,-1.8143792,1.9962958
12.375119,-1.8143792,1.9962958
12.375119,-1.8143792,1.9962958
12.375119,-1.8143792,1.9962958
9.8953085,-2.3026817000000004,2.5420458
9.8953085,-2.3026817000000004,2.5420458
9.8953085,-2.3026817000000004,2.5420458
9.8953085,-2.3026817000000004,2.5420458
12.231501,-2.1877869999999997,2.9824755
12.231501,-2.1877869999999997,2.9824755
12.231501,-2.1877869999999997,2.9824755
12.231501,-2.1877869999999997,2.9824755
7.731457700000001,-1.4026731000000001,3.078221
7.731457700000001,-1.4026731000000001,3.078221
7.731457700000001,-1.4026731000000001,3.078221
7.731457700000001,-1.4026731000000001,3.078221
4.581427,-2.2931072999999995,2.2452345
4.581427,-2.2931072999999995,2.2452345
4.581427,-2.2931072999999995,2.2452345
4.581427,-2.2931072999999995,2.2452345
6.611234,-2.0920415,2.8101335
6.611234,-2.0920415,2.8101335
6.611234,-2.0920415,2.8101335
6.611234,-2.0920415,2.8101335
9.215514,-2.6569404999999997,3.2409887000000004
9.215514,-2.6569404999999997,3.2409887000000004
9.215514,-2.6569404999999997,3.2409887000000004
9.215514,-2.6569404999999997,3.2409887000000004
11.312344,-3.1643922000000004,3.2409887000000004
11.312344,-3.1643922000000004,3.2409887000000004
11.312344,-3.1643922000000004,3.2409887000000004
11.312344,-3.1643922000000004,3.2409887000000004
13.428320999999999,-3.4899273,2.9441773999999996
13.428320999999999,-3.4899273,2.9441773999999996
13.428320999999999,-3.4899273,2.9441773999999996
13.428320999999999,-3.4899273,2.9441773999999996
10.689997,-3.9016335,2.6090677
10.689997,-3.9016335,2.6090677
10.689997,-3.9016335,2.6090677
10.689997,-3.9016335,2.6090677
13.658110999999998,-3.5952474999999997,1.9962958
13.658110999999998,-3.5952474999999997,1.9962958
13.658110999999998,-3.5952474999999997,1.9962958
13.658110999999998,-3.5952474999999997,1.9962958
10.278291000000001,-2.3026817000000004,1.7186337
10.278291000000001,-2.3026817000000004,1.7186337
10.278291000000001,-2.3026817000000004,1.7186337
10.278291000000001,-2.3026817000000004,1.7186337
10.278291000000001,-2.3026817000000004,1.7186337
6.6591067,-2.1877869999999997,1.14416
6.6591067,-2.1877869999999997,1.14416
6.6591067,-2.1877869999999997,1.14416
6.9176197,-1.5079931999999998,1.0196906
6.9176197,-1.5079931999999998,1.0196906
6.9176197,-1.5079931999999998,1.0196906
6.9176197,-1.5079931999999998,1.0196906
8.44955,-0.9526688,1.2973529
8.44955,-0.9526688,1.2973529
8.44955,-0.9526688,1.2973529
8.44955,-0.9526688,1.2973529
9.742115,-1.4313968000000001,1.4218222
9.742115,-1.4313968000000001,1.4218222
9.742115,-1.4313968000000001,1.4218222
9.742115,-1.4313968000000001,1.4218222
11.561282,-1.862252,1.8335283
11.561282,-1.862252,1.8335283
11.561282,-1.862252,1.8335283
11.561282,-1.862252,1.8335283
11.561282,-1.862252,1.8335283
11.628304,-2.2260852000000004,2.408002
11.628304,-2.2260852000000004,2.408002
11.628304,-2.2260852000000004,2.408002
10.776167999999998,-2.5228968,2.4367256
10.776167999999998,-2.5228968,2.4367256
10.776167999999998,-2.5228968,2.4367256
10.776167999999998,-2.5228968,2.4367256
11.36979,-1.862252,2.4845984
11.36979,-1.862252,2.4845984
11.36979,-1.862252,2.4845984
11.36979,-1.862252,2.4845984
5.7686725,-1.8718264999999998,2.1303396
5.7686725,-1.8718264999999998,2.1303396
5.7686725,-1.8718264999999998,2.1303396
5.7686725,-1.8718264999999998,2.1303396
4.7537694,-2.8963046,1.6803354
4.7537694,-2.8963046,1.6803354
4.7537694,-2.8963046,1.6803354
4.7537694,-2.8963046,1.6803354
4.7537694,-2.8963046,1.6803354
7.195282000000001,-2.7431116,2.733537
7.195282000000001,-2.7431116,2.733537
7.195282000000001,-2.7431116,2.733537
10.105948,-2.7814097,3.4420545
10.105948,-2.7814097,3.4420545
10.105948,-2.7814097,3.4420545
10.105948,-2.7814097,3.4420545
10.105948,-2.7814097,3.4420545
11.934689500000001,-3.384607,3.231414
11.934689500000001,-3.384607,3.231414
11.934689500000001,-3.384607,3.231414
11.934689500000001,-3.384607,3.231414
12.135756,-3.7388659,2.9154537
12.135756,-3.7388659,2.9154537
12.135756,-3.7388659,2.9154537
11.111278,-3.777164,1.862252
11.111278,-3.777164,1.862252
11.111278,-3.777164,1.862252
11.111278,-3.777164,1.862252
11.111278,-3.777164,1.862252
14.280457,-3.3654580000000003,1.7665064
14.280457,-3.3654580000000003,1.7665064
14.280457,-3.3654580000000003,1.7665064
14.280457,-3.3654580000000003,1.7665064
8.018694,-2.5037475,1.4409714
8.018694,-2.5037475,1.4409714
8.018694,-2.5037475,1.4409714
8.018694,-2.5037475,1.4409714
6.285699,-2.0824668,1.1154363
6.285699,-2.0824668,1.1154363
6.285699,-2.0824668,1.1154363
6.285699,-2.0824668,1.1154363
7.137835000000001,-0.8186249,1.5271424
7.137835000000001,-0.8186249,1.5271424
7.137835000000001,-0.8186249,1.5271424
7.137835000000001,-0.8186249,1.5271424
8.784659,-0.76117754,1.3165021000000001
8.784659,-0.76117754,1.3165021000000001
8.784659,-0.76117754,1.3165021000000001
8.784659,-0.76117754,1.3165021000000001
11.216598,-1.6324625,1.3739493999999999
11.216598,-1.6324625,1.3739493999999999
11.216598,-1.6324625,1.3739493999999999
11.216598,-1.6324625,1.3739493999999999
11.752773,-2.1111906000000005,1.6611862000000002
11.752773,-2.1111906000000005,1.6611862000000002
11.752773,-2.1111906000000005,1.6611862000000002
11.752773,-2.1111906000000005,1.6611862000000002
11.226172,-2.0920415,2.2452345
11.226172,-2.0920415,2.2452345
11.226172,-2.0920415,2.2452345
11.226172,-2.0920415,2.2452345
12.633633,-2.3984275,2.733537
12.633633,-2.3984275,2.733537
12.633633,-2.3984275,2.733537
12.633633,-2.3984275,2.733537
6.697405000000001,-1.9005502,2.2835326
6.697405000000001,-1.9005502,2.2835326
6.697405000000001,-1.9005502,2.2835326
6.697405000000001,-1.9005502,2.2835326
4.715471,-2.3697037999999995,1.8526775000000002
4.715471,-2.3697037999999995,1.8526775000000002
4.715471,-2.3697037999999995,1.8526775000000002
4.715471,-2.3697037999999995,1.8526775000000002
6.8410234,-2.4845984,2.408002
6.8410234,-2.4845984,2.408002
6.8410234,-2.4845984,2.408002
6.8410234,-2.4845984,2.408002
10.134672,-3.1260939999999997,2.8292825
10.134672,-3.1260939999999997,2.8292825
10.134672,-3.1260939999999997,2.8292825
10.134672,-3.1260939999999997,2.8292825
12.528313,-2.8771553,2.9537517999999996
12.528313,-2.8771553,2.9537517999999996
12.528313,-2.8771553,2.9537517999999996
12.528313,-2.8771553,2.9537517999999996
12.059159,-3.078221,2.7718353
12.059159,-3.078221,2.7718353
12.059159,-3.078221,2.7718353
12.059159,-3.078221,2.7718353
10.785743,-3.1835412999999995,2.321831
10.785743,-3.1835412999999995,2.321831
10.785743,-3.1835412999999995,2.321831
10.785743,-3.1835412999999995,2.321831
14.127264000000002,-3.3175852,1.8431028999999999
14.127264000000002,-3.3175852,1.8431028999999999
14.127264000000002,-3.3175852,1.8431028999999999
14.127264000000002,-3.3175852,1.8431028999999999
8.746361,-2.5037475,1.5654407
8.746361,-2.5037475,1.5654407
8.746361,-2.5037475,1.5654407
8.746361,-2.5037475,1.5654407
5.941015,-2.034594,1.1345854
5.941015,-2.034594,1.1345854
5.941015,-2.034594,1.1345854
6.946343400000001,-1.3739493999999999,0.93351966
6.946343400000001,-1.3739493999999999,0.93351966
6.946343400000001,-1.3739493999999999,0.93351966
6.946343400000001,-1.3739493999999999,0.93351966
6.946343400000001,-1.3739493999999999,0.93351966
9.349558,-1.1345854,0.98139244
9.349558,-1.1345854,0.98139244
9.349558,-1.1345854,0.98139244
10.977234,-1.8526775000000002,1.3165021000000001
10.977234,-1.8526775000000002,1.3165021000000001
10.977234,-1.8526775000000002,1.3165021000000001
10.977234,-1.8526775000000002,1.3165021000000001
10.977234,-1.8526775000000002,1.3165021000000001
11.743198,-1.709059,1.4601203999999999
11.743198,-1.709059,1.4601203999999999
11.743198,-1.709059,1.4601203999999999
11.743198,-1.709059,1.4601203999999999
11.226172,-2.360129,1.948423
11.226172,-2.360129,1.948423
11.226172,-2.360129,1.948423
11.551707,-2.733537,2.0441686999999997
11.551707,-2.733537,2.0441686999999997
11.551707,-2.733537,2.0441686999999997
11.551707,-2.733537,2.0441686999999997
8.947427000000001,-1.8048046999999998,2.5037475
8.947427000000001,-1.8048046999999998,2.5037475
8.947427000000001,-1.8048046999999998,2.5037475
8.947427000000001,-1.8048046999999998,2.5037475
5.261221,-1.5462915000000002,2.0824668
5.261221,-1.5462915000000002,2.0824668
5.261221,-1.5462915000000002,2.0824668
5.261221,-1.5462915000000002,2.0824668
5.8644185,-3.0207740000000003,1.8814011999999998
5.8644185,-3.0207740000000003,1.8814011999999998
5.8644185,-3.0207740000000003,1.8814011999999998
5.8644185,-3.0207740000000003,1.8814011999999998
8.765511,-2.4750240000000003,2.9154537
8.765511,-2.4750240000000003,2.9154537
8.765511,-2.4750240000000003,2.9154537
8.765511,-2.4750240000000003,2.9154537
11.254896,-2.4367256,2.88673
11.254896,-2.4367256,2.88673
11.254896,-2.4367256,2.88673
11.254896,-2.4367256,2.88673
12.844273,-2.88673,2.321831
12.844273,-2.88673,2.321831
12.844273,-2.88673,2.321831
12.844273,-2.88673,2.321831
11.838944,-4.868664,1.6611862000000002
11.838944,-4.868664,1.6611862000000002
11.838944,-4.868664,1.6611862000000002
11.838944,-4.868664,1.6611862000000002
12.442142,-4.1984449999999995,1.1154363
12.442142,-4.1984449999999995,1.1154363
12.442142,-4.1984449999999995,1.1154363
12.442142,-4.1984449999999995,1.1154363
11.513409,-2.5707695,1.469695
11.513409,-2.5707695,1.469695
11.513409,-2.5707695,1.469695
11.513409,-2.5707695,1.469695
6.6016593,-2.2452345,0.9526688
6.6016593,-2.2452345,0.9526688
6.6016593,-2.2452345,0.9526688
6.6016593,-2.2452345,0.9526688
6.5154879999999995,-1.9388485,0.6558574
6.5154879999999995,-1.9388485,0.6558574
6.5154879999999995,-1.9388485,0.6558574
6.5154879999999995,-1.9388485,0.6558574
8.171887,-1.5175678999999997,0.9622433000000001
8.171887,-1.5175678999999997,0.9622433000000001
8.171887,-1.5175678999999997,0.9622433000000001
8.171887,-1.5175678999999997,0.9622433000000001
9.885734,-1.3356511999999998,1.0484143
9.885734,-1.3356511999999998,1.0484143
9.885734,-1.3356511999999998,1.0484143
9.885734,-1.3356511999999998,1.0484143
11.877241999999999,-1.4505458999999998,1.3069274
11.877241999999999,-1.4505458999999998,1.3069274
11.877241999999999,-1.4505458999999998,1.3069274
11.877241999999999,-1.4505458999999998,1.3069274
12.8538475,-1.7569318999999999,1.5175678999999997
12.8538475,-1.7569318999999999,1.5175678999999997
12.8538475,-1.7569318999999999,1.5175678999999997
12.8538475,-1.7569318999999999,1.5175678999999997
10.40276,-2.6186423,1.9388485
10.40276,-2.6186423,1.9388485
10.40276,-2.6186423,1.9388485
10.40276,-2.6186423,1.9388485
10.71872,-1.709059,2.408002
10.71872,-1.709059,2.408002
10.71872,-1.709059,2.408002
10.71872,-1.709059,2.408002
6.6016593,-1.5558661,2.2835326
6.6016593,-1.5558661,2.2835326
6.6016593,-1.5558661,2.2835326
6.6016593,-1.5558661,2.2835326
5.3186684,-2.9441773999999996,1.469695
5.3186684,-2.9441773999999996,1.469695
5.3186684,-2.9441773999999996,1.469695
5.3186684,-2.9441773999999996,1.469695
7.291027499999999,-2.4463003,2.2835326
7.291027499999999,-2.4463003,2.2835326
7.291027499999999,-2.4463003,2.2835326
7.291027499999999,-2.4463003,2.2835326
9.502751,-2.9441773999999996,2.5037475
9.502751,-2.9441773999999996,2.5037475
9.502751,-2.9441773999999996,2.5037475
12.202777000000001,-2.4175766,3.2697124
12.202777000000001,-2.4175766,3.2697124
12.202777000000001,-2.4175766,3.2697124
12.202777000000001,-2.4175766,3.2697124
12.202777000000001,-2.4175766,3.2697124
14.347479000000002,-1.6324625,3.8250370000000005
14.347479000000002,-1.6324625,3.8250370000000005
14.347479000000002,-1.6324625,3.8250370000000005
10.105948,-3.2888615,2.2739582
10.105948,-3.2888615,2.2739582
10.105948,-3.2888615,2.2739582
10.105948,-3.2888615,2.2739582
12.719804,-3.3367343000000003,2.1303396
12.719804,-3.3367343000000003,2.1303396
12.719804,-3.3367343000000003,2.1303396
12.719804,-3.3367343000000003,2.1303396
8.851681,-1.2782038,2.168638
8.851681,-1.2782038,2.168638
8.851681,-1.2782038,2.168638
8.851681,-1.2782038,2.168638
6.0463347,-1.6516117,1.2303311000000001
6.0463347,-1.6516117,1.2303311000000001
6.0463347,-1.6516117,1.2303311000000001
6.0463347,-1.6516117,1.2303311000000001
6.6591067,-2.5707695,0.56968635
6.6591067,-2.5707695,0.56968635
6.6591067,-2.5707695,0.56968635
6.6591067,-2.5707695,0.56968635
9.148492999999998,-1.7282081999999999,0.9718179
9.148492999999998,-1.7282081999999999,0.9718179
9.148492999999998,-1.7282081999999999,0.9718179
9.148492999999998,-1.7282081999999999,0.9718179
9.148492999999998,-1.7282081999999999,0.9718179
11.379365,-1.6803354,1.3930986
11.379365,-1.6803354,1.3930986
11.379365,-1.6803354,1.3930986
12.8538475,-1.9388485,1.6516117
12.8538475,-1.9388485,1.6516117
12.8538475,-1.9388485,1.6516117
12.8538475,-1.9388485,1.6516117
10.555953,-2.3697037999999995,2.5707695
10.555953,-2.3697037999999995,2.5707695
10.555953,-2.3697037999999995,2.5707695
10.555953,-2.3697037999999995,2.5707695
11.197449,-1.6899098999999997,2.5037475
11.197449,-1.6899098999999997,2.5037475
11.197449,-1.6899098999999997,2.5037475
11.197449,-1.6899098999999997,2.5037475
7.855927,-1.1537346000000002,2.6090677
7.855927,-1.1537346000000002,2.6090677
7.855927,-1.1537346000000002,2.6090677
7.855927,-1.1537346000000002,2.6090677
4.389936,-1.9675721999999998,1.6133133999999998
4.389936,-1.9675721999999998,1.6133133999999998
4.389936,-1.9675721999999998,1.6133133999999998
4.389936,-1.9675721999999998,1.6133133999999998
6.2474008,-2.6090677,2.4367256
6.2474008,-2.6090677,2.4367256
6.2474008,-2.6090677,2.4367256
6.2474008,-2.6090677,2.4367256
8.621891999999999,-2.2260852000000004,3.5378
8.621891999999999,-2.2260852000000004,3.5378
8.621891999999999,-2.2260852000000004,3.5378
8.621891999999999,-2.2260852000000004,3.5378
11.896391,-2.2739582,3.5473747
11.896391,-2.2739582,3.5473747
11.896391,-2.2739582,3.5473747
11.896391,-2.2739582,3.5473747
12.968742,-3.3271596,2.972901
12.968742,-3.3271596,2.972901
12.968742,-3.3271596,2.972901
12.968742,-3.3271596,2.972901
11.235746,-3.8058877,2.9441773999999996
11.235746,-3.8058877,2.9441773999999996
11.235746,-3.8058877,2.9441773999999996
11.235746,-3.8058877,2.9441773999999996
13.514492,-3.5090763999999997,1.6994845
13.514492,-3.5090763999999997,1.6994845
13.514492,-3.5090763999999997,1.6994845
13.514492,-3.5090763999999997,1.6994845
11.05383,-2.4750240000000003,1.6994845
11.05383,-2.4750240000000003,1.6994845
11.05383,-2.4750240000000003,1.6994845
11.05383,-2.4750240000000003,1.6994845
6.630383,-2.149489,1.0867126
6.630383,-2.149489,1.0867126
6.630383,-2.149489,1.0867126
6.630383,-2.149489,1.0867126
6.103782,-2.0250196,0.50266445
6.103782,-2.0250196,0.50266445
6.103782,-2.0250196,0.50266445
6.103782,-2.0250196,0.50266445
6.103782,-2.0250196,0.50266445
8.32508,-1.4984187,1.0196906
8.32508,-1.4984187,1.0196906
8.32508,-1.4984187,1.0196906
9.7899885,-1.5462915000000002,1.2399056
9.7899885,-1.5462915000000002,1.2399056
9.7899885,-1.5462915000000002,1.2399056
9.7899885,-1.5462915000000002,1.2399056
11.178299,-1.5558661,1.7377827000000001
11.178299,-1.5558661,1.7377827000000001
11.178299,-1.5558661,1.7377827000000001
11.178299,-1.5558661,1.7377827000000001
11.178299,-1.5558661,1.7377827000000001
11.838944,-1.8335283,2.494173
11.838944,-1.8335283,2.494173
11.838944,-1.8335283,2.494173
9.215514,-2.3792782000000003,2.1303396
9.215514,-2.3792782000000003,2.1303396
9.215514,-2.3792782000000003,2.1303396
9.215514,-2.3792782000000003,2.1303396
12.537887,-2.6856642,2.647366
12.537887,-2.6856642,2.647366
12.537887,-2.6856642,2.647366
12.537887,-2.6856642,2.647366
12.537887,-2.6856642,2.647366
6.7165539999999995,-1.9962958,2.7814097
6.7165539999999995,-1.9962958,2.7814097
6.7165539999999995,-1.9962958,2.7814097
6.7165539999999995,-1.9962958,2.7814097
5.146326,-2.9250283,2.101616
5.146326,-2.9250283,2.101616
5.146326,-2.9250283,2.101616
6.678256,-2.9346027,2.6377914000000002
6.678256,-2.9346027,2.6377914000000002
6.678256,-2.9346027,2.6377914000000002
6.678256,-2.9346027,2.6377914000000002
6.678256,-2.9346027,2.6377914000000002
9.6942425,-2.6282167000000003,3.1548176
9.6942425,-2.6282167000000003,3.1548176
9.6942425,-2.6282167000000003,3.1548176
9.6942425,-2.6282167000000003,3.1548176
12.212352000000001,-2.905879,2.9920502
12.212352000000001,-2.905879,2.9920502
12.212352000000001,-2.905879,2.9920502
12.624058,-3.3750327000000007,2.647366
12.624058,-3.3750327000000007,2.647366
12.624058,-3.3750327000000007,2.647366
12.624058,-3.3750327000000007,2.647366
12.624058,-3.3750327000000007,2.647366
11.800646,-3.7005677,1.9005502
11.800646,-3.7005677,1.9005502
11.800646,-3.7005677,1.9005502
11.800646,-3.7005677,1.9005502
13.945347,-3.3080106,1.6516117
13.945347,-3.3080106,1.6516117
13.945347,-3.3080106,1.6516117
8.679339,-2.1782124,1.4601203999999999
8.679339,-2.1782124,1.4601203999999999
8.679339,-2.1782124,1.4601203999999999
8.679339,-2.1782124,1.4601203999999999
5.7016506,-2.0537431,1.0579889
5.7016506,-2.0537431,1.0579889
5.7016506,-2.0537431,1.0579889
5.7016506,-2.0537431,1.0579889
7.2335806,-1.6611862000000002,0.8856468000000001
7.2335806,-1.6611862000000002,0.8856468000000001
7.2335806,-1.6611862000000002,0.8856468000000001
7.2335806,-1.6611862000000002,0.8856468000000001
9.148492999999998,-1.2973529,1.2016073
9.148492999999998,-1.2973529,1.2016073
9.148492999999998,-1.2973529,1.2016073
9.148492999999998,-1.2973529,1.2016073
10.622974000000001,-1.5654407,1.4505458999999998
10.622974000000001,-1.5654407,1.4505458999999998
10.622974000000001,-1.5654407,1.4505458999999998
10.622974000000001,-1.5654407,1.4505458999999998
11.513409,-1.9005502,1.5271424
11.513409,-1.9005502,1.5271424
11.513409,-1.9005502,1.5271424
11.513409,-1.9005502,1.5271424
10.2016945,-2.513322,2.3314054
10.2016945,-2.513322,2.3314054
10.2016945,-2.513322,2.3314054
10.2016945,-2.513322,2.3314054
13.035764,-2.494173,2.3792782000000003
13.035764,-2.494173,2.3792782000000003
13.035764,-2.494173,2.3792782000000003
13.035764,-2.494173,2.3792782000000003
13.035764,-2.494173,2.3792782000000003
8.832532,-1.8526775000000002,3.1356685
8.832532,-1.8526775000000002,3.1356685
8.832532,-1.8526775000000002,3.1356685
5.0601554,-2.2452345,2.3697037999999995
5.0601554,-2.2452345,2.3697037999999995
5.0601554,-2.2452345,2.3697037999999995
5.0601554,-2.2452345,2.3697037999999995
5.9027166,-3.2218397000000003,2.0441686999999997
5.9027166,-3.2218397000000003,2.0441686999999997
5.9027166,-3.2218397000000003,2.0441686999999997
5.9027166,-3.2218397000000003,2.0441686999999997
5.9027166,-3.2218397000000003,2.0441686999999997
8.430401,-2.7431116,2.666515
8.430401,-2.7431116,2.666515
8.430401,-2.7431116,2.666515
11.331491999999999,-3.0303482999999996,2.6282167000000003
11.331491999999999,-3.0303482999999996,2.6282167000000003
11.331491999999999,-3.0303482999999996,2.6282167000000003
11.331491999999999,-3.0303482999999996,2.6282167000000003
12.643207,-3.078221,2.6090677
12.643207,-3.078221,2.6090677
12.643207,-3.078221,2.6090677
12.643207,-3.078221,2.6090677
11.580430999999999,-3.5473747,2.867581
11.580430999999999,-3.5473747,2.867581
11.580430999999999,-3.5473747,2.867581
11.580430999999999,-3.5473747,2.867581
12.681505,-3.4899273,1.5367169
12.681505,-3.4899273,1.5367169
12.681505,-3.4899273,1.5367169
12.681505,-3.4899273,1.5367169
12.049584,-2.513322,1.7377827000000001
12.049584,-2.513322,1.7377827000000001
12.049584,-2.513322,1.7377827000000001
12.049584,-2.513322,1.7377827000000001
7.137835000000001,-2.0058703,1.2207563999999997
7.137835000000001,-2.0058703,1.2207563999999997
7.137835000000001,-2.0058703,1.2207563999999997
7.137835000000001,-2.0058703,1.2207563999999997
6.649532300000001,-1.9771467,0.6271336999999999
6.649532300000001,-1.9771467,0.6271336999999999
6.649532300000001,-1.9771467,0.6271336999999999
8.430401,-1.3452256999999999,0.99096704
8.430401,-1.3452256999999999,0.99096704
8.430401,-1.3452256999999999,0.99096704
8.430401,-1.3452256999999999,0.99096704
9.54105,-1.469695,1.1154363
9.54105,-1.469695,1.1154363
9.54105,-1.469695,1.1154363
9.54105,-1.469695,1.1154363
12.078308,-1.776081,1.4984187
12.078308,-1.776081,1.4984187
12.078308,-1.776081,1.4984187
12.078308,-1.776081,1.4984187
11.360216000000001,-1.6133133999999998,1.9292740000000002
11.360216000000001,-1.6133133999999998,1.9292740000000002
11.360216000000001,-1.6133133999999998,1.9292740000000002
11.360216000000001,-1.6133133999999998,1.9292740000000002
11.360216000000001,-1.6133133999999998,1.9292740000000002
10.287866000000001,-2.360129,2.3984275
10.287866000000001,-2.360129,2.3984275
10.287866000000001,-2.360129,2.3984275
11.226172,-1.6899098999999997,2.254809
11.226172,-1.6899098999999997,2.254809
11.226172,-1.6899098999999997,2.254809
11.226172,-1.6899098999999997,2.254809
7.176133,-2.2643836,1.9962958
7.176133,-2.2643836,1.9962958
7.176133,-2.2643836,1.9962958
7.176133,-2.2643836,1.9962958
5.6154795,-2.9250283,1.5845897
5.6154795,-2.9250283,1.5845897
5.6154795,-2.9250283,1.5845897
5.6154795,-2.9250283,1.5845897
6.6878304,-2.5994933,2.3314054
6.6878304,-2.5994933,2.3314054
6.6878304,-2.5994933,2.3314054
6.6878304,-2.5994933,2.3314054
8.909127999999999,-2.9920502,2.7239625
8.909127999999999,-2.9920502,2.7239625
8.909127999999999,-2.9920502,2.7239625
8.909127999999999,-2.9920502,2.7239625
11.905966000000001,-3.059072,3.4420545
11.905966000000001,-3.059072,3.4420545
11.905966000000001,-3.059072,3.4420545
11.905966000000001,-3.059072,3.4420545
13.102786,-2.360129,3.4803526
13.102786,-2.360129,3.4803526
13.102786,-2.360129,3.4803526
13.102786,-2.360129,3.4803526
10.833615,-3.1069447999999995,2.6952388
10.833615,-3.1069447999999995,2.6952388
10.833615,-3.1069447999999995,2.6952388
10.833615,-3.1069447999999995,2.6952388
12.844273,-3.3558834,1.4984187
12.844273,-3.3558834,1.4984187
12.844273,-3.3558834,1.4984187
12.844273,-3.3558834,1.4984187
10.536804,-2.5994933,1.3452256999999999
10.536804,-2.5994933,1.3452256999999999
10.536804,-2.5994933,1.3452256999999999
10.536804,-2.5994933,1.3452256999999999
7.0995364,-2.0920415,1.0579889
7.0995364,-2.0920415,1.0579889
7.0995364,-2.0920415,1.0579889
7.0995364,-2.0920415,1.0579889
6.8793216,-1.948423,0.7420284
6.8793216,-1.948423,0.7420284
6.8793216,-1.948423,0.7420284
6.8793216,-1.948423,0.7420284
8.076141,-1.4313968000000001,1.2973529
8.076141,-1.4313968000000001,1.2973529
8.076141,-1.4313968000000001,1.2973529
8.076141,-1.4313968000000001,1.2973529
9.062322,-1.3548003,1.4505458999999998
9.062322,-1.3548003,1.4505458999999998
9.062322,-1.3548003,1.4505458999999998
9.062322,-1.3548003,1.4505458999999998
11.140001,-1.7569318999999999,1.8814011999999998
11.140001,-1.7569318999999999,1.8814011999999998
11.140001,-1.7569318999999999,1.8814011999999998
11.140001,-1.7569318999999999,1.8814011999999998
12.288948,-2.015445,2.168638
12.288948,-2.015445,2.168638
12.288948,-2.015445,2.168638
12.288948,-2.015445,2.168638
9.98148,-2.2739582,2.2069361
9.98148,-2.2739582,2.2069361
9.98148,-2.2739582,2.2069361
9.98148,-2.2739582,2.2069361
13.409172,-2.2452345,3.0494976
13.409172,-2.2452345,3.0494976
13.409172,-2.2452345,3.0494976
13.409172,-2.2452345,3.0494976
6.630383,-1.7282081999999999,2.6856642
6.630383,-1.7282081999999999,2.6856642
6.630383,-1.7282081999999999,2.6856642
6.630383,-1.7282081999999999,2.6856642
4.9356860000000005,-3.0207740000000003,1.7282081999999999
4.9356860000000005,-3.0207740000000003,1.7282081999999999
4.9356860000000005,-3.0207740000000003,1.7282081999999999
4.9356860000000005,-3.0207740000000003,1.7282081999999999
6.1612295999999995,-2.7048132000000003,2.3697037999999995
6.1612295999999995,-2.7048132000000003,2.3697037999999995
6.1612295999999995,-2.7048132000000003,2.3697037999999995
6.1612295999999995,-2.7048132000000003,2.3697037999999995
6.1612295999999995,-2.7048132000000003,2.3697037999999995
9.426155,-2.7239625,2.733537
9.426155,-2.7239625,2.733537
9.426155,-2.7239625,2.733537
12.576185,-3.2218397000000003,2.8101335
12.576185,-3.2218397000000003,2.8101335
12.576185,-3.2218397000000003,2.8101335
12.576185,-3.2218397000000003,2.8101335
12.767676,-3.604822,2.6282167000000003
12.767676,-3.604822,2.6282167000000003
12.767676,-3.604822,2.6282167000000003
12.767676,-3.604822,2.6282167000000003
12.767676,-3.604822,2.6282167000000003
11.015532,-3.8537605000000004,2.0250196
11.015532,-3.8537605000000004,2.0250196
11.015532,-3.8537605000000004,2.0250196
13.916623999999999,-3.4707782,1.7856555
13.916623999999999,-3.4707782,1.7856555
13.916623999999999,-3.4707782,1.7856555
13.916623999999999,-3.4707782,1.7856555
8.957002000000001,-2.4558747000000003,1.6037389
8.957002000000001,-2.4558747000000003,1.6037389
8.957002000000001,-2.4558747000000003,1.6037389
8.957002000000001,-2.4558747000000003,1.6037389
8.957002000000001,-2.4558747000000003,1.6037389
6.6878304,-2.0441686999999997,1.1345854
6.6878304,-2.0441686999999997,1.1345854
6.6878304,-2.0441686999999997,1.1345854
7.587839,-1.6133133999999998,0.9718179
