accx,accy,accz
-1.6516117,3.3654580000000003,8.526146
-1.6516117,3.3654580000000003,8.526146
-1.5462915000000002,3.4324798999999997,8.564445
-1.5462915000000002,3.4324798999999997,8.564445
-1.5462915000000002,3.4324798999999997,8.564445
-1.5462915000000002,3.4324798999999997,8.564445
-1.6228879999999999,3.2792869,8.564445
-1.6228879999999999,3.2792869,8.564445
-1.6228879999999999,3.2792869,8.564445
-1.5654407,3.231414,8.382527
-1.5654407,3.231414,8.382527
-1.5654407,3.231414,8.382527
-1.5654407,3.231414,8.382527
-1.5654407,3.231414,8.382527
-1.6133133999999998,3.1643922000000004,8.4686985
-1.6133133999999998,3.1643922000000004,8.4686985
-1.6133133999999998,3.1643922000000004,8.4686985
-1.8335283,3.1165195,8.746361
-1.8335283,3.1165195,8.746361
-1.8335283,3.1165195,8.746361
-1.8335283,3.1165195,8.746361
-1.7856555,3.0877957,8.277207
-1.7856555,3.0877957,8.277207
-1.7856555,3.0877957,8.277207
-1.7856555,3.0877957,8.277207
-1.3548003,2.1782124,6.5729356
-1.3548003,2.1782124,6.5729356
-1.3548003,2.1782124,6.5729356
-1.3548003,2.1782124,6.5729356
-1.9101248,0.9430941999999999,7.0133657000000005
-1.9101248,0.9430941999999999,7.0133657000000005
-1.9101248,0.9430941999999999,7.0133657000000005
-1.9101248,0.9430941999999999,7.0133657000000005
-2.2165107999999996,1.6994845,6.3718699999999995
-2.2165107999999996,1.6994845,6.3718699999999995
-2.2165107999999996,1.6994845,6.3718699999999995
-2.2165107999999996,1.6994845,6.3718699999999995
-3.9016335,-0.13883112,6.745278
-3.9016335,-0.13883112,6.745278
-3.9016335,-0.13883112,6.745278
-3.9016335,-0.13883112,6.745278
-5.500585,-0.2154276,7.7027339999999995
-5.500585,-0.2154276,7.7027339999999995
-5.500585,-0.2154276,7.7027339999999995
-7.865501400000001,-3.3463089999999998,6.151655
-7.865501400000001,-3.3463089999999998,6.151655
-7.865501400000001,-3.3463089999999998,6.151655
-7.865501400000001,-3.3463089999999998,6.151655
-7.5782647,-4.3995104000000005,3.9782297999999994
-7.5782647,-4.3995104000000005,3.9782297999999994
-7.5782647,-4.3995104000000005,3.9782297999999994
-7.5782647,-4.3995104000000005,3.9782297999999994
-7.5782647,-4.3995104000000005,3.9782297999999994
-9.550624000000001,-3.3654580000000003,2.8101335
-9.550624000000001,-3.3654580000000003,2.8101335
-9.550624000000001,-3.3654580000000003,2.8101335
-12.35597,-4.648448999999999,0.8090504
-12.35597,-4.648448999999999,0.8090504
-12.35597,-4.648448999999999,0.8090504
-12.35597,-4.648448999999999,0.8090504
-12.35597,-4.648448999999999,0.8090504
-12.116607,-6.2474008,-0.56968635
-12.116607,-6.2474008,-0.56968635
-12.116607,-6.2474008,-0.56968635
-12.116607,-6.2474008,-0.56968635
-10.307014,-3.6814184,0.54096264
-10.307014,-3.6814184,0.54096264
-10.307014,-3.6814184,0.54096264
-9.41658,-2.6377914000000002,0.00478728
-9.41658,-2.6377914000000002,0.00478728
-9.41658,-2.6377914000000002,0.00478728
-9.41658,-2.6377914000000002,0.00478728
-9.119769,-2.5420458,-0.27287498
-9.119769,-2.5420458,-0.27287498
-9.119769,-2.5420458,-0.27287498
-9.119769,-2.5420458,-0.27287498
-9.445304,-1.9292740000000002,-0.22500217
-9.445304,-1.9292740000000002,-0.22500217
-9.445304,-1.9292740000000002,-0.22500217
-9.445304,-1.9292740000000002,-0.22500217
-9.368708,-2.0250196,-0.0718092
-9.368708,-2.0250196,-0.0718092
-9.368708,-2.0250196,-0.0718092
-9.368708,-2.0250196,-0.0718092
-9.004874000000001,-2.4558747000000003,-0.36862057
-9.004874000000001,-2.4558747000000003,-0.36862057
-9.004874000000001,-2.4558747000000003,-0.36862057
-9.004874000000001,-2.4558747000000003,-0.36862057
-9.435728999999998,-1.5558661,-0.043085523
-9.435728999999998,-1.5558661,-0.043085523
-9.435728999999998,-1.5558661,-0.043085523
-9.435728999999998,-1.5558661,-0.043085523
-9.445304,-1.5079931999999998,-0.043085523
-9.445304,-1.5079931999999998,-0.043085523
-9.445304,-1.5079931999999998,-0.043085523
-9.483603,-1.5462915000000002,-0.2154276
-9.483603,-1.5462915000000002,-0.2154276
-9.483603,-1.5462915000000002,-0.2154276
-9.483603,-1.5462915000000002,-0.2154276
-9.483603,-1.5462915000000002,-0.2154276
-9.263388,-1.5175678999999997,-0.19627848
-9.263388,-1.5175678999999997,-0.19627848
-9.263388,-1.5175678999999997,-0.19627848
-9.263388,-1.5175678999999997,-0.19627848
-9.3878565,-1.6707608,-0.12925656
-9.3878565,-1.6707608,-0.12925656
-9.3878565,-1.6707608,-0.12925656
-9.3878565,-1.6707608,-0.12925656
-9.512326,-1.9675721999999998,-0.3877697
-9.512326,-1.9675721999999998,-0.3877697
-9.512326,-1.9675721999999998,-0.3877697
-9.512326,-1.9675721999999998,-0.3877697
-9.244238000000001,-1.8239537000000001,-0.2920241
-9.244238000000001,-1.8239537000000001,-0.2920241
-9.244238000000001,-1.8239537000000001,-0.2920241
-9.330409,-1.6324625,0.023936402000000002
-9.330409,-1.6324625,0.023936402000000002
-9.330409,-1.6324625,0.023936402000000002
-9.330409,-1.6324625,0.023936402000000002
-9.531475,-1.6228879999999999,-0.062234644000000006
-9.531475,-1.6228879999999999,-0.062234644000000006
-9.531475,-1.6228879999999999,-0.062234644000000006
-9.531475,-1.6228879999999999,-0.062234644000000006
-9.3878565,-1.862252,-0.32074776
-9.3878565,-1.862252,-0.32074776
-9.3878565,-1.862252,-0.32074776
-9.3878565,-1.862252,-0.32074776
-9.359133,-1.6611862000000002,-0.11968201
-9.359133,-1.6611862000000002,-0.11968201
-9.359133,-1.6611862000000002,-0.11968201
-9.359133,-1.6611862000000002,-0.11968201
-9.426155,-1.6420371999999999,-0.09095833
-9.426155,-1.6420371999999999,-0.09095833
-9.426155,-1.6420371999999999,-0.09095833
-9.426155,-1.6420371999999999,-0.09095833
-9.339984,-1.5654407,-0.12925656
-9.339984,-1.5654407,-0.12925656
-9.339984,-1.5654407,-0.12925656
-9.339984,-1.5654407,-0.12925656
-9.41658,-1.4984187,-0.10053288
-9.41658,-1.4984187,-0.10053288
-9.41658,-1.4984187,-0.10053288
-9.407005,-1.5558661,-0.00478728
-9.407005,-1.5558661,-0.00478728
-9.407005,-1.5558661,-0.00478728
-9.407005,-1.5558661,-0.00478728
-9.407005,-1.5558661,-0.00478728
-9.378282,-1.5367169,0.014361841
-9.378282,-1.5367169,0.014361841
-9.378282,-1.5367169,0.014361841
-9.378282,-1.4888442,0.014361841
-9.378282,-1.4888442,0.014361841
-9.378282,-1.4888442,0.014361841
-9.378282,-1.4888442,0.014361841
-9.301685,-1.5175678999999997,-0.014361841
-9.301685,-1.5175678999999997,-0.014361841
-9.301685,-1.5175678999999997,-0.014361841
-9.301685,-1.5175678999999997,-0.014361841
-9.407005,-1.5558661,0.023936402000000002
-9.407005,-1.5558661,0.023936402000000002
-9.407005,-1.5558661,0.023936402000000002
-9.407005,-1.5558661,0.023936402000000002
-9.397431,-1.5079931999999998,0.043085523
-9.397431,-1.5079931999999998,0.043085523
-9.397431,-1.5079931999999998,0.043085523
-9.397431,-1.5079931999999998,0.043085523
-9.41658,-1.4601203999999999,0.11968201
-9.41658,-1.4601203999999999,0.11968201
-9.41658,-1.4601203999999999,0.11968201
-9.41658,-1.4601203999999999,0.11968201
-9.3878565,-1.4122477,0.10053288
-9.3878565,-1.4122477,0.10053288
-9.3878565,-1.4122477,0.10053288
-9.3878565,-1.4122477,0.10053288
-9.368708,-1.5654407,0.13883112
-9.368708,-1.5654407,0.13883112
-9.368708,-1.5654407,0.13883112
-9.2825365,-1.5462915000000002,0.110107444
-9.2825365,-1.5462915000000002,0.110107444
-9.2825365,-1.5462915000000002,0.110107444
-9.2825365,-1.5462915000000002,0.110107444
-9.493176,-1.4601203999999999,0.09095833
-9.493176,-1.4601203999999999,0.09095833
-9.493176,-1.4601203999999999,0.09095833
-9.493176,-1.4601203999999999,0.09095833
-9.349558,-1.4792696,0.11968201
-9.349558,-1.4792696,0.11968201
-9.349558,-1.4792696,0.11968201
-9.349558,-1.4792696,0.11968201
-9.445304,-1.6611862000000002,0.05266008
-9.445304,-1.6611862000000002,0.05266008
-9.445304,-1.6611862000000002,0.05266008
-9.445304,-1.6611862000000002,0.05266008
-9.474028,-1.7856555,0.023936402000000002
-9.474028,-1.7856555,0.023936402000000002
-9.474028,-1.7856555,0.023936402000000002
-9.474028,-1.7856555,0.023936402000000002
-9.454879,-1.6324625,0.0718092
-9.454879,-1.6324625,0.0718092
-9.454879,-1.6324625,0.0718092
-9.339984,-1.4601203999999999,0.043085523
-9.339984,-1.4601203999999999,0.043085523
-9.339984,-1.4601203999999999,0.043085523
-9.339984,-1.4601203999999999,0.043085523
-9.368708,-1.5654407,-0.00478728
-9.368708,-1.5654407,-0.00478728
-9.368708,-1.5654407,-0.00478728
-9.368708,-1.5654407,-0.00478728
-9.445304,-1.5845897,-0.014361841
-9.445304,-1.5845897,-0.014361841
-9.445304,-1.5845897,-0.014361841
-9.445304,-1.5845897,-0.014361841
-9.445304,-1.6133133999999998,-0.12925656
-9.445304,-1.6133133999999998,-0.12925656
-9.445304,-1.6133133999999998,-0.12925656
-9.445304,-1.6133133999999998,-0.12925656
-9.330409,-1.4601203999999999,0.05266008
-9.330409,-1.4601203999999999,0.05266008
-9.330409,-1.4601203999999999,0.05266008
-9.330409,-1.4601203999999999,0.05266008
-9.474028,-1.5750152,0.014361841
-9.474028,-1.5750152,0.014361841
-9.474028,-1.5750152,0.014361841
-9.474028,-1.5750152,0.014361841
-9.320834,-1.5654407,0.023936402000000002
-9.320834,-1.5654407,0.023936402000000002
-9.320834,-1.5654407,0.023936402000000002
-9.445304,-1.6324625,-0.03351096
-9.445304,-1.6324625,-0.03351096
-9.445304,-1.6324625,-0.03351096
-9.445304,-1.6324625,-0.03351096
-9.445304,-1.6324625,-0.03351096
-9.368708,-1.6228879999999999,0.014361841
-9.368708,-1.6228879999999999,0.014361841
-9.368708,-1.6228879999999999,0.014361841
-9.454879,-1.5271424,-0.062234644000000006
-9.454879,-1.5271424,-0.062234644000000006
-9.454879,-1.5271424,-0.062234644000000006
-9.454879,-1.5271424,-0.062234644000000006
-9.445304,-1.4601203999999999,-0.062234644000000006
-9.445304,-1.4601203999999999,-0.062234644000000006
-9.445304,-1.4601203999999999,-0.062234644000000006
-9.445304,-1.4601203999999999,-0.062234644000000006
-9.225089,-1.4218222,-0.043085523
-9.225089,-1.4218222,-0.043085523
-9.225089,-1.4218222,-0.043085523
-9.225089,-1.4218222,-0.043085523
-9.41658,-1.5654407,0.014361841
-9.41658,-1.5654407,0.014361841
-9.41658,-1.5654407,0.014361841
-9.41658,-1.5654407,0.014361841
-9.5219,-1.6611862000000002,0.014361841
-9.5219,-1.6611862000000002,0.014361841
-9.5219,-1.6611862000000002,0.014361841
-9.5219,-1.6611862000000002,0.014361841
-9.426155,-1.5079931999999998,-0.043085523
-9.426155,-1.5079931999999998,-0.043085523
-9.426155,-1.5079931999999998,-0.043085523
-9.426155,-1.5079931999999998,-0.043085523
-9.3878565,-1.4601203999999999,0.014361841
-9.3878565,-1.4601203999999999,0.014361841
-9.3878565,-1.4601203999999999,0.014361841
-9.474028,-1.5271424,0.014361841
-9.474028,-1.5271424,0.014361841
-9.474028,-1.5271424,0.014361841
-9.474028,-1.5271424,0.014361841
-9.426155,-1.4984187,-0.09095833
-9.426155,-1.4984187,-0.09095833
-9.426155,-1.4984187,-0.09095833
-9.426155,-1.4984187,-0.09095833
-9.272962,-1.4984187,-0.00478728
-9.272962,-1.4984187,-0.00478728
-9.272962,-1.4984187,-0.00478728
-9.272962,-1.4984187,-0.00478728
-9.502751,-1.5367169,0.12925656
-9.502751,-1.5367169,0.12925656
-9.502751,-1.5367169,0.12925656
-9.502751,-1.5367169,0.12925656
-9.502751,-1.5367169,0.12925656
-9.502751,-1.5271424,-0.0718092
-9.502751,-1.5271424,-0.0718092
-9.502751,-1.5271424,-0.0718092
-9.148492999999998,-1.383524,-0.023936402000000002
-9.148492999999998,-1.383524,-0.023936402000000002
-9.148492999999998,-1.383524,-0.023936402000000002
-9.148492999999998,-1.383524,-0.023936402000000002
-9.435728999999998,-1.5367169,0.00478728
-9.435728999999998,-1.5367169,0.00478728
-9.435728999999998,-1.5367169,0.00478728
-9.435728999999998,-1.5367169,0.00478728
-9.435728999999998,-1.5367169,0.00478728
-9.54105,-1.7282081999999999,0.00478728
-9.54105,-1.7282081999999999,0.00478728
-9.54105,-1.7282081999999999,0.00478728
-9.31126,-1.5558661,0.0718092
-9.31126,-1.5558661,0.0718092
-9.31126,-1.5558661,0.0718092
-9.31126,-1.5558661,0.0718092
-9.3878565,-1.4122477,-0.00478728
-9.3878565,-1.4122477,-0.00478728
-9.3878565,-1.4122477,-0.00478728
-9.3878565,-1.4122477,-0.00478728
-9.407005,-1.6994845,-0.13883112
-9.407005,-1.6994845,-0.13883112
-9.407005,-1.6994845,-0.13883112
-9.407005,-1.6994845,-0.13883112
-9.3878565,-1.469695,0.0
-9.3878565,-1.469695,0.0
-9.3878565,-1.469695,0.0
-9.3878565,-1.469695,0.0
-9.3878565,-1.5367169,0.0718092
-9.3878565,-1.5367169,0.0718092
-9.3878565,-1.5367169,0.0718092
-9.339984,-1.6420371999999999,0.10053288
-9.339984,-1.6420371999999999,0.10053288
-9.339984,-1.6420371999999999,0.10053288
-9.339984,-1.6420371999999999,0.10053288
-9.339984,-1.6420371999999999,0.10053288
-9.359133,-1.7377827000000001,0.081383765
-9.359133,-1.7377827000000001,0.081383765
-9.359133,-1.7377827000000001,0.081383765
-9.359133,-1.7377827000000001,0.081383765
-9.378282,-1.6994845,0.12925656
-9.378282,-1.6994845,0.12925656
-9.378282,-1.6994845,0.12925656
-9.378282,-1.6994845,0.12925656
-9.378282,-1.6707608,0.15798025
-9.378282,-1.6707608,0.15798025
-9.378282,-1.6707608,0.15798025
-9.378282,-1.6707608,0.15798025
-9.3878565,-1.6133133999999998,0.09095833
-9.3878565,-1.6133133999999998,0.09095833
-9.3878565,-1.6133133999999998,0.09095833
-9.339984,-1.6037389,0.12925656
-9.339984,-1.6037389,0.12925656
-9.339984,-1.6037389,0.12925656
-9.339984,-1.6037389,0.12925656
-9.2825365,-1.5750152,0.12925656
-9.2825365,-1.5750152,0.12925656
-9.2825365,-1.5750152,0.12925656
-9.2825365,-1.5750152,0.12925656
-9.244238000000001,-1.6228879999999999,0.12925656
-9.244238000000001,-1.6228879999999999,0.12925656
-9.244238000000001,-1.6228879999999999,0.12925656
-9.244238000000001,-1.6228879999999999,0.12925656
-9.359133,-1.776081,0.0718092
-9.359133,-1.776081,0.0718092
-9.359133,-1.776081,0.0718092
-9.359133,-1.776081,0.0718092
-9.378282,-1.7856555,-0.014361841
-9.378282,-1.7856555,-0.014361841
-9.378282,-1.7856555,-0.014361841
-9.378282,-1.7856555,-0.014361841
-9.301685,-1.6803354,-0.09095833
-9.301685,-1.6803354,-0.09095833
-9.301685,-1.6803354,-0.09095833
-9.301685,-1.6803354,-0.09095833
-9.18679,-1.709059,-0.16755481
-9.18679,-1.709059,-0.16755481
-9.18679,-1.709059,-0.16755481
-9.531475,-1.8048046999999998,-0.30159867
-9.531475,-1.8048046999999998,-0.30159867
-9.531475,-1.8048046999999998,-0.30159867
-9.531475,-1.8048046999999998,-0.30159867
-9.531475,-1.8048046999999998,-0.30159867
-9.502751,-1.9292740000000002,-0.3877697
-9.502751,-1.9292740000000002,-0.3877697
-9.502751,-1.9292740000000002,-0.3877697
-8.966576,-2.0250196,-0.3111732
-8.966576,-2.0250196,-0.3111732
-8.966576,-2.0250196,-0.3111732
-8.966576,-2.0250196,-0.3111732
-9.445304,-2.101616,-0.36862057
-9.445304,-2.101616,-0.36862057
-9.445304,-2.101616,-0.36862057
-9.445304,-2.101616,-0.36862057
-9.531475,-2.3026817000000004,-0.32074776
-9.531475,-2.3026817000000004,-0.32074776
-9.531475,-2.3026817000000004,-0.32074776
-9.531475,-2.3026817000000004,-0.32074776
-9.426155,-2.34098,-0.27287498
-9.426155,-2.34098,-0.27287498
-9.426155,-2.34098,-0.27287498
-9.426155,-2.34098,-0.27287498
-9.636795,-2.2643836,0.45479164
-9.636795,-2.2643836,0.45479164
-9.636795,-2.2643836,0.45479164
-9.636795,-2.2643836,0.45479164
-9.703816999999999,-3.0877957,0.59841
-9.703816999999999,-3.0877957,0.59841
-9.703816999999999,-3.0877957,0.59841
-9.703816999999999,-3.0877957,0.59841
-9.837861,-5.538883,-0.59841
-9.837861,-5.538883,-0.59841
-9.837861,-5.538883,-0.59841
-9.215514,-4.0644007,0.19627848
-9.215514,-4.0644007,0.19627848
-9.215514,-4.0644007,0.19627848
-9.215514,-4.0644007,0.19627848
-7.501668,-3.7675896,-0.44521707
-7.501668,-3.7675896,-0.44521707
-7.501668,-3.7675896,-0.44521707
-7.501668,-3.7675896,-0.44521707
-7.501668,-3.2984362000000003,-1.0005416
-7.501668,-3.2984362000000003,-1.0005416
-7.501668,-3.2984362000000003,-1.0005416
-7.501668,-3.2984362000000003,-1.0005416
-9.320834,-2.3314054,-1.2494801000000002
-9.320834,-2.3314054,-1.2494801000000002
-9.320834,-2.3314054,-1.2494801000000002
-9.320834,-2.3314054,-1.2494801000000002
-9.320834,-2.3314054,-1.2494801000000002
-11.886817,-1.0771381000000002,-2.254809
-11.886817,-1.0771381000000002,-2.254809
-11.886817,-1.0771381000000002,-2.254809
-15.094295,-0.42606795,-3.059072
-15.094295,-0.42606795,-3.059072
-15.094295,-0.42606795,-3.059072
-15.094295,-0.42606795,-3.059072
-10.469782,0.359046,-1.6420371999999999
-10.469782,0.359046,-1.6420371999999999
-10.469782,0.359046,-1.6420371999999999
-10.469782,0.359046,-1.6420371999999999
-10.584677000000001,1.0005416,-1.1537346000000002
-10.584677000000001,1.0005416,-1.1537346000000002
-10.584677000000001,1.0005416,-1.1537346000000002
-10.584677000000001,1.0005416,-1.1537346000000002
-9.560199,-0.56968635,-1.0962871
-9.560199,-0.56968635,-1.0962871
-9.560199,-0.56968635,-1.0962871
-9.560199,-0.56968635,-1.0962871
-7.7984796,-1.776081,-0.23457673
-7.7984796,-1.776081,-0.23457673
-7.7984796,-1.776081,-0.23457673
-7.7984796,-1.776081,-0.23457673
-6.1612295999999995,-1.776081,0.47394073
-6.1612295999999995,-1.776081,0.47394073
-6.1612295999999995,-1.776081,0.47394073
-7.0037910000000005,-1.5750152,0.36862057
-7.0037910000000005,-1.5750152,0.36862057
-7.0037910000000005,-1.5750152,0.36862057
-7.0037910000000005,-1.5750152,0.36862057
-8.832532,-2.88673,0.78990126
-8.832532,-2.88673,0.78990126
-8.832532,-2.88673,0.78990126
-8.832532,-2.88673,0.78990126
-11.274045,-2.8101335,0.6750065
-11.274045,-2.8101335,0.6750065
-11.274045,-2.8101335,0.6750065
-11.274045,-2.8101335,0.6750065
-11.274045,-2.8101335,0.6750065
-15.036847,-2.8292825,-0.27287498
-15.036847,-2.8292825,-0.27287498
-15.036847,-2.8292825,-0.27287498
-12.442142,-2.408002,-1.862252
-12.442142,-2.408002,-1.862252
-12.442142,-2.408002,-1.862252
-12.442142,-2.408002,-1.862252
-12.442142,-1.3930986,-2.408002
-12.442142,-1.3930986,-2.408002
-12.442142,-1.3930986,-2.408002
-12.442142,-1.3930986,-2.408002
-11.025106,-1.5750152,-1.2207563999999997
-11.025106,-1.5750152,-1.2207563999999997
-11.025106,-1.5750152,-1.2207563999999997
-11.025106,-1.5750152,-1.2207563999999997
-8.985725,-0.5505372,-1.6803354
-8.985725,-0.5505372,-1.6803354
-8.985725,-0.5505372,-1.6803354
-8.985725,-0.5505372,-1.6803354
-7.1857076,-0.45479164,-2.2643836
-7.1857076,-0.45479164,-2.2643836
-7.1857076,-0.45479164,-2.2643836
-7.1857076,-0.45479164,-2.2643836
-8.5740185,-0.59841,-1.9771467
-8.5740185,-0.59841,-1.9771467
-8.5740185,-0.59841,-1.9771467
-8.5740185,-0.59841,-1.9771467
-9.75169,-1.0867126,-1.3643749
-9.75169,-1.0867126,-1.3643749
-9.75169,-1.0867126,-1.3643749
-11.551707,-1.2016073,-1.2016073
-11.551707,-1.2016073,-1.2016073
-11.551707,-1.2016073,-1.2016073
-11.551707,-1.2016073,-1.2016073
-12.413418,-2.4175766,-0.50266445
-12.413418,-2.4175766,-0.50266445
-12.413418,-2.4175766,-0.50266445
-12.413418,-2.4175766,-0.50266445
-11.417664,-2.8388572,0.25372586
-11.417664,-2.8388572,0.25372586
-11.417664,-2.8388572,0.25372586
-11.417664,-2.8388572,0.25372586
-10.852764,-2.7909843999999997,-0.46436617
-10.852764,-2.7909843999999997,-0.46436617
-10.852764,-2.7909843999999997,-0.46436617
-10.852764,-2.7909843999999997,-0.46436617
-7.855927,-3.3367343000000003,0.33032233
-7.855927,-3.3367343000000003,0.33032233
-7.855927,-3.3367343000000003,0.33032233
-7.855927,-3.3367343000000003,0.33032233
-6.505913700000001,-3.1260939999999997,-0.00478728
-6.505913700000001,-3.1260939999999997,-0.00478728
-6.505913700000001,-3.1260939999999997,-0.00478728
-7.693159,-3.6622693999999996,-0.081383765
-7.693159,-3.6622693999999996,-0.081383765
-7.693159,-3.6622693999999996,-0.081383765
-7.693159,-3.6622693999999996,-0.081383765
-7.693159,-3.6622693999999996,-0.081383765
-8.7750845,-3.5856729,0.12925656
-8.7750845,-3.5856729,0.12925656
-8.7750845,-3.5856729,0.12925656
-11.972988,-4.6293,0.0
-11.972988,-4.6293,0.0
-11.972988,-4.6293,0.0
-11.972988,-4.6293,0.0
-13.016615,-4.476107,0.5792609000000001
-13.016615,-4.476107,0.5792609000000001
-13.016615,-4.476107,0.5792609000000001
-13.016615,-4.476107,0.5792609000000001
-9.933606,-4.476107,-0.56011176
-9.933606,-4.476107,-0.56011176
-9.933606,-4.476107,-0.56011176
-9.933606,-4.476107,-0.56011176
-9.933606,-4.476107,-0.56011176
-12.020861,-3.451629,-1.3930986
-12.020861,-3.451629,-1.3930986
-12.020861,-3.451629,-1.3930986
-11.350641,-1.7473572,-0.59841
-11.350641,-1.7473572,-0.59841
-11.350641,-1.7473572,-0.59841
-11.350641,-1.7473572,-0.59841
-8.851681,-1.0292653,-0.4164934
-8.851681,-1.0292653,-0.4164934
-8.851681,-1.0292653,-0.4164934
-8.851681,-1.0292653,-0.4164934
-8.851681,-1.0292653,-0.4164934
-6.9654926999999995,-0.8856468000000001,-0.9622433000000001
-6.9654926999999995,-0.8856468000000001,-0.9622433000000001
-6.9654926999999995,-0.8856468000000001,-0.9622433000000001
-8.277207,-0.99096704,-1.383524
-8.277207,-0.99096704,-1.383524
-8.277207,-0.99096704,-1.383524
-8.277207,-0.99096704,-1.383524
-8.277207,-0.99096704,-1.383524
-11.044255,-0.8090504,-2.0920415
-11.044255,-0.8090504,-2.0920415
-11.044255,-0.8090504,-2.0920415
-11.130426,-0.7994758000000001,-1.6803354
-11.130426,-0.7994758000000001,-1.6803354
-11.130426,-0.7994758000000001,-1.6803354
-11.130426,-0.7994758000000001,-1.6803354
-11.312344,-1.7569318999999999,-0.99096704
-11.312344,-1.7569318999999999,-0.99096704
-11.312344,-1.7569318999999999,-0.99096704
-11.312344,-1.7569318999999999,-0.99096704
-11.570856,-1.2590546999999999,-0.70373017
-11.570856,-1.2590546999999999,-0.70373017
-11.570856,-1.2590546999999999,-0.70373017
-11.570856,-1.2590546999999999,-0.70373017
-10.584677000000001,-1.4601203999999999,-0.91437054
-10.584677000000001,-1.4601203999999999,-0.91437054
-10.584677000000001,-1.4601203999999999,-0.91437054
-10.584677000000001,-1.4601203999999999,-0.91437054
-8.784659,-2.5803439999999997,-0.56968635
-8.784659,-2.5803439999999997,-0.56968635
-8.784659,-2.5803439999999997,-0.56968635
-8.392102000000001,-3.0877957,-0.12925656
-8.392102000000001,-3.0877957,-0.12925656
-8.392102000000001,-3.0877957,-0.12925656
-8.392102000000001,-3.0877957,-0.12925656
-9.033598,-4.1888704,0.59841
-9.033598,-4.1888704,0.59841
-9.033598,-4.1888704,0.59841
-9.033598,-4.1888704,0.59841
-11.302769,-3.9590807,-0.11968201
-11.302769,-3.9590807,-0.11968201
-11.302769,-3.9590807,-0.11968201
-11.302769,-3.9590807,-0.11968201
-13.179382,-3.9495062999999995,0.13883112
-13.179382,-3.9495062999999995,0.13883112
-13.179382,-3.9495062999999995,0.13883112
-13.179382,-3.9495062999999995,0.13883112
-10.92936,-3.2601378,0.23457673
-10.92936,-3.2601378,0.23457673
-10.92936,-3.2601378,0.23457673
-10.92936,-3.2601378,0.23457673
-9.971905,-2.3314054,-1.0867126
-9.971905,-2.3314054,-1.0867126
-9.971905,-2.3314054,-1.0867126
-11.26447,-1.3260766000000002,-1.6037389
-11.26447,-1.3260766000000002,-1.6037389
-11.26447,-1.3260766000000002,-1.6037389
-11.26447,-1.3260766000000002,-1.6037389
-11.26447,-1.3260766000000002,-1.6037389
-8.899554,-0.9430941999999999,-1.0867126
-8.899554,-0.9430941999999999,-1.0867126
-8.899554,-0.9430941999999999,-1.0867126
-7.377198700000001,-0.78032666,-1.5845897
-7.377198700000001,-0.78032666,-1.5845897
-7.377198700000001,-0.78032666,-1.5845897
-7.377198700000001,-0.78032666,-1.5845897
-8.55487,-0.56968635,-2.5228968
-8.55487,-0.56968635,-2.5228968
-8.55487,-0.56968635,-2.5228968
-8.55487,-0.56968635,-2.5228968
-8.55487,-0.56968635,-2.5228968
-10.603826,-0.28244954,-2.3697037999999995
-10.603826,-0.28244954,-2.3697037999999995
-10.603826,-0.28244954,-2.3697037999999995
-10.603826,-0.28244954,-2.3697037999999995
-13.13151,-0.23457673,-1.9675721999999998
-13.13151,-0.23457673,-1.9675721999999998
-13.13151,-0.23457673,-1.9675721999999998
-13.0549135,-1.14416,-1.383524
-13.0549135,-1.14416,-1.383524
-13.0549135,-1.14416,-1.383524
-13.0549135,-1.14416,-1.383524
-11.72405,-0.13883112,-0.5313880999999999
-11.72405,-0.13883112,-0.5313880999999999
-11.72405,-0.13883112,-0.5313880999999999
-11.72405,-0.13883112,-0.5313880999999999
-10.747444,-0.9430941999999999,-0.78990126
-10.747444,-0.9430941999999999,-0.78990126
-10.747444,-0.9430941999999999,-0.78990126
-10.747444,-0.9430941999999999,-0.78990126
-7.8176284,-2.513322,-0.043085523
-7.8176284,-2.513322,-0.043085523
-7.8176284,-2.513322,-0.043085523
-7.8176284,-2.513322,-0.043085523
-7.1186857,-3.0016246,0.43564250000000004
-7.1186857,-3.0016246,0.43564250000000004
-7.1186857,-3.0016246,0.43564250000000004
-7.1186857,-3.0016246,0.43564250000000004
-7.7793303,-3.4229053999999994,0.7324539000000001
-7.7793303,-3.4229053999999994,0.7324539000000001
-7.7793303,-3.4229053999999994,0.7324539000000001
-7.7793303,-3.4229053999999994,0.7324539000000001
-9.493176,-3.7197167999999996,0.665432
-9.493176,-3.7197167999999996,0.665432
-9.493176,-3.7197167999999996,0.665432
-9.493176,-3.7197167999999996,0.665432
-12.490014,-3.8537605000000004,1.1728836
-12.490014,-3.8537605000000004,1.1728836
-12.490014,-3.8537605000000004,1.1728836
-12.490014,-3.8537605000000004,1.1728836
-13.763431,-3.7675896,-0.12925656
-13.763431,-3.7675896,-0.12925656
-13.763431,-3.7675896,-0.12925656
-13.763431,-3.7675896,-0.12925656
-12.375119,-1.8431028999999999,-1.5367169
-12.375119,-1.8431028999999999,-1.5367169
-12.375119,-1.8431028999999999,-1.5367169
-12.375119,-1.8431028999999999,-1.5367169
-13.437895999999999,-1.3548003,-1.6707608
-13.437895999999999,-1.3548003,-1.6707608
-13.437895999999999,-1.3548003,-1.6707608
-13.437895999999999,-1.3548003,-1.6707608
-10.115523,-1.4984187,-1.3260766000000002
-10.115523,-1.4984187,-1.3260766000000002
-10.115523,-1.4984187,-1.3260766000000002
-10.115523,-1.4984187,-1.3260766000000002
-6.525062999999999,-1.0196906,-1.4122477
-6.525062999999999,-1.0196906,-1.4122477
-6.525062999999999,-1.0196906,-1.4122477
-6.525062999999999,-1.0196906,-1.4122477
-7.463369999999999,-0.98139244,-1.7377827000000001
-7.463369999999999,-0.98139244,-1.7377827000000001
-7.463369999999999,-0.98139244,-1.7377827000000001
-7.463369999999999,-0.98139244,-1.7377827000000001
-10.852764,-0.7994758000000001,-2.1207652
-10.852764,-0.7994758000000001,-2.1207652
-10.852764,-0.7994758000000001,-2.1207652
-10.852764,-0.7994758000000001,-2.1207652
-11.877241999999999,-1.9675721999999998,-1.3356511999999998
-11.877241999999999,-1.9675721999999998,-1.3356511999999998
-11.877241999999999,-1.9675721999999998,-1.3356511999999998
-11.877241999999999,-1.9675721999999998,-1.3356511999999998
-11.522984,-2.1111906000000005,-0.751603
-11.522984,-2.1111906000000005,-0.751603
-11.522984,-2.1111906000000005,-0.751603
-11.522984,-2.1111906000000005,-0.751603
-11.915541000000001,-2.034594,-0.09095833
-11.915541000000001,-2.034594,-0.09095833
-11.915541000000001,-2.034594,-0.09095833
-11.513409,-1.1920328000000002,-1.0101161
-11.513409,-1.1920328000000002,-1.0101161
-11.513409,-1.1920328000000002,-1.0101161
-11.513409,-1.1920328000000002,-1.0101161
-11.513409,-1.1920328000000002,-1.0101161
-10.278291000000001,-2.7239625,-0.6845810999999999
-10.278291000000001,-2.7239625,-0.6845810999999999
-10.278291000000001,-2.7239625,-0.6845810999999999
-8.372953,-3.4037561000000003,0.062234644000000006
-8.372953,-3.4037561000000003,0.062234644000000006
-8.372953,-3.4037561000000003,0.062234644000000006
-8.372953,-3.4037561000000003,0.062234644000000006
-7.1857076,-3.059072,0.34947145
-7.1857076,-3.059072,0.34947145
-7.1857076,-3.059072,0.34947145
-7.1857076,-3.059072,0.34947145
-8.602742,-3.1165195,0.69415563
-8.602742,-3.1165195,0.69415563
-8.602742,-3.1165195,0.69415563
-8.602742,-3.1165195,0.69415563
-10.94851,-2.7048132000000003,1.0484143
-10.94851,-2.7048132000000003,1.0484143
-10.94851,-2.7048132000000003,1.0484143
-10.94851,-2.7048132000000003,1.0484143
-16.17622,-2.6952388,0.11968201
-16.17622,-2.6952388,0.11968201
-16.17622,-2.6952388,0.11968201
-16.17622,-2.6952388,0.11968201
-13.600663,-2.3697037999999995,-1.0771381000000002
-13.600663,-2.3697037999999995,-1.0771381000000002
-13.600663,-2.3697037999999995,-1.0771381000000002
-13.600663,-2.3697037999999995,-1.0771381000000002
-15.199615,-0.85692316,-1.14416
-15.199615,-0.85692316,-1.14416
-15.199615,-0.85692316,-1.14416
-15.199615,-0.85692316,-1.14416
-11.350641,-0.2154276,-0.14840569
-11.350641,-0.2154276,-0.14840569
-11.350641,-0.2154276,-0.14840569
-5.672927,-1.0005416,0.2154276
-5.672927,-1.0005416,0.2154276
-5.672927,-1.0005416,0.2154276
-5.672927,-1.0005416,0.2154276
-5.672927,-1.0005416,0.2154276
-4.696322,-0.91437054,-0.43564250000000004
-4.696322,-0.91437054,-0.43564250000000004
-4.696322,-0.91437054,-0.43564250000000004
-4.696322,-0.91437054,-0.43564250000000004
-5.730374299999999,-1.1537346000000002,-0.43564250000000004
-5.730374299999999,-1.1537346000000002,-0.43564250000000004
-5.730374299999999,-1.1537346000000002,-0.43564250000000004
-5.730374299999999,-1.1537346000000002,-0.43564250000000004
-8.286782,-1.0962871,-0.512239
-8.286782,-1.0962871,-0.512239
-8.286782,-1.0962871,-0.512239
-8.286782,-1.0962871,-0.512239
-12.968742,-1.1633091,-1.5941644
-12.968742,-1.1633091,-1.5941644
-12.968742,-1.1633091,-1.5941644
-12.968742,-1.1633091,-1.5941644
-13.744282,-1.8718264999999998,-2.2069361
-13.744282,-1.8718264999999998,-2.2069361
-13.744282,-1.8718264999999998,-2.2069361
-13.552791000000001,-2.0633178,-0.9430941999999999
-13.552791000000001,-2.0633178,-0.9430941999999999
-13.552791000000001,-2.0633178,-0.9430941999999999
-13.552791000000001,-2.0633178,-0.9430941999999999
-13.141085,-0.91437054,-2.015445
-13.141085,-0.91437054,-2.015445
-13.141085,-0.91437054,-2.015445
-13.141085,-0.91437054,-2.015445
-11.05383,-2.2931072999999995,-2.321831
-11.05383,-2.2931072999999995,-2.321831
-11.05383,-2.2931072999999995,-2.321831
-11.05383,-2.2931072999999995,-2.321831
-7.9420977,-2.88673,-0.7420284
-7.9420977,-2.88673,-0.7420284
-7.9420977,-2.88673,-0.7420284
-7.9420977,-2.88673,-0.7420284
-5.5580324999999995,-1.4122477,-0.023936402000000002
-5.5580324999999995,-1.4122477,-0.023936402000000002
-5.5580324999999995,-1.4122477,-0.023936402000000002
-5.5580324999999995,-1.4122477,-0.023936402000000002
-6.9080452999999995,-1.6133133999999998,-0.6558574
-6.9080452999999995,-1.6133133999999998,-0.6558574
-6.9080452999999995,-1.6133133999999998,-0.6558574
-6.9080452999999995,-1.6133133999999998,-0.6558574
-8.420826,-2.7718353,-1.4409714
-8.420826,-2.7718353,-1.4409714
-8.420826,-2.7718353,-1.4409714
-8.420826,-2.7718353,-1.4409714
-8.210186,-2.9824755,-1.4409714
-8.210186,-2.9824755,-1.4409714
-8.210186,-2.9824755,-1.4409714
-8.210186,-2.9824755,-1.4409714
-10.010203,-4.1122737,-0.5505372
-10.010203,-4.1122737,-0.5505372
-10.010203,-4.1122737,-0.5505372
-10.010203,-4.1122737,-0.5505372
-13.974070999999999,-4.504830999999999,0.42606795
-13.974070999999999,-4.504830999999999,0.42606795
-13.974070999999999,-4.504830999999999,0.42606795
-13.974070999999999,-4.504830999999999,0.42606795
-10.268716,-2.360129,0.8856468000000001
-10.268716,-2.360129,0.8856468000000001
-10.268716,-2.360129,0.8856468000000001
-13.792154,-2.4463003,0.28244954
-13.792154,-2.4463003,0.28244954
-13.792154,-2.4463003,0.28244954
-13.792154,-2.4463003,0.28244954
-11.197449,-1.1058618,1.8718264999999998
-11.197449,-1.1058618,1.8718264999999998
-11.197449,-1.1058618,1.8718264999999998
-11.197449,-1.1058618,1.8718264999999998
-8.842107,-1.0005416,1.4984187
-8.842107,-1.0005416,1.4984187
-8.842107,-1.0005416,1.4984187
-8.842107,-1.0005416,1.4984187
-7.9325233,-1.383524,0.043085523
-7.9325233,-1.383524,0.043085523
-7.9325233,-1.383524,0.043085523
-7.9325233,-1.383524,0.043085523
-8.545295,-1.4026731000000001,-0.19627848
-8.545295,-1.4026731000000001,-0.19627848
-8.545295,-1.4026731000000001,-0.19627848
-8.545295,-1.4026731000000001,-0.19627848
-10.259142,-1.7282081999999999,0.56968635
-10.259142,-1.7282081999999999,0.56968635
-10.259142,-1.7282081999999999,0.56968635
-10.259142,-1.7282081999999999,0.56968635
-10.757019,-0.32074776,-0.8186249
-10.757019,-0.32074776,-0.8186249
-10.757019,-0.32074776,-0.8186249
-11.532558,-1.5367169,-1.5079931999999998
-11.532558,-1.5367169,-1.5079931999999998
-11.532558,-1.5367169,-1.5079931999999998
-11.532558,-1.5367169,-1.5079931999999998
-11.532558,-1.5367169,-1.5079931999999998
-8.861256,-2.6569404999999997,-0.00478728
-8.861256,-2.6569404999999997,-0.00478728
-8.861256,-2.6569404999999997,-0.00478728
-11.561282,-0.8186249,-1.5367169
-11.561282,-0.8186249,-1.5367169
-11.561282,-0.8186249,-1.5367169
-11.561282,-0.8186249,-1.5367169
-10.785743,-1.8335283,-1.2016073
-10.785743,-1.8335283,-1.2016073
-10.785743,-1.8335283,-1.2016073
-10.785743,-1.8335283,-1.2016073
-8.918703,-2.972901,-0.9430941999999999
-8.918703,-2.972901,-0.9430941999999999
-8.918703,-2.972901,-0.9430941999999999
-8.918703,-2.972901,-0.9430941999999999
-9.454879,-2.9154537,-1.3739493999999999
-9.454879,-2.9154537,-1.3739493999999999
-9.454879,-2.9154537,-1.3739493999999999
-9.454879,-2.9154537,-1.3739493999999999
-8.430401,-2.88673,-0.9526688
-8.430401,-2.88673,-0.9526688
-8.430401,-2.88673,-0.9526688
-8.430401,-2.88673,-0.9526688
-8.459125,-2.5803439999999997,-0.37819514
-8.459125,-2.5803439999999997,-0.37819514
-8.459125,-2.5803439999999997,-0.37819514
-8.459125,-2.5803439999999997,-0.37819514
-10.833615,-3.3080106,-0.40691882
-10.833615,-3.3080106,-0.40691882
-10.833615,-3.3080106,-0.40691882
-10.833615,-3.3080106,-0.40691882
-13.8879,-3.5665237999999997,0.023936402000000002
-13.8879,-3.5665237999999997,0.023936402000000002
-13.8879,-3.5665237999999997,0.023936402000000002
-13.8879,-3.5665237999999997,0.023936402000000002
-14.242159,-4.5718527,-0.03351096
-14.242159,-4.5718527,-0.03351096
-14.242159,-4.5718527,-0.03351096
-14.242159,-4.5718527,-0.03351096
-11.570856,-2.9920502,-1.2303311000000001
-11.570856,-2.9920502,-1.2303311000000001
-11.570856,-2.9920502,-1.2303311000000001
-11.570856,-2.9920502,-1.2303311000000001
-13.083637,-2.2356597999999996,-1.7186337
-13.083637,-2.2356597999999996,-1.7186337
-13.083637,-2.2356597999999996,-1.7186337
-13.083637,-2.2356597999999996,-1.7186337
-12.078308,-1.1154363,-0.5218136
-12.078308,-1.1154363,-0.5218136
-12.078308,-1.1154363,-0.5218136
-12.078308,-1.1154363,-0.5218136
-9.024023,-0.8090504,-0.49308985
-9.024023,-0.8090504,-0.49308985
-9.024023,-0.8090504,-0.49308985
-9.024023,-0.8090504,-0.49308985
-7.4537954,-1.14416,-1.3930986
-7.4537954,-1.14416,-1.3930986
-7.4537954,-1.14416,-1.3930986
-7.4537954,-1.14416,-1.3930986
-8.32508,-1.0292653,-1.469695
-8.32508,-1.0292653,-1.469695
-8.32508,-1.0292653,-1.469695
-8.32508,-1.0292653,-1.469695
-10.29744,-1.2782038,-1.7856555
-10.29744,-1.2782038,-1.7856555
-10.29744,-1.2782038,-1.7856555
-10.29744,-1.2782038,-1.7856555
-11.38894,-1.4984187,-2.1111906000000005
-11.38894,-1.4984187,-2.1111906000000005
-11.38894,-1.4984187,-2.1111906000000005
-11.38894,-1.4984187,-2.1111906000000005
-10.0868,-2.2643836,-1.6803354
-10.0868,-2.2643836,-1.6803354
-10.0868,-2.2643836,-1.6803354
-10.0868,-2.2643836,-1.6803354
-12.116607,-2.4654493,-0.76117754
-12.116607,-2.4654493,-0.76117754
-12.116607,-2.4654493,-0.76117754
-12.116607,-2.4654493,-0.76117754
-11.360216000000001,-1.948423,-1.5845897
-11.360216000000001,-1.948423,-1.5845897
-11.360216000000001,-1.948423,-1.5845897
-11.360216000000001,-1.948423,-1.5845897
-9.225089,-2.0441686999999997,-0.64628285
-9.225089,-2.0441686999999997,-0.64628285
-9.225089,-2.0441686999999997,-0.64628285
-9.225089,-2.0441686999999997,-0.64628285
-7.9325233,-2.647366,-0.49308985
-7.9325233,-2.647366,-0.49308985
-7.9325233,-2.647366,-0.49308985
-7.9325233,-2.647366,-0.49308985
-7.6069884000000005,-2.905879,-0.3398969
-7.6069884000000005,-2.905879,-0.3398969
-7.6069884000000005,-2.905879,-0.3398969
-7.6069884000000005,-2.905879,-0.3398969
-7.6069884000000005,-2.905879,-0.3398969
-7.6069884000000005,-2.905879,-0.3398969
-7.6069884000000005,-2.905879,-0.3398969
-12.403843,-4.4952559999999995,-0.34947145
-12.403843,-4.4952559999999995,-0.34947145
-12.403843,-4.4952559999999995,-0.34947145
-12.403843,-4.4952559999999995,-0.34947145
-15.352808,-4.322914,-0.36862057
-15.352808,-4.322914,-0.36862057
-15.352808,-4.322914,-0.36862057
-15.352808,-4.322914,-0.36862057
-11.877241999999999,-3.5856729,-0.32074776
-11.877241999999999,-3.5856729,-0.32074776
-11.877241999999999,-3.5856729,-0.32074776
-11.877241999999999,-3.5856729,-0.32074776
-11.49426,-2.1399142999999996,-1.2686293
-11.49426,-2.1399142999999996,-1.2686293
-11.49426,-2.1399142999999996,-1.2686293
-11.49426,-2.1399142999999996,-1.2686293
-12.710229,-1.2877783999999999,-0.665432
-12.710229,-1.2877783999999999,-0.665432
-12.710229,-1.2877783999999999,-0.665432
-7.970821400000001,-1.6037389,0.16755481
-7.970821400000001,-1.6037389,0.16755481
-7.970821400000001,-1.6037389,0.16755481
-7.970821400000001,-1.6037389,0.16755481
-6.218677,-1.5845897,-0.71330476
-6.218677,-1.5845897,-0.71330476
-6.218677,-1.5845897,-0.71330476
-6.218677,-1.5845897,-0.71330476
-9.454879,-0.7420284,-1.5845897
-9.454879,-0.7420284,-1.5845897
-9.454879,-0.7420284,-1.5845897
-9.454879,-0.7420284,-1.5845897
-9.272962,-0.91437054,-1.1537346000000002
-9.272962,-0.91437054,-1.1537346000000002
-9.272962,-0.91437054,-1.1537346000000002
-9.272962,-0.91437054,-1.1537346000000002
-9.665519,-1.2877783999999999,-1.6516117
-9.665519,-1.2877783999999999,-1.6516117
-9.665519,-1.2877783999999999,-1.6516117
-9.665519,-1.2877783999999999,-1.6516117
-11.321918,-1.5654407,-2.6377914000000002
-11.321918,-1.5654407,-2.6377914000000002
-11.321918,-1.5654407,-2.6377914000000002
-10.603826,-3.2792869,-2.3122563
-10.603826,-3.2792869,-2.3122563
-10.603826,-3.2792869,-2.3122563
-10.603826,-3.2792869,-2.3122563
-11.072979,-2.8197080000000003,-0.59841
-11.072979,-2.8197080000000003,-0.59841
-11.072979,-2.8197080000000003,-0.59841
-11.072979,-2.8197080000000003,-0.59841
-12.643207,-3.1643922000000004,-2.867581
-12.643207,-3.1643922000000004,-2.867581
-12.643207,-3.1643922000000004,-2.867581
-12.643207,-3.1643922000000004,-2.867581
-9.617646,-4.1792955,-0.8856468000000001
-9.617646,-4.1792955,-0.8856468000000001
-9.617646,-4.1792955,-0.8856468000000001
-9.617646,-4.1792955,-0.8856468000000001
-8.037844,-3.5090763999999997,-0.3877697
-8.037844,-3.5090763999999997,-0.3877697
-8.037844,-3.5090763999999997,-0.3877697
-8.037844,-3.5090763999999997,-0.3877697
-11.972988,-6.2665496,-1.0962871
-11.972988,-6.2665496,-1.0962871
-11.972988,-6.2665496,-1.0962871
-11.972988,-6.2665496,-1.0962871
-8.564445,-4.5335545999999995,0.359046
-8.564445,-4.5335545999999995,0.359046
-8.564445,-4.5335545999999995,0.359046
-14.634716000000001,-4.1984449999999995,-1.6133133999999998
-14.634716000000001,-4.1984449999999995,-1.6133133999999998
-14.634716000000001,-4.1984449999999995,-1.6133133999999998
-14.634716000000001,-4.1984449999999995,-1.6133133999999998
-14.634716000000001,-4.1984449999999995,-1.6133133999999998
-11.982562,-4.715471,-0.6750065
-11.982562,-4.715471,-0.6750065
-11.982562,-4.715471,-0.6750065
-9.330409,-2.7909843999999997,-0.76117754
-9.330409,-2.7909843999999997,-0.76117754
-9.330409,-2.7909843999999997,-0.76117754
-9.330409,-2.7909843999999997,-0.76117754
-14.816632,-1.0579889,-3.2409887000000004
-14.816632,-1.0579889,-3.2409887000000004
-14.816632,-1.0579889,-3.2409887000000004
-14.816632,-1.0579889,-3.2409887000000004
-9.5889225,-1.8143792,-0.56011176
-9.5889225,-1.8143792,-0.56011176
-9.5889225,-1.8143792,-0.56011176
-9.5889225,-1.8143792,-0.56011176
-5.979312999999999,-0.7420284,-0.8473485999999999
-5.979312999999999,-0.7420284,-0.8473485999999999
-5.979312999999999,-0.7420284,-0.8473485999999999
-5.979312999999999,-0.7420284,-0.8473485999999999
-8.842107,-0.54096264,-3.4995019999999997
-8.842107,-0.54096264,-3.4995019999999997
-8.842107,-0.54096264,-3.4995019999999997
-8.842107,-0.54096264,-3.4995019999999997
-10.335738000000001,-1.6420371999999999,-1.2399056
-10.335738000000001,-1.6420371999999999,-1.2399056
-10.335738000000001,-1.6420371999999999,-1.2399056
-10.335738000000001,-1.6420371999999999,-1.2399056
-10.94851,-0.05266008,-1.8526775000000002
-10.94851,-0.05266008,-1.8526775000000002
-10.94851,-0.05266008,-1.8526775000000002
-10.94851,-0.05266008,-1.8526775000000002
-10.670848,-2.8292825,-1.6994845
-10.670848,-2.8292825,-1.6994845
-10.670848,-2.8292825,-1.6994845
-10.670848,-2.8292825,-1.6994845
-10.986808,-2.321831,-0.19627848
-10.986808,-2.321831,-0.19627848
-10.986808,-2.321831,-0.19627848
-10.986808,-2.321831,-0.19627848
-13.323001000000001,-0.9430941999999999,-2.3697037999999995
-13.323001000000001,-0.9430941999999999,-2.3697037999999995
-13.323001000000001,-0.9430941999999999,-2.3697037999999995
-9.799562,-4.73462,0.6750065
-9.799562,-4.73462,0.6750065
-9.799562,-4.73462,0.6750065
-9.799562,-4.73462,0.6750065
-9.799562,-4.73462,0.6750065
-8.822957,-2.8771553,0.46436617
-8.822957,-2.8771553,0.46436617
-8.822957,-2.8771553,0.46436617
-8.899554,-3.844186,1.5845897
-8.899554,-3.844186,1.5845897
-8.899554,-3.844186,1.5845897
-8.899554,-3.844186,1.5845897
-8.899554,-3.844186,1.5845897
-10.354887,-3.6814184,1.1154363
-10.354887,-3.6814184,1.1154363
-10.354887,-3.6814184,1.1154363
-10.354887,-3.6814184,1.1154363
-15.582597,-3.844186,0.91437054
-15.582597,-3.844186,0.91437054
-15.582597,-3.844186,0.91437054
-13.428320999999999,-2.5707695,0.47394073
-13.428320999999999,-2.5707695,0.47394073
-13.428320999999999,-2.5707695,0.47394073
-13.428320999999999,-2.5707695,0.47394073
-11.905966000000001,-2.2069361,-1.1058618
-11.905966000000001,-2.2069361,-1.1058618
-11.905966000000001,-2.2069361,-1.1058618
-11.905966000000001,-2.2069361,-1.1058618
-11.953838000000001,-1.1920328000000002,-1.6516117
-11.953838000000001,-1.1920328000000002,-1.6516117
-11.953838000000001,-1.1920328000000002,-1.6516117
-11.953838000000001,-1.1920328000000002,-1.6516117
-9.368708,-0.90479594,-0.8856468000000001
-9.368708,-0.90479594,-0.8856468000000001
-9.368708,-0.90479594,-0.8856468000000001
-9.368708,-0.90479594,-0.8856468000000001
-8.085716,-1.383524,-1.0867126
-8.085716,-1.383524,-1.0867126
-8.085716,-1.383524,-1.0867126
-8.085716,-1.383524,-1.0867126
-8.372953,-0.69415563,-1.6707608
-8.372953,-0.69415563,-1.6707608
-8.372953,-0.69415563,-1.6707608
-8.372953,-0.69415563,-1.6707608
-10.000628,-1.7186337,-1.7856555
-10.000628,-1.7186337,-1.7856555
-10.000628,-1.7186337,-1.7856555
-10.000628,-1.7186337,-1.7856555
-11.360216000000001,-3.1260939999999997,-1.6037389
-11.360216000000001,-3.1260939999999997,-1.6037389
-11.360216000000001,-3.1260939999999997,-1.6037389
-11.360216000000001,-3.1260939999999997,-1.6037389
-11.551707,-3.5090763999999997,-0.9622433000000001
-11.551707,-3.5090763999999997,-0.9622433000000001
-11.551707,-3.5090763999999997,-0.9622433000000001
-11.551707,-3.5090763999999997,-0.9622433000000001
-11.858092999999998,-2.513322,0.5505372
-11.858092999999998,-2.513322,0.5505372
-11.858092999999998,-2.513322,0.5505372
-11.140001,-1.862252,-0.5888355
-11.140001,-1.862252,-0.5888355
-11.140001,-1.862252,-0.5888355
-11.140001,-1.862252,-0.5888355
-7.5782647,-4.4856815,0.6845810999999999
-7.5782647,-4.4856815,0.6845810999999999
-7.5782647,-4.4856815,0.6845810999999999
-7.5782647,-4.4856815,0.6845810999999999
-8.516571,-3.8729098,0.512239
-8.516571,-3.8729098,0.512239
-8.516571,-3.8729098,0.512239
-8.516571,-3.8729098,0.512239
-8.516571,-3.8729098,0.512239
-9.330409,-4.658024,0.665432
-9.330409,-4.658024,0.665432
-9.330409,-4.658024,0.665432
-9.675094,-4.7058964,0.46436617
-9.675094,-4.7058964,0.46436617
-9.675094,-4.7058964,0.46436617
-9.675094,-4.7058964,0.46436617
-9.675094,-4.7058964,0.46436617
-12.049584,-4.543129,-0.34947145
-12.049584,-4.543129,-0.34947145
-12.049584,-4.543129,-0.34947145
-13.533641000000001,-4.6771727,-0.26330042
-13.533641000000001,-4.6771727,-0.26330042
-13.533641000000001,-4.6771727,-0.26330042
-13.533641000000001,-4.6771727,-0.26330042
-12.738953,-2.2931072999999995,-1.1537346000000002
-12.738953,-2.2931072999999995,-1.1537346000000002
-12.738953,-2.2931072999999995,-1.1537346000000002
-12.738953,-2.2931072999999995,-1.1537346000000002
-12.269799,-1.6228879999999999,-1.5175678999999997
-12.269799,-1.6228879999999999,-1.5175678999999997
-12.269799,-1.6228879999999999,-1.5175678999999997
-12.269799,-1.6228879999999999,-1.5175678999999997
-6.783575999999999,-1.9196993000000002,-0.46436617
-6.783575999999999,-1.9196993000000002,-0.46436617
-6.783575999999999,-1.9196993000000002,-0.46436617
-6.783575999999999,-1.9196993000000002,-0.46436617
-4.782493,-1.3165021000000001,-0.7420284
-4.782493,-1.3165021000000001,-0.7420284
-4.782493,-1.3165021000000001,-0.7420284
-4.782493,-1.3165021000000001,-0.7420284
-8.55487,-0.8856468000000001,-1.14416
-8.55487,-0.8856468000000001,-1.14416
-8.55487,-0.8856468000000001,-1.14416
-8.55487,-0.8856468000000001,-1.14416
-13.00704,-1.0101161,-2.8292825
-13.00704,-1.0101161,-2.8292825
-13.00704,-1.0101161,-2.8292825
-13.00704,-1.0101161,-2.8292825
-10.517653999999999,-3.2026904,-1.4218222
-10.517653999999999,-3.2026904,-1.4218222
-10.517653999999999,-3.2026904,-1.4218222
-10.517653999999999,-3.2026904,-1.4218222
-11.331491999999999,-2.494173,-0.6845810999999999
-11.331491999999999,-2.494173,-0.6845810999999999
-11.331491999999999,-2.494173,-0.6845810999999999
-11.331491999999999,-2.494173,-0.6845810999999999
-10.2016945,-1.709059,-0.43564250000000004
-10.2016945,-1.709059,-0.43564250000000004
-10.2016945,-1.709059,-0.43564250000000004
-10.2016945,-1.709059,-0.43564250000000004
-10.058076,-1.8909756999999998,-0.59841
-10.058076,-1.8909756999999998,-0.59841
-10.058076,-1.8909756999999998,-0.59841
-10.058076,-1.8909756999999998,-0.59841
-8.937852000000001,-2.4175766,-0.30159867
-8.937852000000001,-2.4175766,-0.30159867
-8.937852000000001,-2.4175766,-0.30159867
-8.937852000000001,-2.4175766,-0.30159867
-8.918703,-2.3026817000000004,-0.512239
-8.918703,-2.3026817000000004,-0.512239
-8.918703,-2.3026817000000004,-0.512239
-8.918703,-2.3026817000000004,-0.512239
-8.028269,-2.905879,-0.5218136
-8.028269,-2.905879,-0.5218136
-8.028269,-2.905879,-0.5218136
-8.028269,-2.905879,-0.5218136
-8.028269,-2.905879,-0.5218136
-8.832532,-3.231414,-0.8664976999999999
-8.832532,-3.231414,-0.8664976999999999
-8.832532,-3.231414,-0.8664976999999999
-10.125097,-3.9878044000000004,-0.34947145
-10.125097,-3.9878044000000004,-0.34947145
-10.125097,-3.9878044000000004,-0.34947145
-10.125097,-3.9878044000000004,-0.34947145
-11.254896,-5.1176023,0.19627848
-11.254896,-5.1176023,0.19627848
-11.254896,-5.1176023,0.19627848
-11.254896,-5.1176023,0.19627848
-11.254896,-5.1176023,0.19627848
-14.653865,-4.0644007,-1.0292653
-14.653865,-4.0644007,-1.0292653
-14.653865,-4.0644007,-1.0292653
-15.5060005,-0.8760723,-0.45479164
-15.5060005,-0.8760723,-0.45479164
-15.5060005,-0.8760723,-0.45479164
-15.5060005,-0.8760723,-0.45479164
-15.5060005,-0.8760723,-0.45479164
-17.200697,-0.18670394,-1.0484143
-17.200697,-0.18670394,-1.0484143
-17.200697,-0.18670394,-1.0484143
-17.200697,-0.18670394,-1.0484143
-11.484685,-0.7324539000000001,-0.8760723
-11.484685,-0.7324539000000001,-0.8760723
-11.484685,-0.7324539000000001,-0.8760723
-11.484685,-0.7324539000000001,-0.8760723
-9.215514,-1.1824582000000001,-1.2399056
-9.215514,-1.1824582000000001,-1.2399056
-9.215514,-1.1824582000000001,-1.2399056
-9.215514,-1.1824582000000001,-1.2399056
-6.5346375,-0.5792609000000001,-0.5792609000000001
-6.5346375,-0.5792609000000001,-0.5792609000000001
-6.5346375,-0.5792609000000001,-0.5792609000000001
-6.5346375,-0.5792609000000001,-0.5792609000000001
-3.451629,-0.023936402000000002,0.69415563
-3.451629,-0.023936402000000002,0.69415563
-3.451629,-0.023936402000000002,0.69415563
-3.451629,-0.023936402000000002,0.69415563
-2.867581,-1.5941644,0.03351096
-2.867581,-1.5941644,0.03351096
-2.867581,-1.5941644,0.03351096
-2.867581,-1.5941644,0.03351096
-5.2516465,-3.9207826,-0.8760723
-5.2516465,-3.9207826,-0.8760723
-5.2516465,-3.9207826,-0.8760723
-5.2516465,-3.9207826,-0.8760723
-11.59958,-4.782493,-2.4654493
-11.59958,-4.782493,-2.4654493
-11.59958,-4.782493,-2.4654493
-11.59958,-4.782493,-2.4654493
-17.143251,-3.5282254,-3.193116
-17.143251,-3.5282254,-3.193116
-17.143251,-3.5282254,-3.193116
-17.143251,-3.5282254,-3.193116
-17.449635999999998,-3.7867386,-3.1739669999999998
-17.449635999999998,-3.7867386,-3.1739669999999998
-17.449635999999998,-3.7867386,-3.1739669999999998
-17.449635999999998,-3.7867386,-3.1739669999999998
-10.479357,-3.2218397000000003,-1.8048046999999998
-10.479357,-3.2218397000000003,-1.8048046999999998
-10.479357,-3.2218397000000003,-1.8048046999999998
-10.479357,-3.2218397000000003,-1.8048046999999998
-7.7123084,-2.9441773999999996,-3.3558834
-7.7123084,-2.9441773999999996,-3.3558834
-7.7123084,-2.9441773999999996,-3.3558834
-7.7123084,-2.9441773999999996,-3.3558834
-8.018694,-2.7718353,-2.7431116
-8.018694,-2.7718353,-2.7431116
-8.018694,-2.7718353,-2.7431116
-8.018694,-2.7718353,-2.7431116
-7.7793303,-2.8771553,-1.8431028999999999
-7.7793303,-2.8771553,-1.8431028999999999
-7.7793303,-2.8771553,-1.8431028999999999
-7.7793303,-2.8771553,-1.8431028999999999
-6.611234,-3.3367343000000003,-1.9579976000000003
-6.611234,-3.3367343000000003,-1.9579976000000003
-6.611234,-3.3367343000000003,-1.9579976000000003
-6.611234,-3.3367343000000003,-1.9579976000000003
-9.493176,-5.021857,-1.5654407
-9.493176,-5.021857,-1.5654407
-9.493176,-5.021857,-1.5654407
-9.493176,-5.021857,-1.5654407
-13.495343,-5.222923000000001,-0.25372586
-13.495343,-5.222923000000001,-0.25372586
-13.495343,-5.222923000000001,-0.25372586
-13.495343,-5.222923000000001,-0.25372586
-8.736787,-3.8346114,1.1633091
-8.736787,-3.8346114,1.1633091
-8.736787,-3.8346114,1.1633091
-8.736787,-3.8346114,1.1633091
-11.743198,-6.036760299999999,1.6133133999999998
-11.743198,-6.036760299999999,1.6133133999999998
-11.743198,-6.036760299999999,1.6133133999999998
-11.743198,-6.036760299999999,1.6133133999999998
-11.743198,-6.036760299999999,1.6133133999999998
-11.743198,-6.036760299999999,1.6133133999999998
-11.743198,-6.036760299999999,1.6133133999999998
-11.743198,-6.036760299999999,1.6133133999999998
-10.220842999999999,-2.5707695,1.14416
-10.220842999999999,-2.5707695,1.14416
-10.220842999999999,-2.5707695,1.14416
-9.41658,-1.6899098999999997,-0.00478728
-9.41658,-1.6899098999999997,-0.00478728
-9.41658,-1.6899098999999997,-0.00478728
-9.41658,-1.6899098999999997,-0.00478728
-9.41658,-1.6899098999999997,-0.00478728
-8.056992999999999,-2.3026817000000004,-0.15798025
-8.056992999999999,-2.3026817000000004,-0.15798025
-8.056992999999999,-2.3026817000000004,-0.15798025
-8.056992999999999,-2.3026817000000004,-0.15798025
-8.909127999999999,-2.5516202,-0.0718092
-8.909127999999999,-2.5516202,-0.0718092
-8.909127999999999,-2.5516202,-0.0718092
-8.909127999999999,-2.5516202,-0.0718092
-14.021944,-0.7420284,-2.6090677
-14.021944,-0.7420284,-2.6090677
-14.021944,-0.7420284,-2.6090677
-15.486851999999999,-1.0196906,-2.3505547000000004
-15.486851999999999,-1.0196906,-2.3505547000000004
-15.486851999999999,-1.0196906,-2.3505547000000004
-15.486851999999999,-1.0196906,-2.3505547000000004
-8.727212,-1.8048046999999998,-0.32074776
-8.727212,-1.8048046999999998,-0.32074776
-8.727212,-1.8048046999999998,-0.32074776
-8.727212,-1.8048046999999998,-0.32074776
-10.804892,-0.42606795,-1.3165021000000001
-10.804892,-0.42606795,-1.3165021000000001
-10.804892,-0.42606795,-1.3165021000000001
-10.804892,-0.42606795,-1.3165021000000001
-9.464453,-1.7856555,-1.4026731000000001
-9.464453,-1.7856555,-1.4026731000000001
-9.464453,-1.7856555,-1.4026731000000001
-9.464453,-1.7856555,-1.4026731000000001
-7.377198700000001,-2.3505547000000004,-0.49308985
-7.377198700000001,-2.3505547000000004,-0.49308985
-7.377198700000001,-2.3505547000000004,-0.49308985
-7.377198700000001,-2.3505547000000004,-0.49308985
-6.9080452999999995,-3.0494976,-0.26330042
-6.9080452999999995,-3.0494976,-0.26330042
-6.9080452999999995,-3.0494976,-0.26330042
-7.616563,-3.2697124,-0.43564250000000004
-7.616563,-3.2697124,-0.43564250000000004
-7.616563,-3.2697124,-0.43564250000000004
-7.616563,-3.2697124,-0.43564250000000004
-7.616563,-3.2697124,-0.43564250000000004
-9.531475,-3.078221,-0.34947145
-9.531475,-3.078221,-0.34947145
-9.531475,-3.078221,-0.34947145
-12.480439,-3.844186,-0.5792609000000001
-12.480439,-3.844186,-0.5792609000000001
-12.480439,-3.844186,-0.5792609000000001
-12.480439,-3.844186,-0.5792609000000001
-12.56661,-4.1122737,-0.18670394
-12.56661,-4.1122737,-0.18670394
-12.56661,-4.1122737,-0.18670394
-12.56661,-4.1122737,-0.18670394
-11.762347,-2.9537517999999996,-1.2973529
-11.762347,-2.9537517999999996,-1.2973529
-11.762347,-2.9537517999999996,-1.2973529
-11.762347,-2.9537517999999996,-1.2973529
-13.533641000000001,-1.5271424,-1.4601203999999999
-13.533641000000001,-1.5271424,-1.4601203999999999
-13.533641000000001,-1.5271424,-1.4601203999999999
-13.533641000000001,-1.5271424,-1.4601203999999999
-10.326163000000001,-0.751603,0.13883112
-10.326163000000001,-0.751603,0.13883112
-10.326163000000001,-0.751603,0.13883112
-10.326163000000001,-0.751603,0.13883112
-5.653778,-1.4601203999999999,-0.7420284
-5.653778,-1.4601203999999999,-0.7420284
-5.653778,-1.4601203999999999,-0.7420284
-5.653778,-1.4601203999999999,-0.7420284
-6.697405000000001,-1.383524,-1.2782038
-6.697405000000001,-1.383524,-1.2782038
-6.697405000000001,-1.383524,-1.2782038
-10.661273,-1.2686293,-1.3930986
-10.661273,-1.2686293,-1.3930986
-10.661273,-1.2686293,-1.3930986
-10.661273,-1.2686293,-1.3930986
-10.661273,-1.2686293,-1.3930986
-12.834699,-1.4409714,-1.3739493999999999
-12.834699,-1.4409714,-1.3739493999999999
-12.834699,-1.4409714,-1.3739493999999999
-13.370873000000001,-1.4792696,-1.9579976000000003
-13.370873000000001,-1.4792696,-1.9579976000000003
-13.370873000000001,-1.4792696,-1.9579976000000003
-13.370873000000001,-1.4792696,-1.9579976000000003
-10.115523,-2.5420458,0.023936402000000002
-10.115523,-2.5420458,0.023936402000000002
-10.115523,-2.5420458,0.023936402000000002
-10.115523,-2.5420458,0.023936402000000002
-11.063405,-0.93351966,-0.25372586
-11.063405,-0.93351966,-0.25372586
-11.063405,-0.93351966,-0.25372586
-11.063405,-0.93351966,-0.25372586
-10.364462,-1.9196993000000002,-0.751603
-10.364462,-1.9196993000000002,-0.751603
-10.364462,-1.9196993000000002,-0.751603
-10.364462,-1.9196993000000002,-0.751603
-7.855927,-2.7814097,0.22500217
-7.855927,-2.7814097,0.22500217
-7.855927,-2.7814097,0.22500217
-7.855927,-2.7814097,0.22500217
-7.1474094,-3.5856729,0.20585304
-7.1474094,-3.5856729,0.20585304
-7.1474094,-3.5856729,0.20585304
-7.1474094,-3.5856729,0.20585304
-8.4686985,-4.284616000000001,0.39734426
-8.4686985,-4.284616000000001,0.39734426
-8.4686985,-4.284616000000001,0.39734426
-8.4686985,-4.284616000000001,0.39734426
-10.010203,-3.6239712,-0.00478728
-10.010203,-3.6239712,-0.00478728
-10.010203,-3.6239712,-0.00478728
-10.010203,-3.6239712,-0.00478728
-12.221927,-4.1122737,0.0
-12.221927,-4.1122737,0.0
-12.221927,-4.1122737,0.0
-12.221927,-4.1122737,0.0
-13.428320999999999,-4.4186597,-0.7420284
-13.428320999999999,-4.4186597,-0.7420284
-13.428320999999999,-4.4186597,-0.7420284
-13.428320999999999,-4.4186597,-0.7420284
-14.136839000000002,-2.1973617,-2.0250196
-14.136839000000002,-2.1973617,-2.0250196
-14.136839000000002,-2.1973617,-2.0250196
-14.165563,-0.78032666,-1.709059
-14.165563,-0.78032666,-1.709059
-14.165563,-0.78032666,-1.709059
-14.165563,-0.78032666,-1.709059
-14.165563,-0.78032666,-1.709059
-10.335738000000001,-1.2399056,-1.0771381000000002
-10.335738000000001,-1.2399056,-1.0771381000000002
-10.335738000000001,-1.2399056,-1.0771381000000002
-7.4537954,-1.5271424,-1.8239537000000001
-7.4537954,-1.5271424,-1.8239537000000001
-7.4537954,-1.5271424,-1.8239537000000001
-7.4537954,-1.5271424,-1.8239537000000001
-7.4537954,-1.5271424,-1.8239537000000001
-7.9899707,-1.3452256999999999,-2.168638
-7.9899707,-1.3452256999999999,-2.168638
-7.9899707,-1.3452256999999999,-2.168638
-7.9899707,-1.3452256999999999,-2.168638
-10.182545,-1.0771381000000002,-1.7282081999999999
-10.182545,-1.0771381000000002,-1.7282081999999999
-10.182545,-1.0771381000000002,-1.7282081999999999
-10.182545,-1.0771381000000002,-1.7282081999999999
-10.651698,-1.2016073,-1.0962871
-10.651698,-1.2016073,-1.0962871
-10.651698,-1.2016073,-1.0962871
-11.321918,-1.6037389,-0.70373017
-11.321918,-1.6037389,-0.70373017
-11.321918,-1.6037389,-0.70373017
-11.321918,-1.6037389,-0.70373017
-10.996383,-2.034594,-0.42606795
-10.996383,-2.034594,-0.42606795
-10.996383,-2.034594,-0.42606795
-10.996383,-2.034594,-0.42606795
-12.499589,-2.8484317999999997,-0.5888355
-12.499589,-2.8484317999999997,-0.5888355
-12.499589,-2.8484317999999997,-0.5888355
-12.499589,-2.8484317999999997,-0.5888355
-10.374036,-2.0537431,-0.25372586
-10.374036,-2.0537431,-0.25372586
-10.374036,-2.0537431,-0.25372586
-10.374036,-2.0537431,-0.25372586
-8.966576,-2.5803439999999997,-0.23457673
-8.966576,-2.5803439999999997,-0.23457673
-8.966576,-2.5803439999999997,-0.23457673
-8.966576,-2.5803439999999997,-0.23457673
-8.258059,-3.4707782,-0.20585304
-8.258059,-3.4707782,-0.20585304
-8.258059,-3.4707782,-0.20585304
-8.7750845,-4.016528,-0.00478728
-8.7750845,-4.016528,-0.00478728
-8.7750845,-4.016528,-0.00478728
-8.7750845,-4.016528,-0.00478728
-8.7750845,-4.016528,-0.00478728
-11.321918,-4.0931244,-0.56011176
-11.321918,-4.0931244,-0.56011176
-11.321918,-4.0931244,-0.56011176
-13.638962,-4.456958,0.043085523
-13.638962,-4.456958,0.043085523
-13.638962,-4.456958,0.043085523
-13.638962,-4.456958,0.043085523
-11.867668,-4.121848,-0.6271336999999999
-11.867668,-4.121848,-0.6271336999999999
-11.867668,-4.121848,-0.6271336999999999
-11.867668,-4.121848,-0.6271336999999999
-12.911294999999999,-2.4367256,-1.6324625
-12.911294999999999,-2.4367256,-1.6324625
-12.911294999999999,-2.4367256,-1.6324625
-12.911294999999999,-2.4367256,-1.6324625
-12.872996,-1.1728836,-1.4218222
-12.872996,-1.1728836,-1.4218222
-12.872996,-1.1728836,-1.4218222
-12.872996,-1.1728836,-1.4218222
-9.742115,-1.2686293,-0.6558574
-9.742115,-1.2686293,-0.6558574
-9.742115,-1.2686293,-0.6558574
-9.742115,-1.2686293,-0.6558574
-7.9899707,-1.2111819,-1.5750152
-7.9899707,-1.2111819,-1.5750152
-7.9899707,-1.2111819,-1.5750152
-7.9899707,-1.2111819,-1.5750152
-8.32508,-0.85692316,-1.8814011999999998
-8.32508,-0.85692316,-1.8814011999999998
-8.32508,-0.85692316,-1.8814011999999998
-10.967659,-0.76117754,-1.6707608
-10.967659,-0.76117754,-1.6707608
-10.967659,-0.76117754,-1.6707608
-10.967659,-0.76117754,-1.6707608
-10.967659,-0.76117754,-1.6707608
-10.82404,-1.7186337,-1.0484143
-10.82404,-1.7186337,-1.0484143
-10.82404,-1.7186337,-1.0484143
-10.82404,-1.7186337,-1.0484143
-11.168725,-2.3888528,-0.7420284
-11.168725,-2.3888528,-0.7420284
-11.168725,-2.3888528,-0.7420284
-11.197449,-2.5994933,-0.19627848
-11.197449,-2.5994933,-0.19627848
-11.197449,-2.5994933,-0.19627848
-11.197449,-2.5994933,-0.19627848
-11.829369999999999,-2.0824668,-0.9718179
-11.829369999999999,-2.0824668,-0.9718179
-11.829369999999999,-2.0824668,-0.9718179
-11.829369999999999,-2.0824668,-0.9718179
-9.75169,-3.2026904,-0.22500217
-9.75169,-3.2026904,-0.22500217
-9.75169,-3.2026904,-0.22500217
-9.75169,-3.2026904,-0.22500217
-7.721883,-3.4324798999999997,-0.014361841
-7.721883,-3.4324798999999997,-0.014361841
-7.721883,-3.4324798999999997,-0.014361841
-7.721883,-3.4324798999999997,-0.014361841
-7.5399666,-3.451629,0.15798025
-7.5399666,-3.451629,0.15798025
-7.5399666,-3.451629,0.15798025
-7.5399666,-3.451629,0.15798025
-8.353804,-3.4899273,0.9622433000000001
-8.353804,-3.4899273,0.9622433000000001
-8.353804,-3.4899273,0.9622433000000001
-8.353804,-3.4899273,0.9622433000000001
-10.910212,-2.6856642,0.062234644000000006
-10.910212,-2.6856642,0.062234644000000006
-10.910212,-2.6856642,0.062234644000000006
-10.910212,-2.6856642,0.062234644000000006
-14.290030999999999,-3.844186,-0.49308985
-14.290030999999999,-3.844186,-0.49308985
-14.290030999999999,-3.844186,-0.49308985
-14.290030999999999,-3.844186,-0.49308985
-11.791071,-4.6771727,0.043085523
-11.791071,-4.6771727,0.043085523
-11.791071,-4.6771727,0.043085523
-11.791071,-4.6771727,0.043085523
-12.126180999999999,-2.5324712000000003,-1.1728836
-12.126180999999999,-2.5324712000000003,-1.1728836
-12.126180999999999,-2.5324712000000003,-1.1728836
-12.126180999999999,-2.5324712000000003,-1.1728836
-12.968742,-1.0962871,-1.7377827000000001
-12.968742,-1.0962871,-1.7377827000000001
-12.968742,-1.0962871,-1.7377827000000001
-12.968742,-1.0962871,-1.7377827000000001
-9.847435,-1.4122477,-0.9622433000000001
-9.847435,-1.4122477,-0.9622433000000001
-9.847435,-1.4122477,-0.9622433000000001
-9.847435,-1.4122477,-0.9622433000000001
-6.486765,-1.4218222,-0.6845810999999999
-6.486765,-1.4218222,-0.6845810999999999
-6.486765,-1.4218222,-0.6845810999999999
-6.486765,-1.4218222,-0.6845810999999999
-6.7931504,-0.99096704,-1.4505458999999998
-6.7931504,-0.99096704,-1.4505458999999998
-6.7931504,-0.99096704,-1.4505458999999998
-6.7931504,-0.99096704,-1.4505458999999998
-10.125097,-1.3165021000000001,-1.5750152
-10.125097,-1.3165021000000001,-1.5750152
-10.125097,-1.3165021000000001,-1.5750152
-13.160233499999999,-1.3452256999999999,-1.469695
-13.160233499999999,-1.3452256999999999,-1.469695
-13.160233499999999,-1.3452256999999999,-1.469695
-13.160233499999999,-1.3452256999999999,-1.469695
-12.020861,-1.9771467,-1.4505458999999998
-12.020861,-1.9771467,-1.4505458999999998
-12.020861,-1.9771467,-1.4505458999999998
-12.020861,-1.9771467,-1.4505458999999998
-10.71872,-3.1356685,-0.11968201
-10.71872,-3.1356685,-0.11968201
-10.71872,-3.1356685,-0.11968201
-10.71872,-3.1356685,-0.11968201
-12.001712,-1.4505458999999998,-0.99096704
-12.001712,-1.4505458999999998,-0.99096704
-12.001712,-1.4505458999999998,-0.99096704
-12.001712,-1.4505458999999998,-0.99096704
-10.881488000000001,-2.1303396,-1.1058618
-10.881488000000001,-2.1303396,-1.1058618
-10.881488000000001,-2.1303396,-1.1058618
-10.881488000000001,-2.1303396,-1.1058618
-8.1623125,-3.3750327000000007,-0.46436617
-8.1623125,-3.3750327000000007,-0.46436617
-8.1623125,-3.3750327000000007,-0.46436617
-8.1623125,-3.3750327000000007,-0.46436617
-6.697405000000001,-3.5569491,-0.30159867
-6.697405000000001,-3.5569491,-0.30159867
-6.697405000000001,-3.5569491,-0.30159867
-6.9176197,-3.6239712,0.2920241
-6.9176197,-3.6239712,0.2920241
-6.9176197,-3.6239712,0.2920241
-6.9176197,-3.6239712,0.2920241
-6.9176197,-3.6239712,0.2920241
-8.152739,-3.777164,0.59841
-8.152739,-3.777164,0.59841
-8.152739,-3.777164,0.59841
-13.351725,-3.5569491,-0.30159867
-13.351725,-3.5569491,-0.30159867
-13.351725,-3.5569491,-0.30159867
-13.351725,-3.5569491,-0.30159867
-16.406010000000002,-3.6622693999999996,0.0718092
-16.406010000000002,-3.6622693999999996,0.0718092
-16.406010000000002,-3.6622693999999996,0.0718092
-16.406010000000002,-3.6622693999999996,0.0718092
-13.265553,-2.9920502,-1.1058618
-13.265553,-2.9920502,-1.1058618
-13.265553,-2.9920502,-1.1058618
-13.265553,-2.9920502,-1.1058618
-14.625141000000001,-1.3069274,-1.9675721999999998
-14.625141000000001,-1.3069274,-1.9675721999999998
-14.625141000000001,-1.3069274,-1.9675721999999998
-14.625141000000001,-1.3069274,-1.9675721999999998
-11.283619999999999,-0.8760723,-0.36862057
-11.283619999999999,-0.8760723,-0.36862057
-11.283619999999999,-0.8760723,-0.36862057
-11.283619999999999,-0.8760723,-0.36862057
-6.486765,-1.2016073,0.18670394
-6.486765,-1.2016073,0.18670394
-6.486765,-1.2016073,0.18670394
-6.486765,-1.2016073,0.18670394
-4.3324885,-1.0101161,-0.6558574
-4.3324885,-1.0101161,-0.6558574
-4.3324885,-1.0101161,-0.6558574
-5.1367517,-1.1250108,-1.2016073
-5.1367517,-1.1250108,-1.2016073
-5.1367517,-1.1250108,-1.2016073
-5.1367517,-1.1250108,-1.2016073
-5.1367517,-1.1250108,-1.2016073
-8.066567,-1.3452256999999999,-0.69415563
-8.066567,-1.3452256999999999,-0.69415563
-8.066567,-1.3452256999999999,-0.69415563
-8.066567,-1.3452256999999999,-0.69415563
-12.154904,-2.0633178,-0.8760723
-12.154904,-2.0633178,-0.8760723
-12.154904,-2.0633178,-0.8760723
-13.849601999999999,-1.9388485,-2.3122563
-13.849601999999999,-1.9388485,-2.3122563
-13.849601999999999,-1.9388485,-2.3122563
-13.849601999999999,-1.9388485,-2.3122563
-14.385777,-3.5856729,-1.0388398
-14.385777,-3.5856729,-1.0388398
-14.385777,-3.5856729,-1.0388398
-14.385777,-3.5856729,-1.0388398
-13.514492,-1.8814011999999998,-0.9622433000000001
-13.514492,-1.8814011999999998,-0.9622433000000001
-13.514492,-1.8814011999999998,-0.9622433000000001
-13.514492,-1.8814011999999998,-0.9622433000000001
-10.575102000000001,-1.709059,-0.6750065
-10.575102000000001,-1.709059,-0.6750065
-10.575102000000001,-1.709059,-0.6750065
-10.575102000000001,-1.709059,-0.6750065
-7.8272033,-2.6377914000000002,-0.26330042
-7.8272033,-2.6377914000000002,-0.26330042
-7.8272033,-2.6377914000000002,-0.26330042
-7.8272033,-2.6377914000000002,-0.26330042
-5.9027166,-2.6569404999999997,-0.7228793
-5.9027166,-2.6569404999999997,-0.7228793
-5.9027166,-2.6569404999999997,-0.7228793
-5.9027166,-2.6569404999999997,-0.7228793
-6.7740016,-2.5516202,-1.1154363
-6.7740016,-2.5516202,-1.1154363
-6.7740016,-2.5516202,-1.1154363
-6.7740016,-2.5516202,-1.1154363
-7.875075999999999,-2.4463003,-1.7569318999999999
-7.875075999999999,-2.4463003,-1.7569318999999999
-7.875075999999999,-2.4463003,-1.7569318999999999
-7.875075999999999,-2.4463003,-1.7569318999999999
-7.1474094,-3.2888615,-1.8143792
-7.1474094,-3.2888615,-1.8143792
-7.1474094,-3.2888615,-1.8143792
-7.1474094,-3.2888615,-1.8143792
-8.11444,-3.6431203,-0.665432
-8.11444,-3.6431203,-0.665432
-8.11444,-3.6431203,-0.665432
-12.0400095,-4.8590894,-0.30159867
-12.0400095,-4.8590894,-0.30159867
-12.0400095,-4.8590894,-0.30159867
-12.0400095,-4.8590894,-0.30159867
-12.0400095,-4.8590894,-0.30159867
-12.978316,-4.7920675,0.7228793
-12.978316,-4.7920675,0.7228793
-12.978316,-4.7920675,0.7228793
-12.978316,-4.7920675,0.7228793
-10.584677000000001,-4.993133,1.4601203999999999
-10.584677000000001,-4.993133,1.4601203999999999
-10.584677000000001,-4.993133,1.4601203999999999
-10.584677000000001,-4.993133,1.4601203999999999
-13.093211,-3.9112080000000002,1.0292653
-13.093211,-3.9112080000000002,1.0292653
-13.093211,-3.9112080000000002,1.0292653
-13.093211,-3.9112080000000002,1.0292653
-10.06765,-2.666515,1.1345854
-10.06765,-2.666515,1.1345854
-10.06765,-2.666515,1.1345854
-9.828286,0.03351096,0.42606795
-9.828286,0.03351096,0.42606795
-9.828286,0.03351096,0.42606795
-9.828286,0.03351096,0.42606795
-7.664436,-1.4313968000000001,-0.00478728
-7.664436,-1.4313968000000001,-0.00478728
-7.664436,-1.4313968000000001,-0.00478728
-7.664436,-1.4313968000000001,-0.00478728
-7.664436,-1.4313968000000001,-0.00478728
-5.988887999999999,-1.4026731000000001,0.062234644000000006
-5.988887999999999,-1.4026731000000001,0.062234644000000006
-5.988887999999999,-1.4026731000000001,0.062234644000000006
-5.988887999999999,-1.4026731000000001,0.062234644000000006
-6.592085000000001,-1.0484143,-0.78032666
-6.592085000000001,-1.0484143,-0.78032666
-6.592085000000001,-1.0484143,-0.78032666
-8.602742,-2.7431116,-0.78032666
-8.602742,-2.7431116,-0.78032666
-8.602742,-2.7431116,-0.78032666
-8.602742,-2.7431116,-0.78032666
-13.188957,-2.561195,-1.5367169
-13.188957,-2.561195,-1.5367169
-13.188957,-2.561195,-1.5367169
-13.188957,-2.561195,-1.5367169
-14.692163,-2.0920415,-1.4218222
-14.692163,-2.0920415,-1.4218222
-14.692163,-2.0920415,-1.4218222
-14.692163,-2.0920415,-1.4218222
-12.221927,-0.5792609000000001,-0.25372586
-12.221927,-0.5792609000000001,-0.25372586
-12.221927,-0.5792609000000001,-0.25372586
-12.221927,-0.5792609000000001,-0.25372586
-9.292110000000001,-0.30159867,-0.92394507
-9.292110000000001,-0.30159867,-0.92394507
-9.292110000000001,-0.30159867,-0.92394507
-9.292110000000001,-0.30159867,-0.92394507
-8.258059,-3.4899273,-3.1739669999999998
-8.258059,-3.4899273,-3.1739669999999998
-8.258059,-3.4899273,-3.1739669999999998
-8.258059,-3.4899273,-3.1739669999999998
-6.7740016,-3.7005677,-1.6037389
-6.7740016,-3.7005677,-1.6037389
-6.7740016,-3.7005677,-1.6037389
-6.7740016,-3.7005677,-1.6037389
-7.386773599999999,-2.561195,-0.56011176
-7.386773599999999,-2.561195,-0.56011176
-7.386773599999999,-2.561195,-0.56011176
-7.386773599999999,-2.561195,-0.56011176
-9.8953085,-2.666515,-1.0101161
-9.8953085,-2.666515,-1.0101161
-9.8953085,-2.666515,-1.0101161
-9.8953085,-2.666515,-1.0101161
-12.729378,-3.0973704,-1.4313968000000001
-12.729378,-3.0973704,-1.4313968000000001
-12.729378,-3.0973704,-1.4313968000000001
-12.729378,-3.0973704,-1.4313968000000001
-15.448553,-4.456958,0.56968635
-15.448553,-4.456958,0.56968635
-15.448553,-4.456958,0.56968635
-15.448553,-4.456958,0.56968635
-10.182545,-3.2601378,0.023936402000000002
-10.182545,-3.2601378,0.023936402000000002
-10.182545,-3.2601378,0.023936402000000002
-10.182545,-3.2601378,0.023936402000000002
-9.943181,-3.384607,-0.34947145
-9.943181,-3.384607,-0.34947145
-9.943181,-3.384607,-0.34947145
-9.943181,-3.384607,-0.34947145
-12.288948,-2.2931072999999995,-0.45479164
-12.288948,-2.2931072999999995,-0.45479164
-12.288948,-2.2931072999999995,-0.45479164
-12.288948,-2.2931072999999995,-0.45479164
-12.3463955,0.00478728,0.00478728
-12.3463955,0.00478728,0.00478728
-12.3463955,0.00478728,0.00478728
-12.3463955,0.00478728,0.00478728
-8.00912,-1.2303311000000001,-0.7994758000000001
-8.00912,-1.2303311000000001,-0.7994758000000001
-8.00912,-1.2303311000000001,-0.7994758000000001
-8.00912,-1.2303311000000001,-0.7994758000000001
-6.706979799999999,-2.4654493,-1.1728836
-6.706979799999999,-2.4654493,-1.1728836
-6.706979799999999,-2.4654493,-1.1728836
-6.706979799999999,-2.4654493,-1.1728836
-7.252729400000001,-1.4409714,-1.1824582000000001
-7.252729400000001,-1.4409714,-1.1824582000000001
-7.252729400000001,-1.4409714,-1.1824582000000001
-9.225089,-1.5750152,-1.6037389
-9.225089,-1.5750152,-1.6037389
-9.225089,-1.5750152,-1.6037389
-9.225089,-1.5750152,-1.6037389
-11.72405,-1.9771467,-2.9441773999999996
-11.72405,-1.9771467,-2.9441773999999996
-11.72405,-1.9771467,-2.9441773999999996
-11.72405,-1.9771467,-2.9441773999999996
-11.72405,-1.9771467,-2.9441773999999996
-11.283619999999999,-3.0207740000000003,-1.9962958
-11.283619999999999,-3.0207740000000003,-1.9962958
-11.283619999999999,-3.0207740000000003,-1.9962958
-11.283619999999999,-3.0207740000000003,-1.9962958
-11.293194,-2.4845984,-0.5313880999999999
-11.293194,-2.4845984,-0.5313880999999999
-11.293194,-2.4845984,-0.5313880999999999
-12.231501,-1.3548003,-1.5750152
-12.231501,-1.3548003,-1.5750152
-12.231501,-1.3548003,-1.5750152
-12.231501,-1.3548003,-1.5750152
-10.766592999999999,-3.3750327000000007,-0.7420284
-10.766592999999999,-3.3750327000000007,-0.7420284
-10.766592999999999,-3.3750327000000007,-0.7420284
-10.766592999999999,-3.3750327000000007,-0.7420284
-8.353804,-3.1356685,-0.043085523
-8.353804,-3.1356685,-0.043085523
-8.353804,-3.1356685,-0.043085523
-8.353804,-3.1356685,-0.043085523
-7.664436,-3.1548176,-0.10053288
-7.664436,-3.1548176,-0.10053288
-7.664436,-3.1548176,-0.10053288
-7.664436,-3.1548176,-0.10053288
-8.1623125,-3.8346114,0.0718092
-8.1623125,-3.8346114,0.0718092
-8.1623125,-3.8346114,0.0718092
-8.1623125,-3.8346114,0.0718092
-10.383611,-4.868664,-0.5218136
-10.383611,-4.868664,-0.5218136
-10.383611,-4.868664,-0.5218136
-10.383611,-4.868664,-0.5218136
-14.53897,-5.0505805,-0.49308985
-14.53897,-5.0505805,-0.49308985
-14.53897,-5.0505805,-0.49308985
-14.53897,-5.0505805,-0.49308985
-13.303852,-3.5856729,-0.9622433000000001
-13.303852,-3.5856729,-0.9622433000000001
-13.303852,-3.5856729,-0.9622433000000001
-13.533641000000001,-2.494173,-2.034594
-13.533641000000001,-2.494173,-2.034594
-13.533641000000001,-2.494173,-2.034594
-13.533641000000001,-2.494173,-2.034594
-14.548545,-1.3356511999999998,-1.9579976000000003
-14.548545,-1.3356511999999998,-1.9579976000000003
-14.548545,-1.3356511999999998,-1.9579976000000003
-14.548545,-1.3356511999999998,-1.9579976000000003
-11.1208515,-1.1058618,-0.9526688
-11.1208515,-1.1058618,-0.9526688
-11.1208515,-1.1058618,-0.9526688
-11.1208515,-1.1058618,-0.9526688
-8.401677000000001,-1.2782038,-1.5654407
-8.401677000000001,-1.2782038,-1.5654407
-8.401677000000001,-1.2782038,-1.5654407
-8.401677000000001,-1.2782038,-1.5654407
-7.3389006,-0.5888355,-1.948423
-7.3389006,-0.5888355,-1.948423
-7.3389006,-0.5888355,-1.948423
-7.3389006,-0.5888355,-1.948423
-7.348475,-0.15798025,-1.5367169
-7.348475,-0.15798025,-1.5367169
-7.348475,-0.15798025,-1.5367169
-7.348475,-0.15798025,-1.5367169
-9.301685,-1.7282081999999999,-1.4026731000000001
-9.301685,-1.7282081999999999,-1.4026731000000001
-9.301685,-1.7282081999999999,-1.4026731000000001
-9.301685,-1.7282081999999999,-1.4026731000000001
-11.484685,-1.5367169,-1.3548003
-11.484685,-1.5367169,-1.3548003
-11.484685,-1.5367169,-1.3548003
-11.484685,-1.5367169,-1.3548003
-11.800646,-3.2601378,-0.062234644000000006
-11.800646,-3.2601378,-0.062234644000000006
-11.800646,-3.2601378,-0.062234644000000006
-11.800646,-3.2601378,-0.062234644000000006
-12.470865,-1.709059,-1.0292653
-12.470865,-1.709059,-1.0292653
-12.470865,-1.709059,-1.0292653
-13.275128,-1.8048046999999998,-1.9196993000000002
-13.275128,-1.8048046999999998,-1.9196993000000002
-13.275128,-1.8048046999999998,-1.9196993000000002
-13.275128,-1.8048046999999998,-1.9196993000000002
-13.275128,-1.8048046999999998,-1.9196993000000002
-10.441058,-3.7388659,-0.59841
-10.441058,-3.7388659,-0.59841
-10.441058,-3.7388659,-0.59841
-10.441058,-3.7388659,-0.59841
-7.846352,-3.4133307999999998,-0.10053288
-7.846352,-3.4133307999999998,-0.10053288
-7.846352,-3.4133307999999998,-0.10053288
-7.846352,-3.4133307999999998,-0.10053288
-7.731457700000001,-3.1739669999999998,-0.081383765
-7.731457700000001,-3.1739669999999998,-0.081383765
-7.731457700000001,-3.1739669999999998,-0.081383765
-7.731457700000001,-3.1739669999999998,-0.081383765
-8.34423,-3.6526947,0.23457673
-8.34423,-3.6526947,0.23457673
-8.34423,-3.6526947,0.23457673
-8.34423,-3.6526947,0.23457673
-11.207023,-3.9495062999999995,0.11968201
-11.207023,-3.9495062999999995,0.11968201
-11.207023,-3.9495062999999995,0.11968201
-14.682589000000002,-4.409085299999999,0.110107444
-14.682589000000002,-4.409085299999999,0.110107444
-14.682589000000002,-4.409085299999999,0.110107444
-14.682589000000002,-4.409085299999999,0.110107444
-12.2410755,-3.6431203,-0.85692316
-12.2410755,-3.6431203,-0.85692316
-12.2410755,-3.6431203,-0.85692316
-12.2410755,-3.6431203,-0.85692316
-13.083637,-2.5037475,-2.2165107999999996
-13.083637,-2.5037475,-2.2165107999999996
-13.083637,-2.5037475,-2.2165107999999996
-13.083637,-2.5037475,-2.2165107999999996
-13.524067,-1.5941644,-1.9962958
-13.524067,-1.5941644,-1.9962958
-13.524067,-1.5941644,-1.9962958
-13.524067,-1.5941644,-1.9962958
-10.565528,-1.3643749,-1.3356511999999998
-10.565528,-1.3643749,-1.3356511999999998
-10.565528,-1.3643749,-1.3356511999999998
-10.565528,-1.3643749,-1.3356511999999998
-8.334655,-1.3643749,-2.0058703
-8.334655,-1.3643749,-2.0058703
-8.334655,-1.3643749,-2.0058703
-6.9654926999999995,-1.0675635,-2.5420458
-6.9654926999999995,-1.0675635,-2.5420458
-6.9654926999999995,-1.0675635,-2.5420458
-6.9654926999999995,-1.0675635,-2.5420458
-7.587839,-0.56011176,-2.4750240000000003
-7.587839,-0.56011176,-2.4750240000000003
-7.587839,-0.56011176,-2.4750240000000003
-7.587839,-0.56011176,-2.4750240000000003
-7.587839,-0.56011176,-2.4750240000000003
-9.129342999999999,-1.5271424,-1.2686293
-9.129342999999999,-1.5271424,-1.2686293
-9.129342999999999,-1.5271424,-1.2686293
-9.129342999999999,-1.5271424,-1.2686293
-10.82404,-1.9771467,-1.2590546999999999
-10.82404,-1.9771467,-1.2590546999999999
-10.82404,-1.9771467,-1.2590546999999999
-12.5474615,-2.3697037999999995,-0.8856468000000001
-12.5474615,-2.3697037999999995,-0.8856468000000001
-12.5474615,-2.3697037999999995,-0.8856468000000001
-12.5474615,-2.3697037999999995,-0.8856468000000001
-13.370873000000001,-1.6803354,-1.4792696
-13.370873000000001,-1.6803354,-1.4792696
-13.370873000000001,-1.6803354,-1.4792696
-13.370873000000001,-1.6803354,-1.4792696
-13.619812,-2.1303396,-1.5558661
-13.619812,-2.1303396,-1.5558661
-13.619812,-2.1303396,-1.5558661
-13.619812,-2.1303396,-1.5558661
-9.770839,-3.5282254,0.11968201
-9.770839,-3.5282254,0.11968201
-9.770839,-3.5282254,0.11968201
-9.770839,-3.5282254,0.11968201
-8.171887,-2.867581,-0.3398969
-8.171887,-2.867581,-0.3398969
-8.171887,-2.867581,-0.3398969
-8.171887,-2.867581,-0.3398969
-7.6740103,-2.88673,-0.39734426
-7.6740103,-2.88673,-0.39734426
-7.6740103,-2.88673,-0.39734426
-8.382527,-3.1739669999999998,0.062234644000000006
-8.382527,-3.1739669999999998,0.062234644000000006
-8.382527,-3.1739669999999998,0.062234644000000006
-8.382527,-3.1739669999999998,0.062234644000000006
-8.382527,-3.1739669999999998,0.062234644000000006
-10.871913000000001,-3.8346114,-0.3398969
-10.871913000000001,-3.8346114,-0.3398969
-10.871913000000001,-3.8346114,-0.3398969
-14.088965,-4.8782387,-0.10053288
-14.088965,-4.8782387,-0.10053288
-14.088965,-4.8782387,-0.10053288
-14.088965,-4.8782387,-0.10053288
-12.020861,-3.4037561000000003,-1.4505458999999998
-12.020861,-3.4037561000000003,-1.4505458999999998
-12.020861,-3.4037561000000003,-1.4505458999999998
-12.020861,-3.4037561000000003,-1.4505458999999998
-12.020861,-3.4037561000000003,-1.4505458999999998
-13.571939000000002,-2.101616,-2.015445
-13.571939000000002,-2.101616,-2.015445
-13.571939000000002,-2.101616,-2.015445
-13.571939000000002,-2.101616,-2.015445
-13.859176999999999,-1.1824582000000001,-1.6994845
-13.859176999999999,-1.1824582000000001,-1.6994845
-13.859176999999999,-1.1824582000000001,-1.6994845
-10.163396,-1.2590546999999999,-1.3548003
-10.163396,-1.2590546999999999,-1.3548003
-10.163396,-1.2590546999999999,-1.3548003
-10.163396,-1.2590546999999999,-1.3548003
-10.163396,-1.2590546999999999,-1.3548003
-7.4729443,-1.3069274,-1.8143792
-7.4729443,-1.3069274,-1.8143792
-7.4729443,-1.3069274,-1.8143792
-7.4729443,-1.3069274,-1.8143792
-6.7931504,-0.70373017,-1.9579976000000003
-6.7931504,-0.70373017,-1.9579976000000003
-6.7931504,-0.70373017,-1.9579976000000003
-8.152739,-0.99096704,-1.6516117
-8.152739,-0.99096704,-1.6516117
-8.152739,-0.99096704,-1.6516117
-8.152739,-0.99096704,-1.6516117
-8.152739,-0.99096704,-1.6516117
-11.130426,-2.1590632999999997,-1.6994845
-11.130426,-2.1590632999999997,-1.6994845
-11.130426,-2.1590632999999997,-1.6994845
-11.130426,-2.1590632999999997,-1.6994845
-12.183628,-1.7282081999999999,-1.8909756999999998
-12.183628,-1.7282081999999999,-1.8909756999999998
-12.183628,-1.7282081999999999,-1.8909756999999998
-11.484685,-3.3654580000000003,-0.3111732
-11.484685,-3.3654580000000003,-0.3111732
-11.484685,-3.3654580000000003,-0.3111732
-11.484685,-3.3654580000000003,-0.3111732
-11.484685,-3.3654580000000003,-0.3111732
-13.188957,-1.2782038,-0.9430941999999999
-13.188957,-1.2782038,-0.9430941999999999
-13.188957,-1.2782038,-0.9430941999999999
-13.188957,-1.2782038,-0.9430941999999999
-11.513409,-1.4505458999999998,-1.3165021000000001
-11.513409,-1.4505458999999998,-1.3165021000000001
-11.513409,-1.4505458999999998,-1.3165021000000001
-11.513409,-1.4505458999999998,-1.3165021000000001
-8.880403999999999,-3.7005677,0.09095833
-8.880403999999999,-3.7005677,0.09095833
-8.880403999999999,-3.7005677,0.09095833
-8.880403999999999,-3.7005677,0.09095833
-7.396348,-4.1888704,0.2441513
-7.396348,-4.1888704,0.2441513
-7.396348,-4.1888704,0.2441513
-7.396348,-4.1888704,0.2441513
-8.00912,-4.8782387,-0.8952214
-8.00912,-4.8782387,-0.8952214
-8.00912,-4.8782387,-0.8952214
-8.00912,-4.8782387,-0.8952214
-9.531475,-6.113357,-1.2399056
-9.531475,-6.113357,-1.2399056
-9.531475,-6.113357,-1.2399056
-9.531475,-6.113357,-1.2399056
-11.992137,-5.2707953000000005,-0.26330042
-11.992137,-5.2707953000000005,-0.26330042
-11.992137,-5.2707953000000005,-0.26330042
-11.992137,-5.2707953000000005,-0.26330042
-14.136839000000002,-4.5239797,-0.4164934
-14.136839000000002,-4.5239797,-0.4164934
-14.136839000000002,-4.5239797,-0.4164934
-14.136839000000002,-4.5239797,-0.4164934
-13.638962,-2.3314054,-2.015445
-13.638962,-2.3314054,-2.015445
-13.638962,-2.3314054,-2.015445
-13.638962,-2.3314054,-2.015445
-13.840027,-1.1920328000000002,-1.8048046999999998
-13.840027,-1.1920328000000002,-1.8048046999999998
-13.840027,-1.1920328000000002,-1.8048046999999998
-13.840027,-1.1920328000000002,-1.8048046999999998
-9.7899885,-1.5845897,-1.0579889
-9.7899885,-1.5845897,-1.0579889
-9.7899885,-1.5845897,-1.0579889
-9.7899885,-1.5845897,-1.0579889
-6.946343400000001,-1.4888442,-1.3069274
-6.946343400000001,-1.4888442,-1.3069274
-6.946343400000001,-1.4888442,-1.3069274
-6.946343400000001,-1.4888442,-1.3069274
-6.467615599999999,-1.0579889,-1.5654407
-6.467615599999999,-1.0579889,-1.5654407
-6.467615599999999,-1.0579889,-1.5654407
-6.467615599999999,-1.0579889,-1.5654407
-7.9133744,-1.0962871,-1.7282081999999999
-7.9133744,-1.0962871,-1.7282081999999999
-7.9133744,-1.0962871,-1.7282081999999999
-7.9133744,-1.0962871,-1.7282081999999999
-9.971905,-2.2260852000000004,-1.3548003
-9.971905,-2.2260852000000004,-1.3548003
-9.971905,-2.2260852000000004,-1.3548003
-9.971905,-2.2260852000000004,-1.3548003
-12.509163000000001,-2.1590632999999997,-1.6228879999999999
-12.509163000000001,-2.1590632999999997,-1.6228879999999999
-12.509163000000001,-2.1590632999999997,-1.6228879999999999
-12.509163000000001,-2.1590632999999997,-1.6228879999999999
-13.562365,-3.9878044000000004,-0.9718179
-13.562365,-3.9878044000000004,-0.9718179
-13.562365,-3.9878044000000004,-0.9718179
-13.562365,-3.9878044000000004,-0.9718179
-12.968742,-1.2877783999999999,-0.081383765
-12.968742,-1.2877783999999999,-0.081383765
-12.968742,-1.2877783999999999,-0.081383765
-12.968742,-1.2877783999999999,-0.081383765
-11.350641,-1.7186337,-1.2207563999999997
-11.350641,-1.7186337,-1.2207563999999997
-11.350641,-1.7186337,-1.2207563999999997
-11.350641,-1.7186337,-1.2207563999999997
-11.350641,-1.7186337,-1.2207563999999997
-8.076141,-3.5569491,-0.6845810999999999
-8.076141,-3.5569491,-0.6845810999999999
-8.076141,-3.5569491,-0.6845810999999999
-7.042089,-3.3941817000000003,-0.61755913
-7.042089,-3.3941817000000003,-0.61755913
-7.042089,-3.3941817000000003,-0.61755913
-7.042089,-3.3941817000000003,-0.61755913
-7.568689999999999,-3.0111992,-0.64628285
-7.568689999999999,-3.0111992,-0.64628285
-7.568689999999999,-3.0111992,-0.64628285
-7.568689999999999,-3.0111992,-0.64628285
-7.568689999999999,-3.0111992,-0.64628285
-9.502751,-3.3175852,-0.8473485999999999
-9.502751,-3.3175852,-0.8473485999999999
-9.502751,-3.3175852,-0.8473485999999999
-11.034680999999999,-4.0261025,-0.8281995000000001
-11.034680999999999,-4.0261025,-0.8281995000000001
-11.034680999999999,-4.0261025,-0.8281995000000001
-11.034680999999999,-4.0261025,-0.8281995000000001
-13.99322,-5.500585,0.46436617
-13.99322,-5.500585,0.46436617
-13.99322,-5.500585,0.46436617
-13.99322,-5.500585,0.46436617
-13.744282,-3.0111992,-0.2154276
-13.744282,-3.0111992,-0.2154276
-13.744282,-3.0111992,-0.2154276
-13.744282,-3.0111992,-0.2154276
-14.76876,-1.9388485,-0.15798025
-14.76876,-1.9388485,-0.15798025
-14.76876,-1.9388485,-0.15798025
-14.76876,-1.9388485,-0.15798025
-10.996383,-0.78032666,0.6558574
-10.996383,-0.78032666,0.6558574
-10.996383,-0.78032666,0.6558574
-10.996383,-0.78032666,0.6558574
-7.1857076,-1.6611862000000002,0.359046
-7.1857076,-1.6611862000000002,0.359046
-7.1857076,-1.6611862000000002,0.359046
-7.1857076,-1.6611862000000002,0.359046
-7.1857076,-1.6611862000000002,0.359046
-5.3186684,-1.5079931999999998,-0.5888355
-5.3186684,-1.5079931999999998,-0.5888355
-5.3186684,-1.5079931999999998,-0.5888355
-5.328243,-1.0196906,-0.3398969
-5.328243,-1.0196906,-0.3398969
-5.328243,-1.0196906,-0.3398969
-5.328243,-1.0196906,-0.3398969
-5.328243,-1.0196906,-0.3398969
-6.1420803,-1.1345854,-0.5888355
-6.1420803,-1.1345854,-0.5888355
-6.1420803,-1.1345854,-0.5888355
-6.1420803,-1.1345854,-0.5888355
-7.348475,-1.9101248,-0.69415563
-7.348475,-1.9101248,-0.69415563
-7.348475,-1.9101248,-0.69415563
-11.082554,-1.776081,-1.1633091
-11.082554,-1.776081,-1.1633091
-11.082554,-1.776081,-1.1633091
-11.082554,-1.776081,-1.1633091
-11.082554,-1.776081,-1.1633091
-15.276210999999998,-2.972901,-1.8048046999999998
-15.276210999999998,-2.972901,-1.8048046999999998
-15.276210999999998,-2.972901,-1.8048046999999998
-15.276210999999998,-2.972901,-1.8048046999999998
-13.964497,-3.7963133,-0.77075213
-13.964497,-3.7963133,-0.77075213
-13.964497,-3.7963133,-0.77075213
-13.964497,-3.7963133,-0.77075213
-12.0400095,-0.91437054,-0.78990126
-12.0400095,-0.91437054,-0.78990126
-12.0400095,-0.91437054,-0.78990126
-12.0400095,-0.91437054,-0.78990126
-8.392102000000001,-1.0388398,-0.28244954
-8.392102000000001,-1.0388398,-0.28244954
-8.392102000000001,-1.0388398,-0.28244954
-8.392102000000001,-1.0388398,-0.28244954
-8.133589,-1.3452256999999999,-1.3452256999999999
-8.133589,-1.3452256999999999,-1.3452256999999999
-8.133589,-1.3452256999999999,-1.3452256999999999
-8.133589,-1.3452256999999999,-1.3452256999999999
-7.587839,-2.5803439999999997,-1.8239537000000001
-7.587839,-2.5803439999999997,-1.8239537000000001
-7.587839,-2.5803439999999997,-1.8239537000000001
-7.587839,-2.5803439999999997,-1.8239537000000001
-7.626137299999999,-2.88673,-2.1782124
-7.626137299999999,-2.88673,-2.1782124
-7.626137299999999,-2.88673,-2.1782124
-7.626137299999999,-2.88673,-2.1782124
-8.794233,-3.671844,-1.6420371999999999
-8.794233,-3.671844,-1.6420371999999999
-8.794233,-3.671844,-1.6420371999999999
-8.794233,-3.671844,-1.6420371999999999
-10.536804,-4.0261025,-0.9526688
-10.536804,-4.0261025,-0.9526688
-10.536804,-4.0261025,-0.9526688
-13.7730055,-4.8303657,-0.56011176
-13.7730055,-4.8303657,-0.56011176
-13.7730055,-4.8303657,-0.56011176
-13.7730055,-4.8303657,-0.56011176
-13.7730055,-4.8303657,-0.56011176
-9.655944,-3.5282254,0.47394073
-9.655944,-3.5282254,0.47394073
-9.655944,-3.5282254,0.47394073
-9.655944,-3.5282254,0.47394073
-13.399597,-2.733537,-0.03351096
-13.399597,-2.733537,-0.03351096
-13.399597,-2.733537,-0.03351096
-13.399597,-2.733537,-0.03351096
-12.2410755,-2.2835326,0.70373017
-12.2410755,-2.2835326,0.70373017
-12.2410755,-2.2835326,0.70373017
-12.2410755,-2.2835326,0.70373017
-10.670848,-1.5367169,1.4888442
-10.670848,-1.5367169,1.4888442
-10.670848,-1.5367169,1.4888442
-10.670848,-1.5367169,1.4888442
-10.670848,-1.5367169,1.4888442
-10.670848,-1.5367169,1.4888442
-10.670848,-1.5367169,1.4888442
-7.319751299999999,-1.4984187,-0.54096264
-7.319751299999999,-1.4984187,-0.54096264
-7.319751299999999,-1.4984187,-0.54096264
-7.319751299999999,-1.4984187,-0.54096264
-5.1271772,-1.3930986,-0.45479164
-5.1271772,-1.3930986,-0.45479164
-5.1271772,-1.3930986,-0.45479164
-5.1271772,-1.3930986,-0.45479164
-5.4048395,-1.9771467,-0.59841
-5.4048395,-1.9771467,-0.59841
-5.4048395,-1.9771467,-0.59841
-9.818711,-2.666515,-1.3643749
-9.818711,-2.666515,-1.3643749
-9.818711,-2.666515,-1.3643749
-9.818711,-2.666515,-1.3643749
-9.818711,-2.666515,-1.3643749
-17.890066,-3.0111992,-3.4133307999999998
-17.890066,-3.0111992,-3.4133307999999998
-17.890066,-3.0111992,-3.4133307999999998
-17.775171,-1.2399056,-3.1643922000000004
-17.775171,-1.2399056,-3.1643922000000004
-17.775171,-1.2399056,-3.1643922000000004
-17.775171,-1.2399056,-3.1643922000000004
-8.506997,-1.5750152,-0.3398969
-8.506997,-1.5750152,-0.3398969
-8.506997,-1.5750152,-0.3398969
-8.506997,-1.5750152,-0.3398969
-9.339984,-0.91437054,-1.4026731000000001
-9.339984,-0.91437054,-1.4026731000000001
-9.339984,-0.91437054,-1.4026731000000001
-9.339984,-0.91437054,-1.4026731000000001
-7.1857076,-2.1207652,-2.0441686999999997
-7.1857076,-2.1207652,-2.0441686999999997
-7.1857076,-2.1207652,-2.0441686999999997
-7.1857076,-2.1207652,-2.0441686999999997
-5.950589,-2.2835326,-0.8760723
-5.950589,-2.2835326,-0.8760723
-5.950589,-2.2835326,-0.8760723
-5.950589,-2.2835326,-0.8760723
-6.065484,-1.9005502,-0.081383765
-6.065484,-1.9005502,-0.081383765
-6.065484,-1.9005502,-0.081383765
-6.065484,-1.9005502,-0.081383765
-7.597413499999999,-2.0537431,-0.25372586
-7.597413499999999,-2.0537431,-0.25372586
-7.597413499999999,-2.0537431,-0.25372586
-7.597413499999999,-2.0537431,-0.25372586
-10.910212,-2.5516202,-0.26330042
-10.910212,-2.5516202,-0.26330042
-10.910212,-2.5516202,-0.26330042
-10.910212,-2.5516202,-0.26330042
-13.514492,-3.1165195,-0.03351096
-13.514492,-3.1165195,-0.03351096
-13.514492,-3.1165195,-0.03351096
-13.514492,-3.1165195,-0.03351096
-13.533641000000001,-3.7963133,0.19627848
-13.533641000000001,-3.7963133,0.19627848
-13.533641000000001,-3.7963133,0.19627848
-10.642124,-1.7186337,-0.8186249
-10.642124,-1.7186337,-0.8186249
-10.642124,-1.7186337,-0.8186249
-10.642124,-1.7186337,-0.8186249
-11.829369999999999,-0.76117754,-1.5558661
-11.829369999999999,-0.76117754,-1.5558661
-11.829369999999999,-0.76117754,-1.5558661
-11.829369999999999,-0.76117754,-1.5558661
-11.829369999999999,-0.76117754,-1.5558661
-9.579348,-1.4984187,-0.7994758000000001
-9.579348,-1.4984187,-0.7994758000000001
-9.579348,-1.4984187,-0.7994758000000001
-6.429317500000001,-1.8143792,-0.17712937
-6.429317500000001,-1.8143792,-0.17712937
-6.429317500000001,-1.8143792,-0.17712937
-6.429317500000001,-1.8143792,-0.17712937
-6.429317500000001,-1.8143792,-0.17712937
-6.314422599999999,-1.9579976000000003,-1.0292653
-6.314422599999999,-1.9579976000000003,-1.0292653
-6.314422599999999,-1.9579976000000003,-1.0292653
-9.636795,-1.3930986,-1.5654407
-9.636795,-1.3930986,-1.5654407
-9.636795,-1.3930986,-1.5654407
-9.636795,-1.3930986,-1.5654407
-12.758101,-0.76117754,-1.9579976000000003
-12.758101,-0.76117754,-1.9579976000000003
-12.758101,-0.76117754,-1.9579976000000003
-12.758101,-0.76117754,-1.9579976000000003
-12.681505,-1.3452256999999999,-2.1590632999999997
-12.681505,-1.3452256999999999,-2.1590632999999997
-12.681505,-1.3452256999999999,-2.1590632999999997
-12.681505,-1.3452256999999999,-2.1590632999999997
-10.737869,-2.149489,-1.1824582000000001
-10.737869,-2.149489,-1.1824582000000001
-10.737869,-2.149489,-1.1824582000000001
-10.737869,-2.149489,-1.1824582000000001
-9.885734,-1.5750152,-0.39734426
-9.885734,-1.5750152,-0.39734426
-9.885734,-1.5750152,-0.39734426
-10.527229,-0.98139244,-1.3930986
-10.527229,-0.98139244,-1.3930986
-10.527229,-0.98139244,-1.3930986
-10.527229,-0.98139244,-1.3930986
-10.527229,-0.98139244,-1.3930986
-7.855927,-2.6282167000000003,-0.49308985
-7.855927,-2.6282167000000003,-0.49308985
-7.855927,-2.6282167000000003,-0.49308985
-6.1229315,-2.9154537,0.03351096
-6.1229315,-2.9154537,0.03351096
-6.1229315,-2.9154537,0.03351096
-6.1229315,-2.9154537,0.03351096
-8.420826,-2.4654493,-0.47394073
-8.420826,-2.4654493,-0.47394073
-8.420826,-2.4654493,-0.47394073
-8.420826,-2.4654493,-0.47394073
-10.881488000000001,-3.0207740000000003,-0.03351096
-10.881488000000001,-3.0207740000000003,-0.03351096
-10.881488000000001,-3.0207740000000003,-0.03351096
-10.881488000000001,-3.0207740000000003,-0.03351096
-12.097457,-3.6239712,-0.40691882
-12.097457,-3.6239712,-0.40691882
-12.097457,-3.6239712,-0.40691882
-12.097457,-3.6239712,-0.40691882
-14.280457,-4.0644007,-0.0718092
-14.280457,-4.0644007,-0.0718092
-14.280457,-4.0644007,-0.0718092
-14.280457,-4.0644007,-0.0718092
-9.378282,-2.752686,-0.56968635
-9.378282,-2.752686,-0.56968635
-9.378282,-2.752686,-0.56968635
-9.378282,-2.752686,-0.56968635
-11.207023,-1.8526775000000002,-1.6994845
-11.207023,-1.8526775000000002,-1.6994845
-11.207023,-1.8526775000000002,-1.6994845
-11.207023,-1.8526775000000002,-1.6994845
-11.082554,-1.1345854,-1.1058618
-11.082554,-1.1345854,-1.1058618
-11.082554,-1.1345854,-1.1058618
-11.082554,-1.1345854,-1.1058618
-8.200611,-1.2207563999999997,-0.3111732
-8.200611,-1.2207563999999997,-0.3111732
-8.200611,-1.2207563999999997,-0.3111732
-8.200611,-1.2207563999999997,-0.3111732
-7.9133744,-1.4601203999999999,-1.6611862000000002
-7.9133744,-1.4601203999999999,-1.6611862000000002
-7.9133744,-1.4601203999999999,-1.6611862000000002
-7.9133744,-1.4601203999999999,-1.6611862000000002
-9.818711,-0.9526688,-2.3026817000000004
-9.818711,-0.9526688,-2.3026817000000004
-9.818711,-0.9526688,-2.3026817000000004
-9.818711,-0.9526688,-2.3026817000000004
-11.49426,-0.751603,-2.1111906000000005
-11.49426,-0.751603,-2.1111906000000005
-11.49426,-0.751603,-2.1111906000000005
-11.49426,-0.751603,-2.1111906000000005
-12.135756,-0.99096704,-1.8718264999999998
-12.135756,-0.99096704,-1.8718264999999998
-12.135756,-0.99096704,-1.8718264999999998
-10.938935,-2.1782124,-0.9718179
-10.938935,-2.1782124,-0.9718179
-10.938935,-2.1782124,-0.9718179
-10.938935,-2.1782124,-0.9718179
-10.938935,-2.1782124,-0.9718179
-10.642124,-0.78032666,-0.37819514
-10.642124,-0.78032666,-0.37819514
-10.642124,-0.78032666,-0.37819514
-10.575102000000001,-0.92394507,-1.1537346000000002
-10.575102000000001,-0.92394507,-1.1537346000000002
-10.575102000000001,-0.92394507,-1.1537346000000002
-10.575102000000001,-0.92394507,-1.1537346000000002
-7.137835000000001,-2.5516202,0.09095833
-7.137835000000001,-2.5516202,0.09095833
-7.137835000000001,-2.5516202,0.09095833
-7.137835000000001,-2.5516202,0.09095833
-6.1420803,-2.1303396,0.45479164
-6.1420803,-2.1303396,0.45479164
-6.1420803,-2.1303396,0.45479164
-6.1420803,-2.1303396,0.45479164
-7.721883,-2.5899186000000003,0.081383765
-7.721883,-2.5899186000000003,0.081383765
-7.721883,-2.5899186000000003,0.081383765
-7.721883,-2.5899186000000003,0.081383765
-11.49426,-3.518651,0.39734426
-11.49426,-3.518651,0.39734426
-11.49426,-3.518651,0.39734426
-11.49426,-3.518651,0.39734426
-14.088965,-3.8824842000000004,-0.2154276
-14.088965,-3.8824842000000004,-0.2154276
-14.088965,-3.8824842000000004,-0.2154276
-14.088965,-3.8824842000000004,-0.2154276
-14.175137,-2.6186423,0.2154276
-14.175137,-2.6186423,0.2154276
-14.175137,-2.6186423,0.2154276
-10.000628,-2.6952388,-0.5888355
-10.000628,-2.6952388,-0.5888355
-10.000628,-2.6952388,-0.5888355
-10.000628,-2.6952388,-0.5888355
-11.714475,-1.9867213,-1.9005502
-11.714475,-1.9867213,-1.9005502
-11.714475,-1.9867213,-1.9005502
-11.714475,-1.9867213,-1.9005502
-11.542132,-0.6079846,-0.8473485999999999
-11.542132,-0.6079846,-0.8473485999999999
-11.542132,-0.6079846,-0.8473485999999999
-11.542132,-0.6079846,-0.8473485999999999
-8.564445,-1.3452256999999999,-0.54096264
-8.564445,-1.3452256999999999,-0.54096264
-8.564445,-1.3452256999999999,-0.54096264
-8.564445,-1.3452256999999999,-0.54096264
-6.697405000000001,-1.6803354,-1.7569318999999999
-6.697405000000001,-1.6803354,-1.7569318999999999
-6.697405000000001,-1.6803354,-1.7569318999999999
-6.697405000000001,-1.6803354,-1.7569318999999999
-8.478273,-1.0675635,-2.0250196
-8.478273,-1.0675635,-2.0250196
-8.478273,-1.0675635,-2.0250196
-8.478273,-1.0675635,-2.0250196
-11.810221,-1.1537346000000002,-1.5845897
-11.810221,-1.1537346000000002,-1.5845897
-11.810221,-1.1537346000000002,-1.5845897
-11.810221,-1.1537346000000002,-1.5845897
-12.844273,-0.6845810999999999,-1.862252
-12.844273,-0.6845810999999999,-1.862252
-12.844273,-0.6845810999999999,-1.862252
-12.844273,-0.6845810999999999,-1.862252
-11.800646,-1.9388485,-1.6324625
-11.800646,-1.9388485,-1.6324625
-11.800646,-1.9388485,-1.6324625
-11.800646,-1.9388485,-1.6324625
-10.096374,-1.6516117,-0.062234644000000006
-10.096374,-1.6516117,-0.062234644000000006
-10.096374,-1.6516117,-0.062234644000000006
-10.82404,-0.665432,-0.26330042
-10.82404,-0.665432,-0.26330042
-10.82404,-0.665432,-0.26330042
-10.82404,-0.665432,-0.26330042
-8.995299000000001,-1.9962958,-0.2441513
-8.995299000000001,-1.9962958,-0.2441513
-8.995299000000001,-1.9962958,-0.2441513
-8.995299000000001,-1.9962958,-0.2441513
-6.8888964999999995,-2.7909843999999997,0.64628285
-6.8888964999999995,-2.7909843999999997,0.64628285
-6.8888964999999995,-2.7909843999999997,0.64628285
-7.2048570000000005,-2.3697037999999995,0.70373017
-7.2048570000000005,-2.3697037999999995,0.70373017
-7.2048570000000005,-2.3697037999999995,0.70373017
-7.2048570000000005,-2.3697037999999995,0.70373017
-7.2048570000000005,-2.3697037999999995,0.70373017
-8.909127999999999,-2.6186423,0.77075213
-8.909127999999999,-2.6186423,0.77075213
-8.909127999999999,-2.6186423,0.77075213
-11.36979,-2.9633265,0.081383765
-11.36979,-2.9633265,0.081383765
-11.36979,-2.9633265,0.081383765
-11.36979,-2.9633265,0.081383765
-16.0709,-4.08355,0.014361841
-16.0709,-4.08355,0.014361841
-16.0709,-4.08355,0.014361841
-16.0709,-4.08355,0.014361841
-12.011286,-3.078221,0.14840569
-12.011286,-3.078221,0.14840569
-12.011286,-3.078221,0.14840569
-12.011286,-3.078221,0.14840569
-12.786825,-1.9196993000000002,-1.8718264999999998
-12.786825,-1.9196993000000002,-1.8718264999999998
-12.786825,-1.9196993000000002,-1.8718264999999998
-12.786825,-1.9196993000000002,-1.8718264999999998
-14.682589000000002,-0.92394507,-2.1303396
-14.682589000000002,-0.92394507,-2.1303396
-14.682589000000002,-0.92394507,-2.1303396
-14.682589000000002,-0.92394507,-2.1303396
-9.75169,-0.92394507,-0.2154276
-9.75169,-0.92394507,-0.2154276
-9.75169,-0.92394507,-0.2154276
-9.75169,-0.92394507,-0.2154276
-5.6633525,-1.0196906,-0.8186249
-5.6633525,-1.0196906,-0.8186249
-5.6633525,-1.0196906,-0.8186249
-5.979312999999999,-0.90479594,-1.4122477
-5.979312999999999,-0.90479594,-1.4122477
-5.979312999999999,-0.90479594,-1.4122477
-5.979312999999999,-0.90479594,-1.4122477
-9.7899885,-0.8664976999999999,-1.776081
-9.7899885,-0.8664976999999999,-1.776081
-9.7899885,-0.8664976999999999,-1.776081
-9.7899885,-0.8664976999999999,-1.776081
-12.978316,-1.2877783999999999,-1.8239537000000001
-12.978316,-1.2877783999999999,-1.8239537000000001
-12.978316,-1.2877783999999999,-1.8239537000000001
-12.978316,-1.2877783999999999,-1.8239537000000001
-13.064487,-1.4218222,-2.1303396
-13.064487,-1.4218222,-2.1303396
-13.064487,-1.4218222,-2.1303396
-13.064487,-1.4218222,-2.1303396
-11.771922,-2.254809,-0.70373017
-11.771922,-2.254809,-0.70373017
-11.771922,-2.254809,-0.70373017
-11.771922,-2.254809,-0.70373017
-12.56661,-0.92394507,-0.92394507
-12.56661,-0.92394507,-0.92394507
-12.56661,-0.92394507,-0.92394507
-12.56661,-0.92394507,-0.92394507
-10.287866000000001,-1.4984187,-0.6079846
-10.287866000000001,-1.4984187,-0.6079846
-10.287866000000001,-1.4984187,-0.6079846
-10.287866000000001,-1.4984187,-0.6079846
-8.698488000000001,-2.8771553,-0.6079846
-8.698488000000001,-2.8771553,-0.6079846
-8.698488000000001,-2.8771553,-0.6079846
-7.922949000000001,-2.9537517999999996,-0.2920241
-7.922949000000001,-2.9537517999999996,-0.2920241
-7.922949000000001,-2.9537517999999996,-0.2920241
-7.922949000000001,-2.9537517999999996,-0.2920241
-8.966576,-2.905879,0.0718092
-8.966576,-2.905879,0.0718092
-8.966576,-2.905879,0.0718092
-8.966576,-2.905879,0.0718092
-11.59958,-2.972901,-0.5505372
-11.59958,-2.972901,-0.5505372
-11.59958,-2.972901,-0.5505372
-11.59958,-2.972901,-0.5505372
-12.490014,-4.945260500000001,0.6845810999999999
-12.490014,-4.945260500000001,0.6845810999999999
-12.490014,-4.945260500000001,0.6845810999999999
-12.490014,-4.945260500000001,0.6845810999999999
-12.135756,-3.9590807,-0.5792609000000001
-12.135756,-3.9590807,-0.5792609000000001
-12.135756,-3.9590807,-0.5792609000000001
-12.135756,-3.9590807,-0.5792609000000001
-13.399597,-1.469695,-2.034594
-13.399597,-1.469695,-2.034594
-13.399597,-1.469695,-2.034594
-13.399597,-1.469695,-2.034594
-14.529395000000001,-0.30159867,-1.2207563999999997
-14.529395000000001,-0.30159867,-1.2207563999999997
-14.529395000000001,-0.30159867,-1.2207563999999997
-9.847435,-1.1058618,0.3398969
-9.847435,-1.1058618,0.3398969
-9.847435,-1.1058618,0.3398969
-9.847435,-1.1058618,0.3398969
-9.847435,-1.1058618,0.3398969
-7.405922400000001,-1.3930986,-0.751603
-7.405922400000001,-1.3930986,-0.751603
-7.405922400000001,-1.3930986,-0.751603
-7.0037910000000005,-0.9526688,-1.3739493999999999
-7.0037910000000005,-0.9526688,-1.3739493999999999
-7.0037910000000005,-0.9526688,-1.3739493999999999
-7.0037910000000005,-0.9526688,-1.3739493999999999
-7.4250717,-0.5505372,-0.8664976999999999
-7.4250717,-0.5505372,-0.8664976999999999
-7.4250717,-0.5505372,-0.8664976999999999
-7.4250717,-0.5505372,-0.8664976999999999
-9.780414,-2.321831,-0.77075213
-9.780414,-2.321831,-0.77075213
-9.780414,-2.321831,-0.77075213
-9.780414,-2.321831,-0.77075213
-13.370873000000001,-2.6569404999999997,-3.3175852
-13.370873000000001,-2.6569404999999997,-3.3175852
-13.370873000000001,-2.6569404999999997,-3.3175852
-13.370873000000001,-2.6569404999999997,-3.3175852
-12.758101,-3.9782297999999994,-1.9962958
-12.758101,-3.9782297999999994,-1.9962958
-12.758101,-3.9782297999999994,-1.9962958
-12.930444,-2.714388,-1.8431028999999999
-12.930444,-2.714388,-1.8431028999999999
-12.930444,-2.714388,-1.8431028999999999
-12.930444,-2.714388,-1.8431028999999999
-12.930444,-2.714388,-1.8431028999999999
-11.925115,-2.3697037999999995,-1.9771467
-11.925115,-2.3697037999999995,-1.9771467
-11.925115,-2.3697037999999995,-1.9771467
-9.253813000000001,-2.408002,-1.3739493999999999
-9.253813000000001,-2.408002,-1.3739493999999999
-9.253813000000001,-2.408002,-1.3739493999999999
-9.253813000000001,-2.408002,-1.3739493999999999
-7.8367777,-2.427151,-1.3739493999999999
-7.8367777,-2.427151,-1.3739493999999999
-7.8367777,-2.427151,-1.3739493999999999
-7.8367777,-2.427151,-1.3739493999999999
-7.9325233,-2.561195,-1.948423
-7.9325233,-2.561195,-1.948423
-7.9325233,-2.561195,-1.948423
-7.9325233,-2.561195,-1.948423
-7.721883,-2.6856642,-2.254809
-7.721883,-2.6856642,-2.254809
-7.721883,-2.6856642,-2.254809
-7.721883,-2.6856642,-2.254809
-7.463369999999999,-2.905879,-1.9196993000000002
-7.463369999999999,-2.905879,-1.9196993000000002
-7.463369999999999,-2.905879,-1.9196993000000002
-7.463369999999999,-2.905879,-1.9196993000000002
-8.200611,-2.8484317999999997,-2.408002
-8.200611,-2.8484317999999997,-2.408002
-8.200611,-2.8484317999999997,-2.408002
-8.200611,-2.8484317999999997,-2.408002
-10.287866000000001,-3.8537605000000004,-1.1537346000000002
-10.287866000000001,-3.8537605000000004,-1.1537346000000002
-10.287866000000001,-3.8537605000000004,-1.1537346000000002
-10.287866000000001,-3.8537605000000004,-1.1537346000000002
-12.537887,-4.5335545999999995,1.1633091
-12.537887,-4.5335545999999995,1.1633091
-12.537887,-4.5335545999999995,1.1633091
-12.537887,-4.5335545999999995,1.1633091
-10.29744,-3.0111992,1.0292653
-10.29744,-3.0111992,1.0292653
-10.29744,-3.0111992,1.0292653
-10.29744,-3.0111992,1.0292653
-11.436812,-3.5569491,1.2877783999999999
-11.436812,-3.5569491,1.2877783999999999
-11.436812,-3.5569491,1.2877783999999999
-11.436812,-3.5569491,1.2877783999999999
-14.43365,-2.4750240000000003,0.05266008
-14.43365,-2.4750240000000003,0.05266008
-14.43365,-2.4750240000000003,0.05266008
-14.43365,-2.4750240000000003,0.05266008
-12.288948,0.09095833,0.8664976999999999
-12.288948,0.09095833,0.8664976999999999
-12.288948,0.09095833,0.8664976999999999
-12.288948,0.09095833,0.8664976999999999
-8.717637,-1.5462915000000002,0.359046
-8.717637,-1.5462915000000002,0.359046
-8.717637,-1.5462915000000002,0.359046
-6.946343400000001,-1.8909756999999998,0.062234644000000006
-6.946343400000001,-1.8909756999999998,0.062234644000000006
-6.946343400000001,-1.8909756999999998,0.062234644000000006
-6.946343400000001,-1.8909756999999998,0.062234644000000006
-6.946343400000001,-1.8909756999999998,0.062234644000000006
-6.0559096,-2.0250196,-0.56968635
-6.0559096,-2.0250196,-0.56968635
-6.0559096,-2.0250196,-0.56968635
-7.5399666,-2.3026817000000004,-0.665432
-7.5399666,-2.3026817000000004,-0.665432
-7.5399666,-2.3026817000000004,-0.665432
-7.5399666,-2.3026817000000004,-0.665432
-8.842107,-2.4367256,-1.4026731000000001
-8.842107,-2.4367256,-1.4026731000000001
-8.842107,-2.4367256,-1.4026731000000001
-8.842107,-2.4367256,-1.4026731000000001
-14.261307999999998,-2.3697037999999995,-3.0303482999999996
-14.261307999999998,-2.3697037999999995,-3.0303482999999996
-14.261307999999998,-2.3697037999999995,-3.0303482999999996
-14.261307999999998,-2.3697037999999995,-3.0303482999999996
-12.020861,-2.9633265,-1.9388485
-12.020861,-2.9633265,-1.9388485
-12.020861,-2.9633265,-1.9388485
-12.020861,-2.9633265,-1.9388485
-12.202777000000001,-0.99096704,-2.0633178
-12.202777000000001,-0.99096704,-2.0633178
-12.202777000000001,-0.99096704,-2.0633178
-12.202777000000001,-0.99096704,-2.0633178
-9.904882,-1.948423,-1.3739493999999999
-9.904882,-1.948423,-1.3739493999999999
-9.904882,-1.948423,-1.3739493999999999
-9.904882,-1.948423,-1.3739493999999999
-8.564445,-1.8526775000000002,-2.1590632999999997
-8.564445,-1.8526775000000002,-2.1590632999999997
-8.564445,-1.8526775000000002,-2.1590632999999997
-7.8367777,-2.513322,-2.4367256
-7.8367777,-2.513322,-2.4367256
-7.8367777,-2.513322,-2.4367256
-7.8367777,-2.513322,-2.4367256
-7.855927,-2.4558747000000003,-1.5079931999999998
-7.855927,-2.4558747000000003,-1.5079931999999998
-7.855927,-2.4558747000000003,-1.5079931999999998
-7.855927,-2.4558747000000003,-1.5079931999999998
-9.0814705,-3.7005677,-0.9526688
-9.0814705,-3.7005677,-0.9526688
-9.0814705,-3.7005677,-0.9526688
-9.0814705,-3.7005677,-0.9526688
-11.475111,-4.476107,-0.27287498
-11.475111,-4.476107,-0.27287498
-11.475111,-4.476107,-0.27287498
-11.475111,-4.476107,-0.27287498
-13.457045,-4.1984449999999995,0.18670394
-13.457045,-4.1984449999999995,0.18670394
-13.457045,-4.1984449999999995,0.18670394
-13.457045,-4.1984449999999995,0.18670394
-14.175137,-5.366541000000001,0.39734426
-14.175137,-5.366541000000001,0.39734426
-14.175137,-5.366541000000001,0.39734426
-10.986808,-3.3367343000000003,-0.32074776
-10.986808,-3.3367343000000003,-0.32074776
-10.986808,-3.3367343000000003,-0.32074776
-10.986808,-3.3367343000000003,-0.32074776
-11.915541000000001,-1.7473572,-1.0675635
-11.915541000000001,-1.7473572,-1.0675635
-11.915541000000001,-1.7473572,-1.0675635
-11.915541000000001,-1.7473572,-1.0675635
-11.101703,-1.2973529,-1.2877783999999999
-11.101703,-1.2973529,-1.2877783999999999
-11.101703,-1.2973529,-1.2877783999999999
-11.101703,-1.2973529,-1.2877783999999999
-11.101703,-1.2973529,-1.2877783999999999
-9.024023,-1.2016073,-1.2590546999999999
-9.024023,-1.2016073,-1.2590546999999999
-9.024023,-1.2016073,-1.2590546999999999
-7.846352,-0.77075213,-1.6420371999999999
-7.846352,-0.77075213,-1.6420371999999999
-7.846352,-0.77075213,-1.6420371999999999
-7.846352,-0.77075213,-1.6420371999999999
-8.037844,-1.1728836,-2.015445
-8.037844,-1.1728836,-2.015445
-8.037844,-1.1728836,-2.015445
-8.037844,-1.1728836,-2.015445
-8.037844,-1.1728836,-2.015445
-10.29744,-1.6324625,-1.7569318999999999
-10.29744,-1.6324625,-1.7569318999999999
-10.29744,-1.6324625,-1.7569318999999999
-12.135756,-1.2686293,-2.1877869999999997
-12.135756,-1.2686293,-2.1877869999999997
-12.135756,-1.2686293,-2.1877869999999997
-12.135756,-1.2686293,-2.1877869999999997
-12.135756,-1.2686293,-2.1877869999999997
-11.408089,-2.2356597999999996,-1.4792696
-11.408089,-2.2356597999999996,-1.4792696
-11.408089,-2.2356597999999996,-1.4792696
-11.360216000000001,-1.6133133999999998,-1.1345854
-11.360216000000001,-1.6133133999999998,-1.1345854
-11.360216000000001,-1.6133133999999998,-1.1345854
-11.360216000000001,-1.6133133999999998,-1.1345854
-13.00704,-1.5462915000000002,-1.8526775000000002
-13.00704,-1.5462915000000002,-1.8526775000000002
-13.00704,-1.5462915000000002,-1.8526775000000002
-13.00704,-1.5462915000000002,-1.8526775000000002
-9.876159,-2.8580062,-0.7420284
-9.876159,-2.8580062,-0.7420284
-9.876159,-2.8580062,-0.7420284
-9.876159,-2.8580062,-0.7420284
-8.286782,-2.714388,-0.751603
-8.286782,-2.714388,-0.751603
-8.286782,-2.714388,-0.751603
-8.286782,-2.714388,-0.751603
-8.018694,-3.0207740000000003,-0.6558574
-8.018694,-3.0207740000000003,-0.6558574
-8.018694,-3.0207740000000003,-0.6558574
-8.018694,-3.0207740000000003,-0.6558574
-7.7793303,-4.0739756,0.46436617
-7.7793303,-4.0739756,0.46436617
-7.7793303,-4.0739756,0.46436617
-9.64637,-4.6867475999999995,-0.12925656
-9.64637,-4.6867475999999995,-0.12925656
-9.64637,-4.6867475999999995,-0.12925656
-9.64637,-4.6867475999999995,-0.12925656
-15.218764000000002,-5.4431376,-0.76117754
-15.218764000000002,-5.4431376,-0.76117754
-15.218764000000002,-5.4431376,-0.76117754
-15.218764000000002,-5.4431376,-0.76117754
-12.231501,-4.5910015,-0.45479164
-12.231501,-4.5910015,-0.45479164
-12.231501,-4.5910015,-0.45479164
-12.231501,-4.5910015,-0.45479164
-13.390023000000001,-2.015445,-1.8239537000000001
-13.390023000000001,-2.015445,-1.8239537000000001
-13.390023000000001,-2.015445,-1.8239537000000001
-13.390023000000001,-2.015445,-1.8239537000000001
-13.600663,-0.69415563,-1.5271424
-13.600663,-0.69415563,-1.5271424
-13.600663,-0.69415563,-1.5271424
-13.600663,-0.69415563,-1.5271424
-10.326163000000001,-1.0484143,-0.8186249
-10.326163000000001,-1.0484143,-0.8186249
-10.326163000000001,-1.0484143,-0.8186249
-10.326163000000001,-1.0484143,-0.8186249
-7.022939999999999,-0.64628285,-1.2207563999999997
-7.022939999999999,-0.64628285,-1.2207563999999997
-7.022939999999999,-0.64628285,-1.2207563999999997
-6.2474008,-0.47394073,-1.5750152
-6.2474008,-0.47394073,-1.5750152
-6.2474008,-0.47394073,-1.5750152
-6.2474008,-0.47394073,-1.5750152
-9.866585,-0.36862057,-1.5845897
-9.866585,-0.36862057,-1.5845897
-9.866585,-0.36862057,-1.5845897
-9.866585,-0.36862057,-1.5845897
-12.0400095,-0.8952214,-1.4601203999999999
-12.0400095,-0.8952214,-1.4601203999999999
-12.0400095,-0.8952214,-1.4601203999999999
-12.0400095,-0.8952214,-1.4601203999999999
-13.409172,-1.8239537000000001,-1.5941644
-13.409172,-1.8239537000000001,-1.5941644
-13.409172,-1.8239537000000001,-1.5941644
-13.409172,-1.8239537000000001,-1.5941644
-11.561282,-2.0058703,-0.18670394
-11.561282,-2.0058703,-0.18670394
-11.561282,-2.0058703,-0.18670394
-11.561282,-2.0058703,-0.18670394
-12.365545,-0.3398969,-1.3069274
-12.365545,-0.3398969,-1.3069274
-12.365545,-0.3398969,-1.3069274
-12.365545,-0.3398969,-1.3069274
-11.092129,-2.4558747000000003,-1.1154363
-11.092129,-2.4558747000000003,-1.1154363
-11.092129,-2.4558747000000003,-1.1154363
-11.092129,-2.4558747000000003,-1.1154363
-8.459125,-2.9441773999999996,0.110107444
-8.459125,-2.9441773999999996,0.110107444
-8.459125,-2.9441773999999996,0.110107444
-8.459125,-2.9441773999999996,0.110107444
-7.319751299999999,-2.666515,-0.2441513
-7.319751299999999,-2.666515,-0.2441513
-7.319751299999999,-2.666515,-0.2441513
-7.319751299999999,-2.666515,-0.2441513
-8.937852000000001,-4.437809,-0.3877697
-8.937852000000001,-4.437809,-0.3877697
-8.937852000000001,-4.437809,-0.3877697
-8.937852000000001,-4.437809,-0.3877697
-10.211267999999999,-4.437809,0.043085523
-10.211267999999999,-4.437809,0.043085523
-10.211267999999999,-4.437809,0.043085523
-10.211267999999999,-4.437809,0.043085523
-12.863422,-4.7920675,0.09095833
-12.863422,-4.7920675,0.09095833
-12.863422,-4.7920675,0.09095833
-14.778334,-4.3612123,-0.11968201
-14.778334,-4.3612123,-0.11968201
-14.778334,-4.3612123,-0.11968201
-14.778334,-4.3612123,-0.11968201
-12.758101,-2.9250283,-1.3260766000000002
-12.758101,-2.9250283,-1.3260766000000002
-12.758101,-2.9250283,-1.3260766000000002
-12.758101,-2.9250283,-1.3260766000000002
-14.720885999999998,-1.0579889,-1.6994845
-14.720885999999998,-1.0579889,-1.6994845
-14.720885999999998,-1.0579889,-1.6994845
-14.720885999999998,-1.0579889,-1.6994845
-12.260224000000001,-1.0484143,-1.2207563999999997
-12.260224000000001,-1.0484143,-1.2207563999999997
-12.260224000000001,-1.0484143,-1.2207563999999997
-12.260224000000001,-1.0484143,-1.2207563999999997
-9.464453,-1.3260766000000002,-1.4888442
-9.464453,-1.3260766000000002,-1.4888442
-9.464453,-1.3260766000000002,-1.4888442
-9.464453,-1.3260766000000002,-1.4888442
-7.8367777,-1.0675635,-1.709059
-7.8367777,-1.0675635,-1.709059
-7.8367777,-1.0675635,-1.709059
-7.8367777,-1.0675635,-1.709059
-7.4729443,-0.47394073,-1.7377827000000001
-7.4729443,-0.47394073,-1.7377827000000001
-7.4729443,-0.47394073,-1.7377827000000001
-7.4729443,-0.47394073,-1.7377827000000001
-9.483603,-1.0579889,-1.3643749
-9.483603,-1.0579889,-1.3643749
-9.483603,-1.0579889,-1.3643749
-9.483603,-1.0579889,-1.3643749
-10.393186,-1.2494801000000002,-1.7186337
-10.393186,-1.2494801000000002,-1.7186337
-10.393186,-1.2494801000000002,-1.7186337
-10.393186,-1.2494801000000002,-1.7186337
-11.858092999999998,-1.9771467,-1.0196906
-11.858092999999998,-1.9771467,-1.0196906
-11.858092999999998,-1.9771467,-1.0196906
-13.169807,-1.7473572,-0.33032233
-13.169807,-1.7473572,-0.33032233
-13.169807,-1.7473572,-0.33032233
-13.169807,-1.7473572,-0.33032233
-13.169807,-1.7473572,-0.33032233
-14.290030999999999,-1.469695,-1.3643749
-14.290030999999999,-1.469695,-1.3643749
-14.290030999999999,-1.469695,-1.3643749
-12.183628,-2.7239625,-0.46436617
-12.183628,-2.7239625,-0.46436617
-12.183628,-2.7239625,-0.46436617
-12.183628,-2.7239625,-0.46436617
-9.119769,-2.88673,0.61755913
-9.119769,-2.88673,0.61755913
-9.119769,-2.88673,0.61755913
-9.119769,-2.88673,0.61755913
-7.855927,-2.7048132000000003,0.42606795
-7.855927,-2.7048132000000003,0.42606795
-7.855927,-2.7048132000000003,0.42606795
-7.855927,-2.7048132000000003,0.42606795
-8.526146,-3.2601378,0.56968635
-8.526146,-3.2601378,0.56968635
-8.526146,-3.2601378,0.56968635
-8.526146,-3.2601378,0.56968635
-10.795316999999999,-4.016528,0.85692316
-10.795316999999999,-4.016528,0.85692316
-10.795316999999999,-4.016528,0.85692316
-10.795316999999999,-4.016528,0.85692316
-15.611320499999998,-4.8973875,0.56011176
-15.611320499999998,-4.8973875,0.56011176
-15.611320499999998,-4.8973875,0.56011176
-15.611320499999998,-4.8973875,0.56011176
-12.892146,-3.1739669999999998,-1.0005416
-12.892146,-3.1739669999999998,-1.0005416
-12.892146,-3.1739669999999998,-1.0005416
-12.892146,-3.1739669999999998,-1.0005416
-14.021944,-1.5750152,-2.3792782000000003
-14.021944,-1.5750152,-2.3792782000000003
-14.021944,-1.5750152,-2.3792782000000003
-14.021944,-1.5750152,-2.3792782000000003
-14.854931,-0.59841,-2.2739582
-14.854931,-0.59841,-2.2739582
-14.854931,-0.59841,-2.2739582
-14.854931,-0.59841,-2.2739582
-12.145328999999998,-0.92394507,-1.7282081999999999
-12.145328999999998,-0.92394507,-1.7282081999999999
-12.145328999999998,-0.92394507,-1.7282081999999999
-9.493176,-0.751603,-2.360129
-9.493176,-0.751603,-2.360129
-9.493176,-0.751603,-2.360129
-9.493176,-0.751603,-2.360129
-9.493176,-0.751603,-2.360129
-8.746361,-0.5888355,-3.3750327000000007
-8.746361,-0.5888355,-3.3750327000000007
-8.746361,-0.5888355,-3.3750327000000007
-8.411251,-0.3877697,-2.0537431
-8.411251,-0.3877697,-2.0537431
-8.411251,-0.3877697,-2.0537431
-8.411251,-0.3877697,-2.0537431
-8.411251,-0.3877697,-2.0537431
-8.698488000000001,-1.9867213,-0.17712937
-8.698488000000001,-1.9867213,-0.17712937
-8.698488000000001,-1.9867213,-0.17712937
-8.698488000000001,-1.9867213,-0.17712937
-9.943181,-3.4324798999999997,-1.2207563999999997
-9.943181,-3.4324798999999997,-1.2207563999999997
-9.943181,-3.4324798999999997,-1.2207563999999997
-12.614484,-4.1888704,-1.2782038
-12.614484,-4.1888704,-1.2782038
-12.614484,-4.1888704,-1.2782038
-12.614484,-4.1888704,-1.2782038
-12.614484,-4.1888704,-1.2782038
-14.711312,-2.1207652,-1.0771381000000002
-14.711312,-2.1207652,-1.0771381000000002
-14.711312,-2.1207652,-1.0771381000000002
-14.711312,-2.1207652,-1.0771381000000002
-12.442142,-3.9590807,-0.48351530000000004
-12.442142,-3.9590807,-0.48351530000000004
-12.442142,-3.9590807,-0.48351530000000004
-12.442142,-3.9590807,-0.48351530000000004
-9.263388,-3.844186,0.043085523
-9.263388,-3.844186,0.043085523
-9.263388,-3.844186,0.043085523
-8.602742,-3.2888615,-0.8664976999999999
-8.602742,-3.2888615,-0.8664976999999999
-8.602742,-3.2888615,-0.8664976999999999
-8.602742,-3.2888615,-0.8664976999999999
-8.602742,-3.2888615,-0.8664976999999999
-7.693159,-3.3558834,-0.751603
-7.693159,-3.3558834,-0.751603
-7.693159,-3.3558834,-0.751603
-7.693159,-3.3558834,-0.751603
-8.497422,-4.0644007,-0.33032233
-8.497422,-4.0644007,-0.33032233
-8.497422,-4.0644007,-0.33032233
-13.227255,-5.098453500000001,-0.5313880999999999
-13.227255,-5.098453500000001,-0.5313880999999999
-13.227255,-5.098453500000001,-0.5313880999999999
-13.227255,-5.098453500000001,-0.5313880999999999
-13.227255,-5.098453500000001,-0.5313880999999999
-13.4666195,-4.1601467,-0.64628285
-13.4666195,-4.1601467,-0.64628285
-13.4666195,-4.1601467,-0.64628285
-13.4666195,-4.1601467,-0.64628285
-12.614484,-2.5420458,-1.8048046999999998
-12.614484,-2.5420458,-1.8048046999999998
-12.614484,-2.5420458,-1.8048046999999998
-12.614484,-2.5420458,-1.8048046999999998
-15.774088,-1.6994845,-2.1590632999999997
-15.774088,-1.6994845,-2.1590632999999997
-15.774088,-1.6994845,-2.1590632999999997
-12.614484,-0.8473485999999999,-1.0484143
-12.614484,-0.8473485999999999,-1.0484143
-12.614484,-0.8473485999999999,-1.0484143
-12.614484,-0.8473485999999999,-1.0484143
-8.918703,-1.6037389,-1.6803354
-8.918703,-1.6037389,-1.6803354
-8.918703,-1.6037389,-1.6803354
-8.918703,-1.6037389,-1.6803354
-7.051664,-1.4218222,-1.776081
-7.051664,-1.4218222,-1.776081
-7.051664,-1.4218222,-1.776081
-7.051664,-1.4218222,-1.776081
-6.8793216,-0.26330042,-1.0771381000000002
-6.8793216,-0.26330042,-1.0771381000000002
-6.8793216,-0.26330042,-1.0771381000000002
-6.8793216,-0.26330042,-1.0771381000000002
-6.8793216,-0.26330042,-1.0771381000000002
-8.478273,-1.0388398,-1.1154363
-8.478273,-1.0388398,-1.1154363
-8.478273,-1.0388398,-1.1154363
-11.762347,-1.6037389,-1.4984187
-11.762347,-1.6037389,-1.4984187
-11.762347,-1.6037389,-1.4984187
-11.762347,-1.6037389,-1.4984187
-13.418745999999999,-2.2165107999999996,-0.44521707
-13.418745999999999,-2.2165107999999996,-0.44521707
-13.418745999999999,-2.2165107999999996,-0.44521707
-13.418745999999999,-2.2165107999999996,-0.44521707
-13.418745999999999,-2.2165107999999996,-0.44521707
-13.849601999999999,-1.7569318999999999,-0.5888355
-13.849601999999999,-1.7569318999999999,-0.5888355
-13.849601999999999,-1.7569318999999999,-0.5888355
-13.638962,-1.6420371999999999,-1.6516117
-13.638962,-1.6420371999999999,-1.6516117
-13.638962,-1.6420371999999999,-1.6516117
-13.638962,-1.6420371999999999,-1.6516117
-13.638962,-1.6420371999999999,-1.6516117
-10.766592999999999,-3.5569491,-0.16755481
-10.766592999999999,-3.5569491,-0.16755481
-10.766592999999999,-3.5569491,-0.16755481
-10.766592999999999,-3.5569491,-0.16755481
-9.263388,-3.193116,0.09095833
-9.263388,-3.193116,0.09095833
-9.263388,-3.193116,0.09095833
-8.478273,-2.666515,0.3111732
-8.478273,-2.666515,0.3111732
-8.478273,-2.666515,0.3111732
-8.478273,-2.666515,0.3111732
-8.478273,-2.666515,0.3111732
-7.434646000000001,-2.4367256,0.22500217
-7.434646000000001,-2.4367256,0.22500217
-7.434646000000001,-2.4367256,0.22500217
-7.434646000000001,-2.4367256,0.22500217
-7.721883,-2.7814097,-0.26330042
-7.721883,-2.7814097,-0.26330042
-7.721883,-2.7814097,-0.26330042
-7.721883,-2.7814097,-0.26330042
-9.675094,-2.9537517999999996,-0.10053288
-9.675094,-2.9537517999999996,-0.10053288
-9.675094,-2.9537517999999996,-0.10053288
-9.675094,-2.9537517999999996,-0.10053288
-12.087883,-2.7239625,-0.30159867
-12.087883,-2.7239625,-0.30159867
-12.087883,-2.7239625,-0.30159867
-12.087883,-2.7239625,-0.30159867
-14.242159,0.7228793,-2.149489
-14.242159,0.7228793,-2.149489
-14.242159,0.7228793,-2.149489
-14.242159,0.7228793,-2.149489
-9.407005,2.0633178,-1.5941644
-9.407005,2.0633178,-1.5941644
-9.407005,2.0633178,-1.5941644
-9.407005,2.0633178,-1.5941644
-11.657027000000001,1.5175678999999997,-2.8963046
-11.657027000000001,1.5175678999999997,-2.8963046
-11.657027000000001,1.5175678999999997,-2.8963046
-11.657027000000001,1.5175678999999997,-2.8963046
-10.268716,0.85692316,-2.3026817000000004
-10.268716,0.85692316,-2.3026817000000004
-10.268716,0.85692316,-2.3026817000000004
-10.268716,0.85692316,-2.3026817000000004
-10.737869,0.61755913,-2.867581
-10.737869,0.61755913,-2.867581
-10.737869,0.61755913,-2.867581
-10.737869,0.61755913,-2.867581
-9.655944,-0.17712937,-3.0494976
-9.655944,-0.17712937,-3.0494976
-9.655944,-0.17712937,-3.0494976
-9.655944,-0.17712937,-3.0494976
-9.177217,-0.78032666,-2.4463003
-9.177217,-0.78032666,-2.4463003
-9.177217,-0.78032666,-2.4463003
-9.177217,-0.78032666,-2.4463003
-8.21976,-0.99096704,-1.9675721999999998
-8.21976,-0.99096704,-1.9675721999999998
-8.21976,-0.99096704,-1.9675721999999998
-8.21976,-0.99096704,-1.9675721999999998
-8.286782,-1.5462915000000002,-1.4888442
-8.286782,-1.5462915000000002,-1.4888442
-8.286782,-1.5462915000000002,-1.4888442
-8.286782,-1.5462915000000002,-1.4888442
-8.55487,-2.0441686999999997,-1.1920328000000002
-8.55487,-2.0441686999999997,-1.1920328000000002
-8.55487,-2.0441686999999997,-1.1920328000000002
-8.55487,-2.0441686999999997,-1.1920328000000002
-10.163396,-1.9101248,-1.0962871
-10.163396,-1.9101248,-1.0962871
-10.163396,-1.9101248,-1.0962871
-10.163396,-1.9101248,-1.0962871
-10.354887,-2.2835326,-0.47394073
-10.354887,-2.2835326,-0.47394073
