accx,accy,accz
-10.919786,0.11968201,3.8250370000000005
-10.919786,0.11968201,3.8250370000000005
-11.637878,-0.7420284,2.2739582
-11.637878,-0.7420284,2.2739582
-11.637878,-0.7420284,2.2739582
-11.484685,-2.513322,1.3165021000000001
-11.484685,-2.513322,1.3165021000000001
-11.484685,-2.513322,1.3165021000000001
-11.484685,-2.513322,1.3165021000000001
-10.412334,-3.8537605000000004,0.93351966
-10.412334,-3.8537605000000004,0.93351966
-10.412334,-3.8537605000000004,0.93351966
-10.412334,-3.8537605000000004,0.93351966
-9.3878565,-3.4899273,2.3026817000000004
-9.3878565,-3.4899273,2.3026817000000004
-9.3878565,-3.4899273,2.3026817000000004
-9.3878565,-3.4899273,2.3026817000000004
-9.368708,-3.384607,2.321831
-9.368708,-3.384607,2.321831
-9.368708,-3.384607,2.321831
-9.368708,-3.384607,2.321831
-9.320834,-2.7622607000000006,1.9101248
-9.320834,-2.7622607000000006,1.9101248
-9.320834,-2.7622607000000006,1.9101248
-9.320834,-2.7622607000000006,1.9101248
-9.397431,-2.360129,2.0728923999999997
-9.397431,-2.360129,2.0728923999999997
-9.397431,-2.360129,2.0728923999999997
-9.397431,-2.360129,2.0728923999999997
-9.435728999999998,-2.6760897999999997,1.9196993000000002
-9.435728999999998,-2.6760897999999997,1.9196993000000002
-9.435728999999998,-2.6760897999999997,1.9196993000000002
-9.435728999999998,-2.6760897999999997,1.9196993000000002
-9.41658,-2.5994933,1.7473572
-9.41658,-2.5994933,1.7473572
-9.41658,-2.5994933,1.7473572
-9.41658,-2.5994933,1.7473572
-9.397431,-2.3314054,1.6133133999999998
-9.397431,-2.3314054,1.6133133999999998
-9.397431,-2.3314054,1.6133133999999998
-9.397431,-2.3314054,1.6133133999999998
-9.234664,-2.2931072999999995,1.4313968000000001
-9.234664,-2.2931072999999995,1.4313968000000001
-9.234664,-2.2931072999999995,1.4313968000000001
-9.234664,-2.2931072999999995,1.4313968000000001
-9.024023,-2.2260852000000004,1.2111819
-9.024023,-2.2260852000000004,1.2111819
-9.024023,-2.2260852000000004,1.2111819
-9.024023,-2.2260852000000004,1.2111819
-8.650616000000001,-2.34098,1.2111819
-8.650616000000001,-2.34098,1.2111819
-8.650616000000001,-2.34098,1.2111819
-8.650616000000001,-2.34098,1.2111819
-8.478273,-2.3697037999999995,1.3069274
-8.478273,-2.3697037999999995,1.3069274
-8.478273,-2.3697037999999995,1.3069274
-8.478273,-2.3697037999999995,1.3069274
-8.727212,-2.3984275,1.5845897
-8.727212,-2.3984275,1.5845897
-8.727212,-2.3984275,1.5845897
-8.727212,-2.3984275,1.5845897
-8.746361,-2.9441773999999996,1.7282081999999999
-8.746361,-2.9441773999999996,1.7282081999999999
-8.746361,-2.9441773999999996,1.7282081999999999
-8.746361,-2.9441773999999996,1.7282081999999999
-8.755936,-2.7431116,1.9101248
-8.755936,-2.7431116,1.9101248
-8.755936,-2.7431116,1.9101248
-8.755936,-2.7431116,1.9101248
-9.8953085,-2.1111906000000005,2.0537431
-9.8953085,-2.1111906000000005,2.0537431
-9.8953085,-2.1111906000000005,2.0537431
-9.8953085,-2.1111906000000005,2.0537431
-9.493176,-2.6282167000000003,2.3314054
-9.493176,-2.6282167000000003,2.3314054
-9.493176,-2.6282167000000003,2.3314054
-9.493176,-2.6282167000000003,2.3314054
-8.459125,-2.5037475,1.7856555
-8.459125,-2.5037475,1.7856555
-8.459125,-2.5037475,1.7856555
-9.138917999999999,-2.408002,1.4984187
-9.138917999999999,-2.408002,1.4984187
-9.138917999999999,-2.408002,1.4984187
-9.138917999999999,-2.408002,1.4984187
-9.138917999999999,-2.408002,1.4984187
-9.292110000000001,-2.6377914000000002,1.3165021000000001
-9.292110000000001,-2.6377914000000002,1.3165021000000001
-9.292110000000001,-2.6377914000000002,1.3165021000000001
-8.937852000000001,-2.714388,1.5367169
-8.937852000000001,-2.714388,1.5367169
-8.937852000000001,-2.714388,1.5367169
-8.937852000000001,-2.714388,1.5367169
-8.813383,-2.3026817000000004,1.8239537000000001
-8.813383,-2.3026817000000004,1.8239537000000001
-8.813383,-2.3026817000000004,1.8239537000000001
-8.813383,-2.3026817000000004,1.8239537000000001
-8.928278,-2.6760897999999997,1.709059
-8.928278,-2.6760897999999997,1.709059
-8.928278,-2.6760897999999997,1.709059
-8.928278,-2.6760897999999997,1.709059
-9.129342999999999,-2.7909843999999997,1.5367169
-9.129342999999999,-2.7909843999999997,1.5367169
-9.129342999999999,-2.7909843999999997,1.5367169
-9.129342999999999,-2.7909843999999997,1.5367169
-8.822957,-2.6186423,1.5654407
-8.822957,-2.6186423,1.5654407
-8.822957,-2.6186423,1.5654407
-8.822957,-2.6186423,1.5654407
-8.746361,-2.5228968,1.5941644
-8.746361,-2.5228968,1.5941644
-8.746361,-2.5228968,1.5941644
-8.947427000000001,-2.4463003,1.776081
-8.947427000000001,-2.4463003,1.776081
-8.947427000000001,-2.4463003,1.776081
-8.947427000000001,-2.4463003,1.776081
-9.0814705,-2.714388,1.6420371999999999
-9.0814705,-2.714388,1.6420371999999999
-9.0814705,-2.714388,1.6420371999999999
-9.0814705,-2.714388,1.6420371999999999
-9.20594,-2.8197080000000003,1.6420371999999999
-9.20594,-2.8197080000000003,1.6420371999999999
-9.20594,-2.8197080000000003,1.6420371999999999
-9.20594,-2.8197080000000003,1.6420371999999999
-9.196365,-2.8771553,1.6611862000000002
-9.196365,-2.8771553,1.6611862000000002
-9.196365,-2.8771553,1.6611862000000002
-9.196365,-2.8771553,1.6611862000000002
-9.071896,-2.8580062,1.6707608
-9.071896,-2.8580062,1.6707608
-9.071896,-2.8580062,1.6707608
-9.071896,-2.8580062,1.6707608
-9.119769,-2.7909843999999997,1.6899098999999997
-9.119769,-2.7909843999999997,1.6899098999999997
-9.119769,-2.7909843999999997,1.6899098999999997
-9.119769,-2.7909843999999997,1.6899098999999997
-9.071896,-2.8101335,1.5271424
-9.071896,-2.8101335,1.5271424
-9.071896,-2.8101335,1.5271424
-9.071896,-2.8101335,1.5271424
-9.138917999999999,-2.7909843999999997,1.4026731000000001
-9.138917999999999,-2.7909843999999997,1.4026731000000001
-9.138917999999999,-2.7909843999999997,1.4026731000000001
-9.138917999999999,-2.7909843999999997,1.4026731000000001
-9.119769,-2.5899186000000003,1.3930986
-9.119769,-2.5899186000000003,1.3930986
-9.119769,-2.5899186000000003,1.3930986
-9.119769,-2.5899186000000003,1.3930986
-9.110194,-2.5707695,1.3739493999999999
-9.110194,-2.5707695,1.3739493999999999
-9.110194,-2.5707695,1.3739493999999999
-9.138917999999999,-2.5037475,1.383524
-9.138917999999999,-2.5037475,1.383524
-9.138917999999999,-2.5037475,1.383524
-9.138917999999999,-2.5037475,1.383524
-9.0814705,-2.4845984,1.4313968000000001
-9.0814705,-2.4845984,1.4313968000000001
-9.0814705,-2.4845984,1.4313968000000001
-9.0814705,-2.4845984,1.4313968000000001
-9.062322,-2.3505547000000004,1.5845897
-9.062322,-2.3505547000000004,1.5845897
-9.062322,-2.3505547000000004,1.5845897
-9.062322,-2.3505547000000004,1.5845897
-9.052747,-2.360129,1.6803354
-9.052747,-2.360129,1.6803354
-9.052747,-2.360129,1.6803354
-9.052747,-2.360129,1.6803354
-8.957002000000001,-2.4463003,1.709059
-8.957002000000001,-2.4463003,1.709059
-8.957002000000001,-2.4463003,1.709059
-8.957002000000001,-2.4463003,1.709059
-8.957002000000001,-2.4463003,1.709059
-8.784659,-2.4750240000000003,1.7856555
-8.784659,-2.4750240000000003,1.7856555
-8.784659,-2.4750240000000003,1.7856555
-8.889978999999999,-2.4845984,1.8526775000000002
-8.889978999999999,-2.4845984,1.8526775000000002
-8.889978999999999,-2.4845984,1.8526775000000002
-8.889978999999999,-2.4845984,1.8526775000000002
-9.024023,-2.5228968,1.7856555
-9.024023,-2.5228968,1.7856555
-9.024023,-2.5228968,1.7856555
-9.024023,-2.5228968,1.7856555
-9.062322,-2.5994933,1.6899098999999997
-9.062322,-2.5994933,1.6899098999999997
-9.062322,-2.5994933,1.6899098999999997
-9.062322,-2.5994933,1.6899098999999997
-9.052747,-2.666515,1.6133133999999998
-9.052747,-2.666515,1.6133133999999998
-9.052747,-2.666515,1.6133133999999998
-9.052747,-2.666515,1.6133133999999998
-8.976150500000001,-2.6856642,1.5750152
-8.976150500000001,-2.6856642,1.5750152
-8.976150500000001,-2.6856642,1.5750152
-8.976150500000001,-2.6856642,1.5750152
-9.004874000000001,-2.752686,1.5175678999999997
-9.004874000000001,-2.752686,1.5175678999999997
-9.004874000000001,-2.752686,1.5175678999999997
-9.062322,-2.7909843999999997,1.469695
-9.062322,-2.7909843999999997,1.469695
-9.062322,-2.7909843999999997,1.469695
-9.062322,-2.7909843999999997,1.469695
-9.062322,-2.7909843999999997,1.469695
-9.024023,-2.7814097,1.4601203999999999
-9.024023,-2.7814097,1.4601203999999999
-9.024023,-2.7814097,1.4601203999999999
-9.024023,-2.7814097,1.4601203999999999
-9.043172,-2.714388,1.5271424
-9.043172,-2.714388,1.5271424
-9.043172,-2.714388,1.5271424
-9.043172,-2.714388,1.5271424
-9.0814705,-2.6186423,1.6420371999999999
-9.0814705,-2.6186423,1.6420371999999999
-9.0814705,-2.6186423,1.6420371999999999
-9.119769,-2.427151,1.776081
-9.119769,-2.427151,1.776081
-9.119769,-2.427151,1.776081
-9.119769,-2.427151,1.776081
-9.129342999999999,-2.5420458,1.709059
-9.129342999999999,-2.5420458,1.709059
-9.129342999999999,-2.5420458,1.709059
-9.129342999999999,-2.5420458,1.709059
-9.062322,-2.3984275,1.7186337
-9.062322,-2.3984275,1.7186337
-9.062322,-2.3984275,1.7186337
-9.062322,-2.3984275,1.7186337
-9.033598,-2.427151,1.6516117
-9.033598,-2.427151,1.6516117
-9.033598,-2.427151,1.6516117
-9.033598,-2.427151,1.6516117
-8.889978999999999,-2.3984275,1.6324625
-8.889978999999999,-2.3984275,1.6324625
-8.889978999999999,-2.3984275,1.6324625
-8.889978999999999,-2.3984275,1.6324625
-8.899554,-2.4558747000000003,1.6037389
-8.899554,-2.4558747000000003,1.6037389
-8.899554,-2.4558747000000003,1.6037389
-8.851681,-2.427151,1.5654407
-8.851681,-2.427151,1.5654407
-8.851681,-2.427151,1.5654407
-8.851681,-2.427151,1.5654407
-8.851681,-2.427151,1.5654407
-9.052747,-2.3984275,1.5271424
-9.052747,-2.3984275,1.5271424
-9.052747,-2.3984275,1.5271424
-9.64637,-2.427151,1.4792696
-9.64637,-2.427151,1.4792696
-9.64637,-2.427151,1.4792696
-9.64637,-2.427151,1.4792696
-9.713391,-2.2260852000000004,1.5079931999999998
-9.713391,-2.2260852000000004,1.5079931999999998
-9.713391,-2.2260852000000004,1.5079931999999998
-9.713391,-2.2260852000000004,1.5079931999999998
-8.34423,-2.2069361,1.4888442
-8.34423,-2.2069361,1.4888442
-8.34423,-2.2069361,1.4888442
-8.34423,-2.2069361,1.4888442
-8.296356,-2.4558747000000003,1.4313968000000001
-8.296356,-2.4558747000000003,1.4313968000000001
-8.296356,-2.4558747000000003,1.4313968000000001
-8.296356,-2.4558747000000003,1.4313968000000001
-9.167641999999999,-2.2356597999999996,1.4409714
-9.167641999999999,-2.2356597999999996,1.4409714
-9.167641999999999,-2.2356597999999996,1.4409714
-9.167641999999999,-2.2356597999999996,1.4409714
-9.320834,-2.7239625,1.1250108
-9.320834,-2.7239625,1.1250108
-9.320834,-2.7239625,1.1250108
-9.320834,-2.7239625,1.1250108
-8.727212,-2.666515,1.14416
-8.727212,-2.666515,1.14416
-8.727212,-2.666515,1.14416
-8.363379,-2.6760897999999997,1.2782038
-8.363379,-2.6760897999999997,1.2782038
-8.363379,-2.6760897999999997,1.2782038
-8.363379,-2.6760897999999997,1.2782038
-8.363379,-2.6760897999999997,1.2782038
-8.095291,-2.3984275,1.4601203999999999
-8.095291,-2.3984275,1.4601203999999999
-8.095291,-2.3984275,1.4601203999999999
-8.095291,-2.3984275,1.4601203999999999
-7.7123084,-2.4845984,1.3356511999999998
-7.7123084,-2.4845984,1.3356511999999998
-7.7123084,-2.4845984,1.3356511999999998
-6.2761245,-2.1590632999999997,1.2877783999999999
-6.2761245,-2.1590632999999997,1.2877783999999999
-6.2761245,-2.1590632999999997,1.2877783999999999
-6.2761245,-2.1590632999999997,1.2877783999999999
-6.2761245,-2.1590632999999997,1.2877783999999999
-5.395264599999999,-2.3984275,0.98139244
-5.395264599999999,-2.3984275,0.98139244
-5.395264599999999,-2.3984275,0.98139244
-5.395264599999999,-2.3984275,0.98139244
-8.392102000000001,-3.0686467,1.2016073
-8.392102000000001,-3.0686467,1.2016073
-8.392102000000001,-3.0686467,1.2016073
-8.392102000000001,-3.0686467,1.2016073
-14.165563,-2.34098,1.7952299999999999
-14.165563,-2.34098,1.7952299999999999
-14.165563,-2.34098,1.7952299999999999
-14.165563,-2.34098,1.7952299999999999
-16.578352,-1.9771467,2.905879
-16.578352,-1.9771467,2.905879
-16.578352,-1.9771467,2.905879
-16.578352,-1.9771467,2.905879
-10.393186,-4.0931244,2.6952388
-10.393186,-4.0931244,2.6952388
-10.393186,-4.0931244,2.6952388
-10.393186,-4.0931244,2.6952388
-7.2335806,-2.0441686999999997,2.6090677
-7.2335806,-2.0441686999999997,2.6090677
-7.2335806,-2.0441686999999997,2.6090677
-4.303765,-1.0962871,2.9441773999999996
-4.303765,-1.0962871,2.9441773999999996
-4.303765,-1.0962871,2.9441773999999996
-4.303765,-1.0962871,2.9441773999999996
-4.303765,-1.0962871,2.9441773999999996
-4.322914,-3.039923,1.948423
-4.322914,-3.039923,1.948423
-4.322914,-3.039923,1.948423
-5.1367517,-2.9154537,1.6420371999999999
-5.1367517,-2.9154537,1.6420371999999999
-5.1367517,-2.9154537,1.6420371999999999
-5.1367517,-2.9154537,1.6420371999999999
-7.5303917,-2.8197080000000003,2.2260852000000004
-7.5303917,-2.8197080000000003,2.2260852000000004
-7.5303917,-2.8197080000000003,2.2260852000000004
-7.5303917,-2.8197080000000003,2.2260852000000004
-11.532558,-2.9346027,2.3026817000000004
-11.532558,-2.9346027,2.3026817000000004
-11.532558,-2.9346027,2.3026817000000004
-11.532558,-2.9346027,2.3026817000000004
-17.583681,-3.0303482999999996,1.7282081999999999
-17.583681,-3.0303482999999996,1.7282081999999999
-17.583681,-3.0303482999999996,1.7282081999999999
-17.583681,-3.0303482999999996,1.7282081999999999
-16.95176,-2.1973617,1.469695
-16.95176,-2.1973617,1.469695
-16.95176,-2.1973617,1.469695
-16.95176,-2.1973617,1.469695
-9.531475,-1.8814011999999998,2.0728923999999997
-9.531475,-1.8814011999999998,2.0728923999999997
-9.531475,-1.8814011999999998,2.0728923999999997
-4.715471,-2.1399142999999996,1.6037389
-4.715471,-2.1399142999999996,1.6037389
-4.715471,-2.1399142999999996,1.6037389
-4.715471,-2.1399142999999996,1.6037389
-2.360129,-2.6282167000000003,1.1250108
-2.360129,-2.6282167000000003,1.1250108
-2.360129,-2.6282167000000003,1.1250108
-2.360129,-2.6282167000000003,1.1250108
-2.666515,-1.9675721999999998,1.1250108
-2.666515,-1.9675721999999998,1.1250108
-2.666515,-1.9675721999999998,1.1250108
-2.666515,-1.9675721999999998,1.1250108
-5.912291000000001,-1.9101248,1.1537346000000002
-5.912291000000001,-1.9101248,1.1537346000000002
-5.912291000000001,-1.9101248,1.1537346000000002
-5.912291000000001,-1.9101248,1.1537346000000002
-9.129342999999999,-2.2165107999999996,1.1058618
-9.129342999999999,-2.2165107999999996,1.1058618
-9.129342999999999,-2.2165107999999996,1.1058618
-9.129342999999999,-2.2165107999999996,1.1058618
-11.657027000000001,-2.5803439999999997,1.9388485
-11.657027000000001,-2.5803439999999997,1.9388485
-11.657027000000001,-2.5803439999999997,1.9388485
-11.657027000000001,-2.5803439999999997,1.9388485
-15.927280999999999,-3.1739669999999998,1.8239537000000001
-15.927280999999999,-3.1739669999999998,1.8239537000000001
-15.927280999999999,-3.1739669999999998,1.8239537000000001
-12.011286,-3.8250370000000005,3.0207740000000003
-12.011286,-3.8250370000000005,3.0207740000000003
-12.011286,-3.8250370000000005,3.0207740000000003
-12.011286,-3.8250370000000005,3.0207740000000003
-12.011286,-3.8250370000000005,3.0207740000000003
-6.544212,-2.0728923999999997,2.9633265
-6.544212,-2.0728923999999997,2.9633265
-6.544212,-2.0728923999999997,2.9633265
-6.544212,-2.0728923999999997,2.9633265
-5.002708,-1.0771381000000002,2.321831
-5.002708,-1.0771381000000002,2.321831
-5.002708,-1.0771381000000002,2.321831
-5.002708,-1.0771381000000002,2.321831
-4.9356860000000005,-2.9346027,2.0920415
-4.9356860000000005,-2.9346027,2.0920415
-4.9356860000000005,-2.9346027,2.0920415
-4.9356860000000005,-2.9346027,2.0920415
-9.41658,-4.811217,2.408002
-9.41658,-4.811217,2.408002
-9.41658,-4.811217,2.408002
-16.013453,-2.5324712000000003,2.0633178
-16.013453,-2.5324712000000003,2.0633178
-16.013453,-2.5324712000000003,2.0633178
-16.013453,-2.5324712000000003,2.0633178
-15.620895,-1.5941644,2.513322
-15.620895,-1.5941644,2.513322
-15.620895,-1.5941644,2.513322
-15.620895,-1.5941644,2.513322
-15.620895,-1.5941644,2.513322
-10.699572,-2.5324712000000003,0.512239
-10.699572,-2.5324712000000003,0.512239
-10.699572,-2.5324712000000003,0.512239
-10.699572,-2.5324712000000003,0.512239
-6.850598,-1.9196993000000002,1.1920328000000002
-6.850598,-1.9196993000000002,1.1920328000000002
-6.850598,-1.9196993000000002,1.1920328000000002
-4.581427,-1.3930986,0.5792609000000001
-4.581427,-1.3930986,0.5792609000000001
-4.581427,-1.3930986,0.5792609000000001
-4.581427,-1.3930986,0.5792609000000001
-7.1474094,-1.8814011999999998,0.014361841
-7.1474094,-1.8814011999999998,0.014361841
-7.1474094,-1.8814011999999998,0.014361841
-7.1474094,-1.8814011999999998,0.014361841
-11.101703,-2.3314054,0.59841
-11.101703,-2.3314054,0.59841
-11.101703,-2.3314054,0.59841
-11.101703,-2.3314054,0.59841
-11.207023,-2.494173,2.2931072999999995
-11.207023,-2.494173,2.2931072999999995
-11.207023,-2.494173,2.2931072999999995
-11.207023,-2.494173,2.2931072999999995
-10.0868,-4.3803616,3.5952474999999997
-10.0868,-4.3803616,3.5952474999999997
-10.0868,-4.3803616,3.5952474999999997
-10.0868,-4.3803616,3.5952474999999997
-8.21976,-2.6282167000000003,2.8197080000000003
-8.21976,-2.6282167000000003,2.8197080000000003
-8.21976,-2.6282167000000003,2.8197080000000003
-7.243155000000001,-1.2782038,2.5899186000000003
-7.243155000000001,-1.2782038,2.5899186000000003
-7.243155000000001,-1.2782038,2.5899186000000003
-7.243155000000001,-1.2782038,2.5899186000000003
-8.286782,-2.8484317999999997,2.561195
-8.286782,-2.8484317999999997,2.561195
-8.286782,-2.8484317999999997,2.561195
-8.286782,-2.8484317999999997,2.561195
-8.459125,-3.7388659,3.3654580000000003
-8.459125,-3.7388659,3.3654580000000003
-8.459125,-3.7388659,3.3654580000000003
-8.459125,-3.7388659,3.3654580000000003
-11.886817,-1.5175678999999997,3.9207826
-11.886817,-1.5175678999999997,3.9207826
-11.886817,-1.5175678999999997,3.9207826
-11.886817,-1.5175678999999997,3.9207826
-15.065570999999998,-2.6090677,2.3122563
-15.065570999999998,-2.6090677,2.3122563
-15.065570999999998,-2.6090677,2.3122563
-15.065570999999998,-2.6090677,2.3122563
-14.471948000000001,-2.5324712000000003,0.48351530000000004
-14.471948000000001,-2.5324712000000003,0.48351530000000004
-14.471948000000001,-2.5324712000000003,0.48351530000000004
-14.471948000000001,-2.5324712000000003,0.48351530000000004
-10.163396,-2.1782124,1.2686293
-10.163396,-2.1782124,1.2686293
-10.163396,-2.1782124,1.2686293
-10.163396,-2.1782124,1.2686293
-6.1612295999999995,-1.948423,0.751603
-6.1612295999999995,-1.948423,0.751603
-6.1612295999999995,-1.948423,0.751603
-6.1612295999999995,-1.948423,0.751603
-4.8782387,-1.3260766000000002,0.32074776
-4.8782387,-1.3260766000000002,0.32074776
-4.8782387,-1.3260766000000002,0.32074776
-4.8782387,-1.3260766000000002,0.32074776
-6.9942164,-1.4984187,0.37819514
-6.9942164,-1.4984187,0.37819514
-6.9942164,-1.4984187,0.37819514
-6.9942164,-1.4984187,0.37819514
-9.512326,-2.905879,1.0771381000000002
-9.512326,-2.905879,1.0771381000000002
-9.512326,-2.905879,1.0771381000000002
-9.512326,-2.905879,1.0771381000000002
-13.160233499999999,-3.5282254,1.6037389
-13.160233499999999,-3.5282254,1.6037389
-13.160233499999999,-3.5282254,1.6037389
-12.69108,-5.088879,3.0111992
-12.69108,-5.088879,3.0111992
-12.69108,-5.088879,3.0111992
-12.69108,-5.088879,3.0111992
-7.664436,-2.972901,1.6611862000000002
-7.664436,-2.972901,1.6611862000000002
-7.664436,-2.972901,1.6611862000000002
-7.664436,-2.972901,1.6611862000000002
-5.8261199999999995,-0.78032666,1.3452256999999999
-5.8261199999999995,-0.78032666,1.3452256999999999
-5.8261199999999995,-0.78032666,1.3452256999999999
-5.8261199999999995,-0.78032666,1.3452256999999999
-6.0176110000000005,-0.512239,3.3271596
-6.0176110000000005,-0.512239,3.3271596
-6.0176110000000005,-0.512239,3.3271596
-6.0176110000000005,-0.512239,3.3271596
-7.7123084,-2.752686,2.8292825
-7.7123084,-2.752686,2.8292825
-7.7123084,-2.752686,2.8292825
-7.7123084,-2.752686,2.8292825
-16.712395,-5.500585,0.34947145
-16.712395,-5.500585,0.34947145
-16.712395,-5.500585,0.34947145
-16.712395,-5.500585,0.34947145
-16.856014000000002,-5.06973,-0.30159867
-16.856014000000002,-5.06973,-0.30159867
-16.856014000000002,-5.06973,-0.30159867
-16.856014000000002,-5.06973,-0.30159867
-11.274045,-1.1824582000000001,2.8197080000000003
-11.274045,-1.1824582000000001,2.8197080000000003
-11.274045,-1.1824582000000001,2.8197080000000003
-11.274045,-1.1824582000000001,2.8197080000000003
-6.9176197,-1.7665064,2.733537
-6.9176197,-1.7665064,2.733537
-6.9176197,-1.7665064,2.733537
-6.9176197,-1.7665064,2.733537
-4.045252,-2.3697037999999995,0.7420284
-4.045252,-2.3697037999999995,0.7420284
-4.045252,-2.3697037999999995,0.7420284
-6.592085000000001,-1.6516117,-0.93351966
-6.592085000000001,-1.6516117,-0.93351966
-6.592085000000001,-1.6516117,-0.93351966
-6.592085000000001,-1.6516117,-0.93351966
-6.592085000000001,-1.6516117,-0.93351966
-9.167641999999999,-1.469695,0.34947145
-9.167641999999999,-1.469695,0.34947145
-9.167641999999999,-1.469695,0.34947145
-9.167641999999999,-1.469695,0.34947145
-12.614484,-3.6431203,1.2016073
-12.614484,-3.6431203,1.2016073
-12.614484,-3.6431203,1.2016073
-12.614484,-3.6431203,1.2016073
-12.834699,-5.8261199999999995,2.8484317999999997
-12.834699,-5.8261199999999995,2.8484317999999997
-12.834699,-5.8261199999999995,2.8484317999999997
-12.834699,-5.8261199999999995,2.8484317999999997
-8.506997,-3.0973704,2.2931072999999995
-8.506997,-3.0973704,2.2931072999999995
-8.506997,-3.0973704,2.2931072999999995
-6.458041000000001,-0.92394507,1.4026731000000001
-6.458041000000001,-0.92394507,1.4026731000000001
-6.458041000000001,-0.92394507,1.4026731000000001
-6.5633610000000004,-1.5558661,2.5324712000000003
-6.5633610000000004,-1.5558661,2.5324712000000003
-6.5633610000000004,-1.5558661,2.5324712000000003
-6.5633610000000004,-1.5558661,2.5324712000000003
-7.635712,-3.5952474999999997,3.5569491
-7.635712,-3.5952474999999997,3.5569491
-7.635712,-3.5952474999999997,3.5569491
-7.635712,-3.5952474999999997,3.5569491
-9.129342999999999,-3.5473747,3.1452432
-9.129342999999999,-3.5473747,3.1452432
-9.129342999999999,-3.5473747,3.1452432
-9.129342999999999,-3.5473747,3.1452432
-14.30918,-4.0739756,2.6377914000000002
-14.30918,-4.0739756,2.6377914000000002
-14.30918,-4.0739756,2.6377914000000002
-19.09646,-3.0303482999999996,1.7569318999999999
-19.09646,-3.0303482999999996,1.7569318999999999
-19.09646,-3.0303482999999996,1.7569318999999999
-19.09646,-3.0303482999999996,1.7569318999999999
-19.09646,-3.0303482999999996,1.7569318999999999
-12.202777000000001,-0.665432,2.5994933
-12.202777000000001,-0.665432,2.5994933
-12.202777000000001,-0.665432,2.5994933
-7.4442205,-1.4888442,1.5941644
-7.4442205,-1.4888442,1.5941644
-7.4442205,-1.4888442,1.5941644
-7.4442205,-1.4888442,1.5941644
-5.376116000000001,-2.4654493,0.22500217
-5.376116000000001,-2.4654493,0.22500217
-5.376116000000001,-2.4654493,0.22500217
-5.376116000000001,-2.4654493,0.22500217
-5.376116000000001,-2.4654493,0.22500217
-3.8633351,-2.2260852000000004,0.081383765
-3.8633351,-2.2260852000000004,0.081383765
-3.8633351,-2.2260852000000004,0.081383765
-3.8633351,-2.2260852000000004,0.081383765
-6.592085000000001,-1.6516117,0.023936402000000002
-6.592085000000001,-1.6516117,0.023936402000000002
-6.592085000000001,-1.6516117,0.023936402000000002
-15.151742,-3.3271596,0.062234644000000006
-15.151742,-3.3271596,0.062234644000000006
-15.151742,-3.3271596,0.062234644000000006
-15.151742,-3.3271596,0.062234644000000006
-13.543216000000001,-5.28037,3.7388659
-13.543216000000001,-5.28037,3.7388659
-13.543216000000001,-5.28037,3.7388659
-13.543216000000001,-5.28037,3.7388659
-11.791071,-2.9633265,1.5175678999999997
-11.791071,-2.9633265,1.5175678999999997
-11.791071,-2.9633265,1.5175678999999997
-11.791071,-2.9633265,1.5175678999999997
-8.918703,-1.9101248,1.14416
-8.918703,-1.9101248,1.14416
-8.918703,-1.9101248,1.14416
-8.918703,-1.9101248,1.14416
-6.3718699999999995,-1.4792696,3.3080106
-6.3718699999999995,-1.4792696,3.3080106
-6.3718699999999995,-1.4792696,3.3080106
-6.3718699999999995,-1.4792696,3.3080106
-6.525062999999999,-4.045252,2.4845984
-6.525062999999999,-4.045252,2.4845984
-6.525062999999999,-4.045252,2.4845984
-9.483603,-3.5282254,1.6994845
-9.483603,-3.5282254,1.6994845
-9.483603,-3.5282254,1.6994845
-9.483603,-3.5282254,1.6994845
-9.483603,-3.5282254,1.6994845
-13.188957,-2.1399142999999996,2.6856642
-13.188957,-2.1399142999999996,2.6856642
-13.188957,-2.1399142999999996,2.6856642
-12.030436,-2.3888528,2.2069361
-12.030436,-2.3888528,2.2069361
-12.030436,-2.3888528,2.2069361
-12.030436,-2.3888528,2.2069361
-11.858092999999998,-3.6622693999999996,0.2154276
-11.858092999999998,-3.6622693999999996,0.2154276
-11.858092999999998,-3.6622693999999996,0.2154276
-11.858092999999998,-3.6622693999999996,0.2154276
-11.858092999999998,-3.6622693999999996,0.2154276
-11.025106,-3.3367343000000003,-1.1920328000000002
-11.025106,-3.3367343000000003,-1.1920328000000002
-11.025106,-3.3367343000000003,-1.1920328000000002
-9.339984,-1.6611862000000002,-0.22500217
-9.339984,-1.6611862000000002,-0.22500217
-9.339984,-1.6611862000000002,-0.22500217
-9.339984,-1.6611862000000002,-0.22500217
-10.71872,-1.7952299999999999,0.014361841
-10.71872,-1.7952299999999999,0.014361841
-10.71872,-1.7952299999999999,0.014361841
-10.71872,-1.7952299999999999,0.014361841
-10.71872,-1.7952299999999999,0.014361841
-10.345312,-1.3739493999999999,-0.8856468000000001
-10.345312,-1.3739493999999999,-0.8856468000000001
-10.345312,-1.3739493999999999,-0.8856468000000001
-10.345312,-1.3739493999999999,-0.8856468000000001
-9.435728999999998,-1.2782038,0.17712937
-9.435728999999998,-1.2782038,0.17712937
-9.435728999999998,-1.2782038,0.17712937
-9.943181,-2.5324712000000003,-0.23457673
-9.943181,-2.5324712000000003,-0.23457673
-9.943181,-2.5324712000000003,-0.23457673
-9.943181,-2.5324712000000003,-0.23457673
-7.664436,-3.4037561000000003,0.4164934
-7.664436,-3.4037561000000003,0.4164934
-7.664436,-3.4037561000000003,0.4164934
-7.664436,-3.4037561000000003,0.4164934
-6.2282515,-2.5994933,2.8963046
-6.2282515,-2.5994933,2.8963046
-6.2282515,-2.5994933,2.8963046
-6.2282515,-2.5994933,2.8963046
-8.372953,-1.9292740000000002,3.451629
-8.372953,-1.9292740000000002,3.451629
-8.372953,-1.9292740000000002,3.451629
-8.372953,-1.9292740000000002,3.451629
-8.641041,-1.2016073,5.108028
-8.641041,-1.2016073,5.108028
-8.641041,-1.2016073,5.108028
-8.641041,-1.2016073,5.108028
-8.564445,-1.1920328000000002,5.232497
-8.564445,-1.1920328000000002,5.232497
-8.564445,-1.1920328000000002,5.232497
-8.018694,-2.494173,4.045252
-8.018694,-2.494173,4.045252
-8.018694,-2.494173,4.045252
-8.018694,-2.494173,4.045252
-6.285699,-3.5473747,3.1260939999999997
-6.285699,-3.5473747,3.1260939999999997
-6.285699,-3.5473747,3.1260939999999997
-6.285699,-3.5473747,3.1260939999999997
-6.285699,-3.5473747,3.1260939999999997
-6.1420803,-1.4601203999999999,2.561195
-6.1420803,-1.4601203999999999,2.561195
-6.1420803,-1.4601203999999999,2.561195
-6.1420803,-1.4601203999999999,2.561195
-7.721883,-1.0005416,3.4707782
-7.721883,-1.0005416,3.4707782
-7.721883,-1.0005416,3.4707782
-14.251732999999998,-3.3750327000000007,2.034594
-14.251732999999998,-3.3750327000000007,2.034594
-14.251732999999998,-3.3750327000000007,2.034594
-14.251732999999998,-3.3750327000000007,2.034594
-14.251732999999998,-3.3750327000000007,2.034594
-19.441145000000002,-3.5952474999999997,1.4026731000000001
-19.441145000000002,-3.5952474999999997,1.4026731000000001
-19.441145000000002,-3.5952474999999997,1.4026731000000001
-19.441145000000002,-3.5952474999999997,1.4026731000000001
-11.522984,-2.101616,1.2016073
-11.522984,-2.101616,1.2016073
-11.522984,-2.101616,1.2016073
-6.218677,-1.2686293,0.6558574
-6.218677,-1.2686293,0.6558574
-6.218677,-1.2686293,0.6558574
-6.218677,-1.2686293,0.6558574
-6.218677,-1.2686293,0.6558574
-3.8154623999999995,-1.2973529,0.45479164
-3.8154623999999995,-1.2973529,0.45479164
-3.8154623999999995,-1.2973529,0.45479164
-3.8154623999999995,-1.2973529,0.45479164
-4.4856815,-1.9675721999999998,0.25372586
-4.4856815,-1.9675721999999998,0.25372586
-4.4856815,-1.9675721999999998,0.25372586
-4.4856815,-1.9675721999999998,0.25372586
-7.329325999999999,-2.2835326,0.43564250000000004
-7.329325999999999,-2.2835326,0.43564250000000004
-7.329325999999999,-2.2835326,0.43564250000000004
-7.329325999999999,-2.2835326,0.43564250000000004
-10.689997,-2.5228968,1.4792696
-10.689997,-2.5228968,1.4792696
-10.689997,-2.5228968,1.4792696
-10.689997,-2.5228968,1.4792696
-12.719804,-4.294190400000001,3.0686467
-12.719804,-4.294190400000001,3.0686467
-12.719804,-4.294190400000001,3.0686467
-12.719804,-4.294190400000001,3.0686467
-10.871913000000001,-2.905879,3.4612036
-10.871913000000001,-2.905879,3.4612036
-10.871913000000001,-2.905879,3.4612036
-10.871913000000001,-2.905879,3.4612036
-8.2676325,-1.7282081999999999,1.5175678999999997
-8.2676325,-1.7282081999999999,1.5175678999999997
-8.2676325,-1.7282081999999999,1.5175678999999997
-8.2676325,-1.7282081999999999,1.5175678999999997
-7.9133744,-0.6558574,2.4654493
-7.9133744,-0.6558574,2.4654493
-7.9133744,-0.6558574,2.4654493
-7.9133744,-0.6558574,2.4654493
-8.861256,-3.1165195,2.7622607000000006
-8.861256,-3.1165195,2.7622607000000006
-8.861256,-3.1165195,2.7622607000000006
-8.861256,-3.1165195,2.7622607000000006
-12.825124,-6.5346375,1.0388398
-12.825124,-6.5346375,1.0388398
-12.825124,-6.5346375,1.0388398
-12.825124,-6.5346375,1.0388398
-18.723053,-6.6016593,0.9526688
-18.723053,-6.6016593,0.9526688
-18.723053,-6.6016593,0.9526688
-18.723053,-6.6016593,0.9526688
-12.403843,-0.93351966,1.9675721999999998
-12.403843,-0.93351966,1.9675721999999998
-12.403843,-0.93351966,1.9675721999999998
-12.403843,-0.93351966,1.9675721999999998
-12.403843,-0.93351966,1.9675721999999998
-8.727212,-0.54096264,2.5803439999999997
-8.727212,-0.54096264,2.5803439999999997
-8.727212,-0.54096264,2.5803439999999997
-5.7208,-1.0771381000000002,2.7239625
-5.7208,-1.0771381000000002,2.7239625
-5.7208,-1.0771381000000002,2.7239625
-5.7208,-1.0771381000000002,2.7239625
-3.9495062999999995,-2.0824668,0.7228793
-3.9495062999999995,-2.0824668,0.7228793
-3.9495062999999995,-2.0824668,0.7228793
-3.9495062999999995,-2.0824668,0.7228793
-10.919786,-2.8388572,0.081383765
-10.919786,-2.8388572,0.081383765
-10.919786,-2.8388572,0.081383765
-10.919786,-2.8388572,0.081383765
-16.252817,-2.2165107999999996,0.56968635
-16.252817,-2.2165107999999996,0.56968635
-16.252817,-2.2165107999999996,0.56968635
-16.252817,-2.2165107999999996,0.56968635
-11.331491999999999,-5.2516465,2.88673
-11.331491999999999,-5.2516465,2.88673
-11.331491999999999,-5.2516465,2.88673
-11.331491999999999,-5.2516465,2.88673
-5.4239883,-2.9346027,2.752686
-5.4239883,-2.9346027,2.752686
-5.4239883,-2.9346027,2.752686
-5.4239883,-2.9346027,2.752686
-7.176133,-3.4995019999999997,0.3111732
-7.176133,-3.4995019999999997,0.3111732
-7.176133,-3.4995019999999997,0.3111732
-7.176133,-3.4995019999999997,0.3111732
-5.462287,0.23457673,1.3643749
-5.462287,0.23457673,1.3643749
-5.462287,0.23457673,1.3643749
-5.462287,0.23457673,1.3643749
-5.8261199999999995,-0.40691882,4.255892299999999
-5.8261199999999995,-0.40691882,4.255892299999999
-5.8261199999999995,-0.40691882,4.255892299999999
-5.8261199999999995,-0.40691882,4.255892299999999
-5.8261199999999995,-0.40691882,4.255892299999999
-13.974070999999999,-4.868664,4.1122737
-13.974070999999999,-4.868664,4.1122737
-13.974070999999999,-4.868664,4.1122737
-19.603912,-4.96441,2.5228968
-19.603912,-4.96441,2.5228968
-19.603912,-4.96441,2.5228968
-19.603912,-4.96441,2.5228968
-12.69108,-0.9430941999999999,2.5228968
-12.69108,-0.9430941999999999,2.5228968
-12.69108,-0.9430941999999999,2.5228968
-12.69108,-0.9430941999999999,2.5228968
-12.69108,-0.9430941999999999,2.5228968
-8.593167999999999,0.22500217,2.5516202
-8.593167999999999,0.22500217,2.5516202
-8.593167999999999,0.22500217,2.5516202
-5.9314404000000005,-0.8856468000000001,1.1920328000000002
-5.9314404000000005,-0.8856468000000001,1.1920328000000002
-5.9314404000000005,-0.8856468000000001,1.1920328000000002
-5.9314404000000005,-0.8856468000000001,1.1920328000000002
-7.089962,-1.1633091,-1.0292653
-7.089962,-1.1633091,-1.0292653
-7.089962,-1.1633091,-1.0292653
-7.089962,-1.1633091,-1.0292653
-7.089962,-1.1633091,-1.0292653
-11.005958,-2.015445,-0.85692316
-11.005958,-2.015445,-0.85692316
-11.005958,-2.015445,-0.85692316
-11.005958,-2.015445,-0.85692316
-9.904882,-4.1888704,0.09095833
-9.904882,-4.1888704,0.09095833
-9.904882,-4.1888704,0.09095833
-7.8367777,-4.696322,1.6994845
-7.8367777,-4.696322,1.6994845
-7.8367777,-4.696322,1.6994845
-7.8367777,-4.696322,1.6994845
-7.8367777,-4.696322,1.6994845
-6.850598,-3.5090763999999997,3.4707782
-6.850598,-3.5090763999999997,3.4707782
-6.850598,-3.5090763999999997,3.4707782
-6.850598,-3.5090763999999997,3.4707782
-6.869747,-1.4601203999999999,1.0196906
-6.869747,-1.4601203999999999,1.0196906
-6.869747,-1.4601203999999999,1.0196906
-6.5825105,-1.0771381000000002,1.7952299999999999
-6.5825105,-1.0771381000000002,1.7952299999999999
-6.5825105,-1.0771381000000002,1.7952299999999999
-6.5825105,-1.0771381000000002,1.7952299999999999
-6.5825105,-1.0771381000000002,1.7952299999999999
-8.755936,-2.1782124,3.9686553
-8.755936,-2.1782124,3.9686553
-8.755936,-2.1782124,3.9686553
-8.755936,-2.1782124,3.9686553
-16.540052,-1.5750152,4.131423000000001
-16.540052,-1.5750152,4.131423000000001
-16.540052,-1.5750152,4.131423000000001
-18.378368,-3.039923,2.6952388
-18.378368,-3.039923,2.6952388
-18.378368,-3.039923,2.6952388
-18.378368,-3.039923,2.6952388
-18.378368,-3.039923,2.6952388
-9.215514,-3.5856729,1.4026731000000001
-9.215514,-3.5856729,1.4026731000000001
-9.215514,-3.5856729,1.4026731000000001
-9.215514,-3.5856729,1.4026731000000001
-6.400593799999999,-2.1399142999999996,1.3260766000000002
-6.400593799999999,-2.1399142999999996,1.3260766000000002
-6.400593799999999,-2.1399142999999996,1.3260766000000002
-6.400593799999999,-2.1399142999999996,1.3260766000000002
-4.2271686,-1.2877783999999999,1.4888442
-4.2271686,-1.2877783999999999,1.4888442
-4.2271686,-1.2877783999999999,1.4888442
-4.2271686,-1.2877783999999999,1.4888442
-5.347392,-1.4313968000000001,0.28244954
-5.347392,-1.4313968000000001,0.28244954
-5.347392,-1.4313968000000001,0.28244954
-5.347392,-1.4313968000000001,0.28244954
-9.225089,-2.1782124,0.043085523
-9.225089,-2.1782124,0.043085523
-9.225089,-2.1782124,0.043085523
-9.225089,-2.1782124,0.043085523
-12.595334,-2.666515,0.54096264
-12.595334,-2.666515,0.54096264
-12.595334,-2.666515,0.54096264
-12.595334,-2.666515,0.54096264
-14.395351000000002,-5.289944599999999,1.5079931999999998
-14.395351000000002,-5.289944599999999,1.5079931999999998
-14.395351000000002,-5.289944599999999,1.5079931999999998
-14.395351000000002,-5.289944599999999,1.5079931999999998
-10.709146,-4.466532,1.7952299999999999
-10.709146,-4.466532,1.7952299999999999
-10.709146,-4.466532,1.7952299999999999
-10.709146,-4.466532,1.7952299999999999
-5.567607,-2.3792782000000003,3.1643922000000004
-5.567607,-2.3792782000000003,3.1643922000000004
-5.567607,-2.3792782000000003,3.1643922000000004
-5.567607,-2.3792782000000003,3.1643922000000004
-0.27287498,-0.42606795,4.428234
-0.27287498,-0.42606795,4.428234
-0.27287498,-0.42606795,4.428234
-0.27287498,-0.42606795,4.428234
-1.1633091,-1.0101161,4.0069537
-1.1633091,-1.0101161,4.0069537
-1.1633091,-1.0101161,4.0069537
-1.1633091,-1.0101161,4.0069537
-12.758101,-1.8909756999999998,0.7420284
-12.758101,-1.8909756999999998,0.7420284
-12.758101,-1.8909756999999998,0.7420284
-12.758101,-1.8909756999999998,0.7420284
-18.608158,-4.1984449999999995,1.6994845
-18.608158,-4.1984449999999995,1.6994845
-18.608158,-4.1984449999999995,1.6994845
-18.608158,-4.1984449999999995,1.6994845
-7.0037910000000005,-2.2069361,1.9867213
-7.0037910000000005,-2.2069361,1.9867213
-7.0037910000000005,-2.2069361,1.9867213
-7.0037910000000005,-2.2069361,1.9867213
-7.855927,-1.7282081999999999,0.665432
-7.855927,-1.7282081999999999,0.665432
-7.855927,-1.7282081999999999,0.665432
-7.855927,-1.7282081999999999,0.665432
-18.675179999999997,-4.954835,-2.3122563
-18.675179999999997,-4.954835,-2.3122563
-18.675179999999997,-4.954835,-2.3122563
-18.675179999999997,-4.954835,-2.3122563
-10.862339,-5.395264599999999,0.9430941999999999
-10.862339,-5.395264599999999,0.9430941999999999
-10.862339,-5.395264599999999,0.9430941999999999
-10.862339,-5.395264599999999,0.9430941999999999
-8.487848,-2.0920415,2.2069361
-8.487848,-2.0920415,2.2069361
-8.487848,-2.0920415,2.2069361
-8.487848,-2.0920415,2.2069361
-7.2623043,-0.6271336999999999,1.5654407
-7.2623043,-0.6271336999999999,1.5654407
-7.2623043,-0.6271336999999999,1.5654407
-7.2623043,-0.6271336999999999,1.5654407
-7.2623043,-0.6271336999999999,1.5654407
-5.653778,-1.3930986,2.5707695
-5.653778,-1.3930986,2.5707695
-5.653778,-1.3930986,2.5707695
-3.2505634,-3.2505634,2.1399142999999996
-3.2505634,-3.2505634,2.1399142999999996
-3.2505634,-3.2505634,2.1399142999999996
-3.2505634,-3.2505634,2.1399142999999996
-6.8027253,-3.7675896,2.1877869999999997
-6.8027253,-3.7675896,2.1877869999999997
-6.8027253,-3.7675896,2.1877869999999997
-6.8027253,-3.7675896,2.1877869999999997
-6.8027253,-3.7675896,2.1877869999999997
-16.329411999999998,-3.7388659,0.20585304
-16.329411999999998,-3.7388659,0.20585304
-16.329411999999998,-3.7388659,0.20585304
-19.603912,-4.342063,-1.4984187
-19.603912,-4.342063,-1.4984187
-19.603912,-4.342063,-1.4984187
-19.603912,-4.342063,-1.4984187
-12.614484,-1.5654407,-0.043085523
-12.614484,-1.5654407,-0.043085523
-12.614484,-1.5654407,-0.043085523
-12.614484,-1.5654407,-0.043085523
-12.614484,-1.5654407,-0.043085523
-7.319751299999999,-2.8197080000000003,0.043085523
-7.319751299999999,-2.8197080000000003,0.043085523
-7.319751299999999,-2.8197080000000003,0.043085523
-4.4856815,-3.0016246,-0.91437054
-4.4856815,-3.0016246,-0.91437054
-4.4856815,-3.0016246,-0.91437054
-4.4856815,-3.0016246,-0.91437054
-5.634629,-2.972901,-1.0292653
-5.634629,-2.972901,-1.0292653
-5.634629,-2.972901,-1.0292653
-5.634629,-2.972901,-1.0292653
-5.634629,-2.972901,-1.0292653
-10.986808,-2.2260852000000004,-0.8664976999999999
-10.986808,-2.2260852000000004,-0.8664976999999999
-10.986808,-2.2260852000000004,-0.8664976999999999
-10.986808,-2.2260852000000004,-0.8664976999999999
-11.072979,-1.0196906,0.16755481
-11.072979,-1.0196906,0.16755481
-11.072979,-1.0196906,0.16755481
-8.947427000000001,-2.714388,3.2792869
-8.947427000000001,-2.714388,3.2792869
-8.947427000000001,-2.714388,3.2792869
-8.947427000000001,-2.714388,3.2792869
-8.947427000000001,-2.714388,3.2792869
-9.41658,-4.8782387,0.63670826
-9.41658,-4.8782387,0.63670826
-9.41658,-4.8782387,0.63670826
-9.41658,-4.8782387,0.63670826
-8.353804,-2.7048132000000003,1.0196906
-8.353804,-2.7048132000000003,1.0196906
-8.353804,-2.7048132000000003,1.0196906
-7.894225,-1.1824582000000001,2.9824755
-7.894225,-1.1824582000000001,2.9824755
-7.894225,-1.1824582000000001,2.9824755
-7.894225,-1.1824582000000001,2.9824755
-7.894225,-1.1824582000000001,2.9824755
-8.497422,-1.6994845,3.451629
-8.497422,-1.6994845,3.451629
-8.497422,-1.6994845,3.451629
-8.497422,-1.6994845,3.451629
-8.937852000000001,-1.9196993000000002,2.5994933
-8.937852000000001,-1.9196993000000002,2.5994933
-8.937852000000001,-1.9196993000000002,2.5994933
-8.937852000000001,-1.9196993000000002,2.5994933
-10.689997,-2.6186423,1.5462915000000002
-10.689997,-2.6186423,1.5462915000000002
-10.689997,-2.6186423,1.5462915000000002
-10.689997,-2.6186423,1.5462915000000002
-11.475111,-2.9537517999999996,1.7473572
-11.475111,-2.9537517999999996,1.7473572
-11.475111,-2.9537517999999996,1.7473572
-11.867668,-3.3367343000000003,0.751603
-11.867668,-3.3367343000000003,0.751603
-11.867668,-3.3367343000000003,0.751603
-11.867668,-3.3367343000000003,0.751603
-10.105948,-2.5803439999999997,-0.32074776
-10.105948,-2.5803439999999997,-0.32074776
-10.105948,-2.5803439999999997,-0.32074776
-10.105948,-2.5803439999999997,-0.32074776
-6.9942164,-1.1537346000000002,0.3877697
-6.9942164,-1.1537346000000002,0.3877697
-6.9942164,-1.1537346000000002,0.3877697
-6.9942164,-1.1537346000000002,0.3877697
-6.9942164,-1.1537346000000002,0.3877697
-7.434646000000001,-1.7282081999999999,0.71330476
-7.434646000000001,-1.7282081999999999,0.71330476
-7.434646000000001,-1.7282081999999999,0.71330476
-7.022939999999999,-1.8335283,-0.3111732
-7.022939999999999,-1.8335283,-0.3111732
-7.022939999999999,-1.8335283,-0.3111732
-7.022939999999999,-1.8335283,-0.3111732
-5.8261199999999995,-1.4313968000000001,-0.18670394
-5.8261199999999995,-1.4313968000000001,-0.18670394
-5.8261199999999995,-1.4313968000000001,-0.18670394
-5.8261199999999995,-1.4313968000000001,-0.18670394
-5.634629,-1.7569318999999999,-0.17712937
-5.634629,-1.7569318999999999,-0.17712937
-5.634629,-1.7569318999999999,-0.17712937
-5.634629,-1.7569318999999999,-0.17712937
-9.158066999999999,-3.4612036,1.1633091
-9.158066999999999,-3.4612036,1.1633091
-9.158066999999999,-3.4612036,1.1633091
-9.158066999999999,-3.4612036,1.1633091
-14.740035999999998,-4.3133397,2.015445
-14.740035999999998,-4.3133397,2.015445
-14.740035999999998,-4.3133397,2.015445
-14.740035999999998,-4.3133397,2.015445
-10.546378,-2.34098,5.0601554
-10.546378,-2.34098,5.0601554
-10.546378,-2.34098,5.0601554
-10.546378,-2.34098,5.0601554
-7.051664,-1.2590546999999999,3.9399316
-7.051664,-1.2590546999999999,3.9399316
-7.051664,-1.2590546999999999,3.9399316
-7.051664,-1.2590546999999999,3.9399316
-5.021857,-1.7186337,2.88673
-5.021857,-1.7186337,2.88673
-5.021857,-1.7186337,2.88673
-5.021857,-1.7186337,2.88673
-6.4963393,-2.4175766,3.3941817000000003
-6.4963393,-2.4175766,3.3941817000000003
-6.4963393,-2.4175766,3.3941817000000003
-6.4963393,-2.4175766,3.3941817000000003
-8.899554,-4.246317400000001,3.3654580000000003
-8.899554,-4.246317400000001,3.3654580000000003
-8.899554,-4.246317400000001,3.3654580000000003
-18.091131,-4.6388745,2.149489
-18.091131,-4.6388745,2.149489
-18.091131,-4.6388745,2.149489
-18.091131,-4.6388745,2.149489
-18.091131,-4.6388745,2.149489
-15.94643,-0.110107444,1.6037389
-15.94643,-0.110107444,1.6037389
-15.94643,-0.110107444,1.6037389
-15.94643,-0.110107444,1.6037389
-9.167641999999999,-0.78990126,2.5420458
-9.167641999999999,-0.78990126,2.5420458
-9.167641999999999,-0.78990126,2.5420458
-5.414414,-2.4845984,0.4164934
-5.414414,-2.4845984,0.4164934
-5.414414,-2.4845984,0.4164934
-5.414414,-2.4845984,0.4164934
-5.414414,-2.4845984,0.4164934
-4.3612123,-2.2452345,-0.30159867
-4.3612123,-2.2452345,-0.30159867
-4.3612123,-2.2452345,-0.30159867
-4.3612123,-2.2452345,-0.30159867
-7.128260000000001,-2.015445,-0.6845810999999999
-7.128260000000001,-2.015445,-0.6845810999999999
-7.128260000000001,-2.015445,-0.6845810999999999
-8.995299000000001,-1.1728836,0.3111732
-8.995299000000001,-1.1728836,0.3111732
-8.995299000000001,-1.1728836,0.3111732
-8.995299000000001,-1.1728836,0.3111732
-8.995299000000001,-1.1728836,0.3111732
-13.141085,-3.1835412999999995,0.83777404
-13.141085,-3.1835412999999995,0.83777404
-13.141085,-3.1835412999999995,0.83777404
-9.215514,-5.9218655,3.5760984
-9.215514,-5.9218655,3.5760984
-9.215514,-5.9218655,3.5760984
-9.215514,-5.9218655,3.5760984
-6.5537868,-2.6856642,2.1782124
-6.5537868,-2.6856642,2.1782124
-6.5537868,-2.6856642,2.1782124
-6.5537868,-2.6856642,2.1782124
-6.984642,-1.0005416,1.1824582000000001
-6.984642,-1.0005416,1.1824582000000001
-6.984642,-1.0005416,1.1824582000000001
-6.984642,-1.0005416,1.1824582000000001
-6.984642,-1.0005416,1.1824582000000001
-8.487848,-0.98139244,2.6952388
-8.487848,-0.98139244,2.6952388
-8.487848,-0.98139244,2.6952388
-13.907048999999999,-3.6622693999999996,4.1122737
-13.907048999999999,-3.6622693999999996,4.1122737
-13.907048999999999,-3.6622693999999996,4.1122737
-13.907048999999999,-3.6622693999999996,4.1122737
-14.012369,-4.9739842,2.6186423
-14.012369,-4.9739842,2.6186423
-14.012369,-4.9739842,2.6186423
-14.012369,-4.9739842,2.6186423
-14.012369,-4.9739842,2.6186423
-11.915541000000001,-2.3314054,1.8335283
-11.915541000000001,-2.3314054,1.8335283
-11.915541000000001,-2.3314054,1.8335283
-9.435728999999998,-1.1728836,2.666515
-9.435728999999998,-1.1728836,2.666515
-9.435728999999998,-1.1728836,2.666515
-9.435728999999998,-1.1728836,2.666515
-9.435728999999998,-1.1728836,2.666515
-6.0750585,-0.9622433000000001,2.513322
-6.0750585,-0.9622433000000001,2.513322
-6.0750585,-0.9622433000000001,2.513322
-7.9133744,-1.3356511999999998,0.11968201
-7.9133744,-1.3356511999999998,0.11968201
-7.9133744,-1.3356511999999998,0.11968201
-7.9133744,-1.3356511999999998,0.11968201
-13.160233499999999,-2.7622607000000006,-0.03351096
-13.160233499999999,-2.7622607000000006,-0.03351096
-13.160233499999999,-2.7622607000000006,-0.03351096
-13.160233499999999,-2.7622607000000006,-0.03351096
-10.737869,-5.347392,1.14416
-10.737869,-5.347392,1.14416
-10.737869,-5.347392,1.14416
-10.737869,-5.347392,1.14416
-4.811217,-3.3367343000000003,2.6377914000000002
-4.811217,-3.3367343000000003,2.6377914000000002
-4.811217,-3.3367343000000003,2.6377914000000002
-4.811217,-3.3367343000000003,2.6377914000000002
-4.8878129999999995,-2.0728923999999997,0.61755913
-4.8878129999999995,-2.0728923999999997,0.61755913
-4.8878129999999995,-2.0728923999999997,0.61755913
-4.8878129999999995,-2.0728923999999997,0.61755913
-5.960164,-1.2782038,1.0484143
-5.960164,-1.2782038,1.0484143
-5.960164,-1.2782038,1.0484143
-9.454879,-2.101616,1.6037389
-9.454879,-2.101616,1.6037389
-9.454879,-2.101616,1.6037389
-9.454879,-2.101616,1.6037389
-15.984729000000002,-4.476107,2.7431116
-15.984729000000002,-4.476107,2.7431116
-15.984729000000002,-4.476107,2.7431116
-15.984729000000002,-4.476107,2.7431116
-12.375119,-1.6037389,1.5079931999999998
-12.375119,-1.6037389,1.5079931999999998
-12.375119,-1.6037389,1.5079931999999998
-12.375119,-1.6037389,1.5079931999999998
-12.375119,-1.6037389,1.5079931999999998
-8.210186,0.081383765,3.0686467
-8.210186,0.081383765,3.0686467
-8.210186,0.081383765,3.0686467
-5.8548436,-1.9675721999999998,1.5845897
-5.8548436,-1.9675721999999998,1.5845897
-5.8548436,-1.9675721999999998,1.5845897
-5.8548436,-1.9675721999999998,1.5845897
-4.236743,-2.733537,0.6845810999999999
-4.236743,-2.733537,0.6845810999999999
-4.236743,-2.733537,0.6845810999999999
-4.236743,-2.733537,0.6845810999999999
-9.560199,-2.9441773999999996,0.7994758000000001
-9.560199,-2.9441773999999996,0.7994758000000001
-9.560199,-2.9441773999999996,0.7994758000000001
-9.560199,-2.9441773999999996,0.7994758000000001
-14.012369,-4.0931244,1.4601203999999999
-14.012369,-4.0931244,1.4601203999999999
-14.012369,-4.0931244,1.4601203999999999
-14.012369,-4.0931244,1.4601203999999999
-9.904882,-4.0548263,3.1643922000000004
-9.904882,-4.0548263,3.1643922000000004
-9.904882,-4.0548263,3.1643922000000004
-9.904882,-4.0548263,3.1643922000000004
-0.512239,-1.7952299999999999,3.039923
-0.512239,-1.7952299999999999,3.039923
-0.512239,-1.7952299999999999,3.039923
-6.1229315,-1.0196906,1.1728836
-6.1229315,-1.0196906,1.1728836
-6.1229315,-1.0196906,1.1728836
-6.1229315,-1.0196906,1.1728836
-6.1229315,-1.0196906,1.1728836
-19.000715,-2.5994933,-1.0771381000000002
-19.000715,-2.5994933,-1.0771381000000002
-19.000715,-2.5994933,-1.0771381000000002
-12.920869,-2.2643836,1.4984187
-12.920869,-2.2643836,1.4984187
-12.920869,-2.2643836,1.4984187
-12.920869,-2.2643836,1.4984187
-6.5729356,-2.360129,2.3888528
-6.5729356,-2.360129,2.3888528
-6.5729356,-2.360129,2.3888528
-6.5729356,-2.360129,2.3888528
-3.6239712,-2.8963046,-0.2920241
-3.6239712,-2.8963046,-0.2920241
-3.6239712,-2.8963046,-0.2920241
-3.6239712,-2.8963046,-0.2920241
-8.047417999999999,-2.5803439999999997,-1.1824582000000001
-8.047417999999999,-2.5803439999999997,-1.1824582000000001
-8.047417999999999,-2.5803439999999997,-1.1824582000000001
-8.047417999999999,-2.5803439999999997,-1.1824582000000001
-14.299605999999999,-3.4612036,1.5271424
-14.299605999999999,-3.4612036,1.5271424
-14.299605999999999,-3.4612036,1.5271424
-11.532558,-2.972901,4.8782387
-11.532558,-2.972901,4.8782387
-11.532558,-2.972901,4.8782387
-11.532558,-2.972901,4.8782387
-11.532558,-2.972901,4.8782387
-4.83994,-1.1058618,3.3367343000000003
-4.83994,-1.1058618,3.3367343000000003
-4.83994,-1.1058618,3.3367343000000003
-2.1207652,-1.383524,2.2931072999999995
-2.1207652,-1.383524,2.2931072999999995
-2.1207652,-1.383524,2.2931072999999995
-2.1207652,-1.383524,2.2931072999999995
-8.018694,-2.6856642,1.5750152
-8.018694,-2.6856642,1.5750152
-8.018694,-2.6856642,1.5750152
-8.018694,-2.6856642,1.5750152
-19.230504999999997,-5.6633525,0.6271336999999999
-19.230504999999997,-5.6633525,0.6271336999999999
-19.230504999999997,-5.6633525,0.6271336999999999
-19.230504999999997,-5.6633525,0.6271336999999999
-10.259142,-2.8580062,-0.5505372
-10.259142,-2.8580062,-0.5505372
-10.259142,-2.8580062,-0.5505372
-10.259142,-2.8580062,-0.5505372
-6.314422599999999,-1.9867213,1.0867126
-6.314422599999999,-1.9867213,1.0867126
-6.314422599999999,-1.9867213,1.0867126
-6.314422599999999,-1.9867213,1.0867126
-5.672927,-4.1409974,0.8473485999999999
-5.672927,-4.1409974,0.8473485999999999
-5.672927,-4.1409974,0.8473485999999999
-5.672927,-4.1409974,0.8473485999999999
-9.158066999999999,-3.7388659,-0.0718092
-9.158066999999999,-3.7388659,-0.0718092
-9.158066999999999,-3.7388659,-0.0718092
-9.158066999999999,-3.7388659,-0.0718092
-19.603912,-2.3314054,-1.8143792
-19.603912,-2.3314054,-1.8143792
-19.603912,-2.3314054,-1.8143792
-19.603912,-2.3314054,-1.8143792
-12.537887,-2.4367256,2.9537517999999996
-12.537887,-2.4367256,2.9537517999999996
-12.537887,-2.4367256,2.9537517999999996
-12.537887,-2.4367256,2.9537517999999996
-6.668680999999999,-2.2356597999999996,1.5654407
-6.668680999999999,-2.2356597999999996,1.5654407
-6.668680999999999,-2.2356597999999996,1.5654407
-4.322914,-2.752686,-0.512239
-4.322914,-2.752686,-0.512239
-4.322914,-2.752686,-0.512239
-4.322914,-2.752686,-0.512239
-4.322914,-2.752686,-0.512239
-4.2271686,-2.0537431,0.014361841
-4.2271686,-2.0537431,0.014361841
-4.2271686,-2.0537431,0.014361841
-9.684667999999999,-3.193116,0.48351530000000004
-9.684667999999999,-3.193116,0.48351530000000004
-9.684667999999999,-3.193116,0.48351530000000004
-9.684667999999999,-3.193116,0.48351530000000004
-15.525148999999999,-3.059072,0.34947145
-15.525148999999999,-3.059072,0.34947145
-15.525148999999999,-3.059072,0.34947145
-15.525148999999999,-3.059072,0.34947145
-14.548545,-2.7048132000000003,0.3398969
-14.548545,-2.7048132000000003,0.3398969
-14.548545,-2.7048132000000003,0.3398969
-14.548545,-2.7048132000000003,0.3398969
-9.62722,-2.6569404999999997,-1.0005416
-9.62722,-2.6569404999999997,-1.0005416
-9.62722,-2.6569404999999997,-1.0005416
-9.62722,-2.6569404999999997,-1.0005416
-8.104865,-1.9292740000000002,0.43564250000000004
-8.104865,-1.9292740000000002,0.43564250000000004
-8.104865,-1.9292740000000002,0.43564250000000004
-8.104865,-1.9292740000000002,0.43564250000000004
-9.158066999999999,-1.4505458999999998,1.4218222
-9.158066999999999,-1.4505458999999998,1.4218222
-9.158066999999999,-1.4505458999999998,1.4218222
-9.847435,-0.665432,0.44521707
-9.847435,-0.665432,0.44521707
-9.847435,-0.665432,0.44521707
-9.847435,-0.665432,0.44521707
-9.847435,-0.665432,0.44521707
-10.19212,-1.4505458999999998,0.36862057
-10.19212,-1.4505458999999998,0.36862057
-10.19212,-1.4505458999999998,0.36862057
-10.19212,-1.4505458999999998,0.36862057
-9.933606,-2.7622607000000006,0.081383765
-9.933606,-2.7622607000000006,0.081383765
-9.933606,-2.7622607000000006,0.081383765
-9.933606,-2.7622607000000006,0.081383765
-7.922949000000001,-3.1069447999999995,1.0196906
-7.922949000000001,-3.1069447999999995,1.0196906
-7.922949000000001,-3.1069447999999995,1.0196906
-7.922949000000001,-3.1069447999999995,1.0196906
-5.8548436,-2.867581,3.212265
-5.8548436,-2.867581,3.212265
-5.8548436,-2.867581,3.212265
-5.8548436,-2.867581,3.212265
-8.4686985,-2.3888528,2.8292825
-8.4686985,-2.3888528,2.8292825
-8.4686985,-2.3888528,2.8292825
-8.4686985,-2.3888528,2.8292825
-8.669764500000001,-2.015445,3.7963133
-8.669764500000001,-2.015445,3.7963133
-8.669764500000001,-2.015445,3.7963133
-8.708063000000001,-2.3792782000000003,2.8963046
-8.708063000000001,-2.3792782000000003,2.8963046
-8.708063000000001,-2.3792782000000003,2.8963046
-8.708063000000001,-2.3792782000000003,2.8963046
-7.4154973,-1.8718264999999998,3.1452432
-7.4154973,-1.8718264999999998,3.1452432
-7.4154973,-1.8718264999999998,3.1452432
-7.4154973,-1.8718264999999998,3.1452432
-6.429317500000001,-1.6994845,3.4707782
-6.429317500000001,-1.6994845,3.4707782
-6.429317500000001,-1.6994845,3.4707782
-6.429317500000001,-1.6994845,3.4707782
-6.429317500000001,-1.6994845,3.4707782
-5.8739930000000005,-2.408002,2.88673
-5.8739930000000005,-2.408002,2.88673
-5.8739930000000005,-2.408002,2.88673
-8.095291,-1.9675721999999998,2.9920502
-8.095291,-1.9675721999999998,2.9920502
-8.095291,-1.9675721999999998,2.9920502
-8.095291,-1.9675721999999998,2.9920502
-11.293194,-1.9388485,3.0111992
-11.293194,-1.9388485,3.0111992
-11.293194,-1.9388485,3.0111992
-11.293194,-1.9388485,3.0111992
-11.293194,-1.9388485,3.0111992
-16.348562,-2.0537431,2.0058703
-16.348562,-2.0537431,2.0058703
-16.348562,-2.0537431,2.0058703
-16.568776999999997,-2.2835326,1.0484143
-16.568776999999997,-2.2835326,1.0484143
-16.568776999999997,-2.2835326,1.0484143
-16.568776999999997,-2.2835326,1.0484143
-16.568776999999997,-2.2835326,1.0484143
-9.6942425,-2.5994933,0.6750065
-9.6942425,-2.5994933,0.6750065
-9.6942425,-2.5994933,0.6750065
-9.6942425,-2.5994933,0.6750065
-4.993133,-2.2643836,0.8760723
-4.993133,-2.2643836,0.8760723
-4.993133,-2.2643836,0.8760723
-2.2356597999999996,-1.2590546999999999,0.63670826
-2.2356597999999996,-1.2590546999999999,0.63670826
-2.2356597999999996,-1.2590546999999999,0.63670826
-2.2356597999999996,-1.2590546999999999,0.63670826
-2.2356597999999996,-1.2590546999999999,0.63670826
-2.8101335,-1.6324625,0.5313880999999999
-2.8101335,-1.6324625,0.5313880999999999
-2.8101335,-1.6324625,0.5313880999999999
-2.8101335,-1.6324625,0.5313880999999999
-6.726128599999999,-3.384607,0.6750065
-6.726128599999999,-3.384607,0.6750065
-6.726128599999999,-3.384607,0.6750065
-6.726128599999999,-3.384607,0.6750065
-12.719804,-3.2792869,1.2782038
-12.719804,-3.2792869,1.2782038
-12.719804,-3.2792869,1.2782038
-12.719804,-3.2792869,1.2782038
-14.66344,-3.4324798999999997,3.777164
-14.66344,-3.4324798999999997,3.777164
-14.66344,-3.4324798999999997,3.777164
-14.66344,-3.4324798999999997,3.777164
-11.321918,-3.690993,4.96441
-11.321918,-3.690993,4.96441
-11.321918,-3.690993,4.96441
-11.321918,-3.690993,4.96441
-7.1186857,-2.4558747000000003,1.9101248
-7.1186857,-2.4558747000000003,1.9101248
-7.1186857,-2.4558747000000003,1.9101248
-7.1186857,-2.4558747000000003,1.9101248
-6.3527207,-2.2165107999999996,1.5175678999999997
-6.3527207,-2.2165107999999996,1.5175678999999997
-6.3527207,-2.2165107999999996,1.5175678999999997
-6.3527207,-2.2165107999999996,1.5175678999999997
-6.6016593,-2.666515,2.9441773999999996
-6.6016593,-2.666515,2.9441773999999996
-6.6016593,-2.666515,2.9441773999999996
-6.6016593,-2.666515,2.9441773999999996
-8.909127999999999,-3.8633351,3.9112080000000002
-8.909127999999999,-3.8633351,3.9112080000000002
-8.909127999999999,-3.8633351,3.9112080000000002
-8.909127999999999,-3.8633351,3.9112080000000002
-14.864505,-4.1409974,2.867581
-14.864505,-4.1409974,2.867581
-14.864505,-4.1409974,2.867581
-14.864505,-4.1409974,2.867581
-17.631554,-1.8718264999999998,1.6324625
-17.631554,-1.8718264999999998,1.6324625
-17.631554,-1.8718264999999998,1.6324625
-17.631554,-1.8718264999999998,1.6324625
-11.436812,-1.0292653,1.5941644
-11.436812,-1.0292653,1.5941644
-11.436812,-1.0292653,1.5941644
-11.436812,-1.0292653,1.5941644
-7.6740103,-1.8909756999999998,1.9388485
-7.6740103,-1.8909756999999998,1.9388485
-7.6740103,-1.8909756999999998,1.9388485
-7.6740103,-1.8909756999999998,1.9388485
-4.3995104000000005,-1.6803354,0.9430941999999999
-4.3995104000000005,-1.6803354,0.9430941999999999
-4.3995104000000005,-1.6803354,0.9430941999999999
-4.3995104000000005,-1.6803354,0.9430941999999999
-5.845269,-1.3643749,-1.5079931999999998
-5.845269,-1.3643749,-1.5079931999999998
-5.845269,-1.3643749,-1.5079931999999998
-5.845269,-1.3643749,-1.5079931999999998
-8.937852000000001,-1.1728836,-0.70373017
-8.937852000000001,-1.1728836,-0.70373017
-8.937852000000001,-1.1728836,-0.70373017
-8.937852000000001,-1.1728836,-0.70373017
-12.442142,-4.5335545999999995,0.2920241
-12.442142,-4.5335545999999995,0.2920241
-12.442142,-4.5335545999999995,0.2920241
-12.442142,-4.5335545999999995,0.2920241
-9.75169,-5.7495236,2.1399142999999996
-9.75169,-5.7495236,2.1399142999999996
-9.75169,-5.7495236,2.1399142999999996
-9.75169,-5.7495236,2.1399142999999996
-8.4686985,-2.7431116,2.3122563
-8.4686985,-2.7431116,2.3122563
-8.4686985,-2.7431116,2.3122563
-8.4686985,-2.7431116,2.3122563
-7.4442205,-1.3739493999999999,0.63670826
-7.4442205,-1.3739493999999999,0.63670826
-7.4442205,-1.3739493999999999,0.63670826
-7.4442205,-1.3739493999999999,0.63670826
-7.693159,-0.37819514,3.0016246
-7.693159,-0.37819514,3.0016246
-7.693159,-0.37819514,3.0016246
-7.693159,-0.37819514,3.0016246
-9.483603,-1.1824582000000001,5.232497
-9.483603,-1.1824582000000001,5.232497
-9.483603,-1.1824582000000001,5.232497
-9.483603,-1.1824582000000001,5.232497
-17.650702,-3.2601378,4.648448999999999
-17.650702,-3.2601378,4.648448999999999
-17.650702,-3.2601378,4.648448999999999
-17.650702,-3.2601378,4.648448999999999
-13.859176999999999,-2.647366,1.2016073
-13.859176999999999,-2.647366,1.2016073
-13.859176999999999,-2.647366,1.2016073
-13.859176999999999,-2.647366,1.2016073
-7.310177,-0.512239,2.0824668
-7.310177,-0.512239,2.0824668
-7.310177,-0.512239,2.0824668
-7.310177,-0.512239,2.0824668
-5.3186684,-1.6420371999999999,1.0005416
-5.3186684,-1.6420371999999999,1.0005416
-5.3186684,-1.6420371999999999,1.0005416
-5.3186684,-1.6420371999999999,1.0005416
-6.1995277,-3.039923,-0.3877697
-6.1995277,-3.039923,-0.3877697
-6.1995277,-3.039923,-0.3877697
-6.1995277,-3.039923,-0.3877697
-10.891063,-3.193116,-0.12925656
-10.891063,-3.193116,-0.12925656
-10.891063,-3.193116,-0.12925656
-10.891063,-3.193116,-0.12925656
-12.978316,-2.6377914000000002,1.2973529
-12.978316,-2.6377914000000002,1.2973529
-12.978316,-2.6377914000000002,1.2973529
-12.978316,-2.6377914000000002,1.2973529
-12.978316,-2.6377914000000002,1.2973529
-9.722966,-3.4707782,3.059072
-9.722966,-3.4707782,3.059072
-9.722966,-3.4707782,3.059072
-7.2623043,-2.7239625,2.0441686999999997
-7.2623043,-2.7239625,2.0441686999999997
-7.2623043,-2.7239625,2.0441686999999997
-7.2623043,-2.7239625,2.0441686999999997
-5.108028,-0.9622433000000001,1.383524
-5.108028,-0.9622433000000001,1.383524
-5.108028,-0.9622433000000001,1.383524
-5.108028,-0.9622433000000001,1.383524
-5.108028,-0.9622433000000001,1.383524
-6.1420803,-1.6133133999999998,1.9579976000000003
-6.1420803,-1.6133133999999998,1.9579976000000003
-6.1420803,-1.6133133999999998,1.9579976000000003
-11.647452000000001,-3.6239712,2.7239625
-11.647452000000001,-3.6239712,2.7239625
-11.647452000000001,-3.6239712,2.7239625
-11.647452000000001,-3.6239712,2.7239625
-11.647452000000001,-3.6239712,2.7239625
-18.971989999999998,-3.8537605000000004,2.6569404999999997
-18.971989999999998,-3.8537605000000004,2.6569404999999997
-18.971989999999998,-3.8537605000000004,2.6569404999999997
-11.647452000000001,-2.254809,2.34098
-11.647452000000001,-2.254809,2.34098
-11.647452000000001,-2.254809,2.34098
-11.647452000000001,-2.254809,2.34098
-11.647452000000001,-2.254809,2.34098
-5.988887999999999,-0.56011176,2.5994933
-5.988887999999999,-0.56011176,2.5994933
-5.988887999999999,-0.56011176,2.5994933
-5.988887999999999,-0.56011176,2.5994933
-3.384607,-1.7952299999999999,1.8718264999999998
-3.384607,-1.7952299999999999,1.8718264999999998
-3.384607,-1.7952299999999999,1.8718264999999998
-4.7920675,-2.4558747000000003,0.63670826
-4.7920675,-2.4558747000000003,0.63670826
-4.7920675,-2.4558747000000003,0.63670826
-4.7920675,-2.4558747000000003,0.63670826
-4.7920675,-2.4558747000000003,0.63670826
-10.661273,-2.149489,-0.23457673
-10.661273,-2.149489,-0.23457673
-10.661273,-2.149489,-0.23457673
-10.661273,-2.149489,-0.23457673
-15.888982999999998,-2.9920502,0.46436617
-15.888982999999998,-2.9920502,0.46436617
-15.888982999999998,-2.9920502,0.46436617
-15.888982999999998,-2.9920502,0.46436617
-12.920869,-5.366541000000001,2.2835326
-12.920869,-5.366541000000001,2.2835326
-12.920869,-5.366541000000001,2.2835326
-12.920869,-5.366541000000001,2.2835326
-5.912291000000001,-2.3888528,1.2590546999999999
-5.912291000000001,-2.3888528,1.2590546999999999
-5.912291000000001,-2.3888528,1.2590546999999999
-5.912291000000001,-2.3888528,1.2590546999999999
-3.6335455999999997,-1.7665064,0.9526688
-3.6335455999999997,-1.7665064,0.9526688
-3.6335455999999997,-1.7665064,0.9526688
-3.6335455999999997,-1.7665064,0.9526688
-4.102699299999999,-1.6516117,1.4122477
-4.102699299999999,-1.6516117,1.4122477
-4.102699299999999,-1.6516117,1.4122477
-4.102699299999999,-1.6516117,1.4122477
-7.951672599999999,-4.1888704,3.3750327000000007
-7.951672599999999,-4.1888704,3.3750327000000007
-7.951672599999999,-4.1888704,3.3750327000000007
-7.951672599999999,-4.1888704,3.3750327000000007
-15.142167,-4.102699299999999,1.9196993000000002
-15.142167,-4.102699299999999,1.9196993000000002
-15.142167,-4.102699299999999,1.9196993000000002
-15.142167,-4.102699299999999,1.9196993000000002
-19.603912,-1.7665064,0.32074776
-19.603912,-1.7665064,0.32074776
-19.603912,-1.7665064,0.32074776
-19.603912,-1.7665064,0.32074776
-12.020861,0.47394073,1.8335283
-12.020861,0.47394073,1.8335283
-12.020861,0.47394073,1.8335283
-12.020861,0.47394073,1.8335283
-4.9835587,-1.6899098999999997,1.9771467
-4.9835587,-1.6899098999999997,1.9771467
-4.9835587,-1.6899098999999997,1.9771467
-4.9835587,-1.6899098999999997,1.9771467
-2.5420458,-2.408002,0.09095833
-2.5420458,-2.408002,0.09095833
-2.5420458,-2.408002,0.09095833
-2.5420458,-2.408002,0.09095833
-2.800559,-2.647366,-1.2016073
-2.800559,-2.647366,-1.2016073
-2.800559,-2.647366,-1.2016073
-2.800559,-2.647366,-1.2016073
-6.984642,-2.9250283,-0.70373017
-6.984642,-2.9250283,-0.70373017
-6.984642,-2.9250283,-0.70373017
-6.984642,-2.9250283,-0.70373017
-15.5060005,-3.231414,0.42606795
-15.5060005,-3.231414,0.42606795
-15.5060005,-3.231414,0.42606795
-15.5060005,-3.231414,0.42606795
-15.534723999999999,-4.0931244,3.2026904
-15.534723999999999,-4.0931244,3.2026904
-15.534723999999999,-4.0931244,3.2026904
-15.534723999999999,-4.0931244,3.2026904
-9.924032,-3.9590807,1.9101248
-9.924032,-3.9590807,1.9101248
-9.924032,-3.9590807,1.9101248
-9.924032,-3.9590807,1.9101248
-6.649532300000001,-0.9622433000000001,4.0069537
-6.649532300000001,-0.9622433000000001,4.0069537
-6.649532300000001,-0.9622433000000001,4.0069537
-6.649532300000001,-0.9622433000000001,4.0069537
-5.299519,-2.800559,4.409085299999999
-5.299519,-2.800559,4.409085299999999
-5.299519,-2.800559,4.409085299999999
-5.299519,-2.800559,4.409085299999999
-5.1176023,-2.9250283,4.8973875
-5.1176023,-2.9250283,4.8973875
-5.1176023,-2.9250283,4.8973875
-5.1176023,-2.9250283,4.8973875
-6.0846334,-0.56968635,4.6867475999999995
-6.0846334,-0.56968635,4.6867475999999995
-6.0846334,-0.56968635,4.6867475999999995
-6.0846334,-0.56968635,4.6867475999999995
-13.208105999999999,-2.7622607000000006,3.6143966
-13.208105999999999,-2.7622607000000006,3.6143966
-13.208105999999999,-2.7622607000000006,3.6143966
-13.208105999999999,-2.7622607000000006,3.6143966
-19.603912,-7.310177,1.4122477
-19.603912,-7.310177,1.4122477
-19.603912,-7.310177,1.4122477
-19.603912,-7.310177,1.4122477
-19.019865,-2.2452345,-0.63670826
-19.019865,-2.2452345,-0.63670826
-19.019865,-2.2452345,-0.63670826
-19.019865,-2.2452345,-0.63670826
-12.815549,-1.3165021000000001,-0.7994758000000001
-12.815549,-1.3165021000000001,-0.7994758000000001
-12.815549,-1.3165021000000001,-0.7994758000000001
-12.815549,-1.3165021000000001,-0.7994758000000001
-7.377198700000001,-1.8526775000000002,-0.25372586
-7.377198700000001,-1.8526775000000002,-0.25372586
-7.377198700000001,-1.8526775000000002,-0.25372586
-7.377198700000001,-1.8526775000000002,-0.25372586
-7.0133657000000005,-2.2835326,-1.6420371999999999
-7.0133657000000005,-2.2835326,-1.6420371999999999
-7.0133657000000005,-2.2835326,-1.6420371999999999
-7.0133657000000005,-2.2835326,-1.6420371999999999
-10.0868,-0.3111732,-4.476107
-10.0868,-0.3111732,-4.476107
-10.0868,-0.3111732,-4.476107
-10.0868,-0.3111732,-4.476107
-9.177217,-0.91437054,-1.2207563999999997
-9.177217,-0.91437054,-1.2207563999999997
-9.177217,-0.91437054,-1.2207563999999997
-9.177217,-0.91437054,-1.2207563999999997
-5.002708,-2.8771553,0.9430941999999999
-5.002708,-2.8771553,0.9430941999999999
-5.002708,-2.8771553,0.9430941999999999
-5.002708,-2.8771553,0.9430941999999999
-3.3463089999999998,-4.1409974,3.0111992
-3.3463089999999998,-4.1409974,3.0111992
-3.3463089999999998,-4.1409974,3.0111992
-10.058076,-2.9154537,4.868664
-10.058076,-2.9154537,4.868664
-10.058076,-2.9154537,4.868664
-10.058076,-2.9154537,4.868664
-10.058076,-2.9154537,4.868664
-13.562365,-1.3165021000000001,5.739949
-13.562365,-1.3165021000000001,5.739949
-13.562365,-1.3165021000000001,5.739949
-10.469782,-1.2399056,6.0463347
-10.469782,-1.2399056,6.0463347
-10.469782,-1.2399056,6.0463347
-10.469782,-1.2399056,6.0463347
-10.469782,-1.2399056,6.0463347
-8.5740185,-1.5941644,6.850598
-8.5740185,-1.5941644,6.850598
-8.5740185,-1.5941644,6.850598
-8.5740185,-1.5941644,6.850598
-9.876159,-1.6899098999999997,5.4335629999999995
-9.876159,-1.6899098999999997,5.4335629999999995
-9.876159,-1.6899098999999997,5.4335629999999995
-12.221927,-2.8101335,3.8824842000000004
-12.221927,-2.8101335,3.8824842000000004
-12.221927,-2.8101335,3.8824842000000004
-12.221927,-2.8101335,3.8824842000000004
-10.153821,-2.8101335,2.0920415
-10.153821,-2.8101335,2.0920415
-10.153821,-2.8101335,2.0920415
-10.153821,-2.8101335,2.0920415
-13.016615,-2.8771553,1.1345854
-13.016615,-2.8771553,1.1345854
-13.016615,-2.8771553,1.1345854
-13.016615,-2.8771553,1.1345854
-11.140001,-1.6803354,0.32074776
-11.140001,-1.6803354,0.32074776
-11.140001,-1.6803354,0.32074776
-11.140001,-1.6803354,0.32074776
-9.004874000000001,-1.2016073,0.34947145
-9.004874000000001,-1.2016073,0.34947145
-9.004874000000001,-1.2016073,0.34947145
-9.004874000000001,-1.2016073,0.34947145
-7.2048570000000005,-2.1207652,-0.7324539000000001
-7.2048570000000005,-2.1207652,-0.7324539000000001
-7.2048570000000005,-2.1207652,-0.7324539000000001
-7.2048570000000005,-2.1207652,-0.7324539000000001
-5.49101,-1.8814011999999998,-1.14416
-5.49101,-1.8814011999999998,-1.14416
-5.49101,-1.8814011999999998,-1.14416
-5.49101,-1.8814011999999998,-1.14416
-6.170804,-1.6707608,-0.64628285
-6.170804,-1.6707608,-0.64628285
-6.170804,-1.6707608,-0.64628285
-6.170804,-1.6707608,-0.64628285
-6.2091026,-2.494173,0.56968635
-6.2091026,-2.494173,0.56968635
-6.2091026,-2.494173,0.56968635
-6.2091026,-2.494173,0.56968635
-9.320834,-3.3175852,3.1643922000000004
-9.320834,-3.3175852,3.1643922000000004
-9.320834,-3.3175852,3.1643922000000004
-9.320834,-3.3175852,3.1643922000000004
-12.719804,-3.3654580000000003,5.021857
-12.719804,-3.3654580000000003,5.021857
-12.719804,-3.3654580000000003,5.021857
-12.719804,-3.3654580000000003,5.021857
-10.565528,-3.2026904,4.3133397
-10.565528,-3.2026904,4.3133397
-10.565528,-3.2026904,4.3133397
-10.565528,-3.2026904,4.3133397
-9.904882,-1.7377827000000001,3.671844
-9.904882,-1.7377827000000001,3.671844
-9.904882,-1.7377827000000001,3.671844
-9.904882,-1.7377827000000001,3.671844
-7.7506065,-2.3697037999999995,3.8346114
-7.7506065,-2.3697037999999995,3.8346114
-7.7506065,-2.3697037999999995,3.8346114
-7.7506065,-2.3697037999999995,3.8346114
-5.845269,-2.3026817000000004,4.1888704
-5.845269,-2.3026817000000004,4.1888704
-5.845269,-2.3026817000000004,4.1888704
-5.845269,-2.3026817000000004,4.1888704
-8.152739,-3.2792869,2.7622607000000006
-8.152739,-3.2792869,2.7622607000000006
-8.152739,-3.2792869,2.7622607000000006
-8.152739,-3.2792869,2.7622607000000006
-17.909216,-4.715471,0.28244954
-17.909216,-4.715471,0.28244954
-17.909216,-4.715471,0.28244954
-17.909216,-4.715471,0.28244954
-15.132593,-1.5462915000000002,1.1058618
-15.132593,-1.5462915000000002,1.1058618
-15.132593,-1.5462915000000002,1.1058618
-15.132593,-1.5462915000000002,1.1058618
-8.822957,-0.69415563,2.8197080000000003
-8.822957,-0.69415563,2.8197080000000003
-8.822957,-0.69415563,2.8197080000000003
-8.822957,-0.69415563,2.8197080000000003
-5.634629,-1.469695,0.3877697
-5.634629,-1.469695,0.3877697
-5.634629,-1.469695,0.3877697
-5.634629,-1.469695,0.3877697
-4.648448999999999,-1.9962958,-0.5313880999999999
-4.648448999999999,-1.9962958,-0.5313880999999999
-4.648448999999999,-1.9962958,-0.5313880999999999
-4.648448999999999,-1.9962958,-0.5313880999999999
-6.8027253,-2.2452345,0.081383765
-6.8027253,-2.2452345,0.081383765
-6.8027253,-2.2452345,0.081383765
-11.082554,-2.034594,0.64628285
-11.082554,-2.034594,0.64628285
-11.082554,-2.034594,0.64628285
-11.082554,-2.034594,0.64628285
-13.533641000000001,-3.384607,1.0484143
-13.533641000000001,-3.384607,1.0484143
-13.533641000000001,-3.384607,1.0484143
-13.533641000000001,-3.384607,1.0484143
-8.583592999999999,-5.098453500000001,2.9346027
-8.583592999999999,-5.098453500000001,2.9346027
-8.583592999999999,-5.098453500000001,2.9346027
-8.583592999999999,-5.098453500000001,2.9346027
-8.708063000000001,-3.671844,0.85692316
-8.708063000000001,-3.671844,0.85692316
-8.708063000000001,-3.671844,0.85692316
-8.708063000000001,-3.671844,0.85692316
-6.3718699999999995,-1.0101161,0.8856468000000001
-6.3718699999999995,-1.0101161,0.8856468000000001
-6.3718699999999995,-1.0101161,0.8856468000000001
-6.3718699999999995,-1.0101161,0.8856468000000001
-5.376116000000001,0.043085523,3.2218397000000003
-5.376116000000001,0.043085523,3.2218397000000003
-5.376116000000001,0.043085523,3.2218397000000003
-5.376116000000001,0.043085523,3.2218397000000003
-9.876159,-2.3792782000000003,3.5378
-9.876159,-2.3792782000000003,3.5378
-9.876159,-2.3792782000000003,3.5378
-9.876159,-2.3792782000000003,3.5378
-19.077312,-5.309094,1.8335283
-19.077312,-5.309094,1.8335283
-19.077312,-5.309094,1.8335283
-19.077312,-5.309094,1.8335283
-12.69108,-2.9250283,1.862252
-12.69108,-2.9250283,1.862252
-12.69108,-2.9250283,1.862252
-12.69108,-2.9250283,1.862252
-8.669764500000001,-1.2016073,2.0441686999999997
-8.669764500000001,-1.2016073,2.0441686999999997
-8.669764500000001,-1.2016073,2.0441686999999997
-5.021857,-1.5558661,1.5845897
-5.021857,-1.5558661,1.5845897
-5.021857,-1.5558661,1.5845897
-5.021857,-1.5558661,1.5845897
-5.021857,-1.5558661,1.5845897
-3.2601378,-1.3069274,1.3165021000000001
-3.2601378,-1.3069274,1.3165021000000001
-3.2601378,-1.3069274,1.3165021000000001
-6.630383,-1.776081,0.6750065
-6.630383,-1.776081,0.6750065
-6.630383,-1.776081,0.6750065
-6.630383,-1.776081,0.6750065
-14.175137,-1.4122477,-1.2303311000000001
-14.175137,-1.4122477,-1.2303311000000001
-14.175137,-1.4122477,-1.2303311000000001
-14.175137,-1.4122477,-1.2303311000000001
-13.533641000000001,-4.6293,0.13883112
-13.533641000000001,-4.6293,0.13883112
-13.533641000000001,-4.6293,0.13883112
-13.533641000000001,-4.6293,0.13883112
-9.014449,-5.6250544,2.0441686999999997
-9.014449,-5.6250544,2.0441686999999997
-9.014449,-5.6250544,2.0441686999999997
-9.014449,-5.6250544,2.0441686999999997
-6.4963393,-3.0207740000000003,0.00478728
-6.4963393,-3.0207740000000003,0.00478728
-6.4963393,-3.0207740000000003,0.00478728
-6.4963393,-3.0207740000000003,0.00478728
-5.5580324999999995,-1.9005502,0.023936402000000002
-5.5580324999999995,-1.9005502,0.023936402000000002
-5.5580324999999995,-1.9005502,0.023936402000000002
-5.5580324999999995,-1.9005502,0.023936402000000002
-6.639958,-0.17712937,2.034594
-6.639958,-0.17712937,2.034594
-6.639958,-0.17712937,2.034594
-6.639958,-0.17712937,2.034594
-9.560199,-2.34098,4.6293
-9.560199,-2.34098,4.6293
-9.560199,-2.34098,4.6293
-9.560199,-2.34098,4.6293
-9.560199,-2.34098,4.6293
-16.587927,-3.5952474999999997,3.2218397000000003
-16.587927,-3.5952474999999997,3.2218397000000003
-16.587927,-3.5952474999999997,3.2218397000000003
-16.415585,-2.9346027,1.8335283
-16.415585,-2.9346027,1.8335283
-16.415585,-2.9346027,1.8335283
-16.415585,-2.9346027,1.8335283
-7.35805,-1.9101248,1.6133133999999998
-7.35805,-1.9101248,1.6133133999999998
-7.35805,-1.9101248,1.6133133999999998
-7.35805,-1.9101248,1.6133133999999998
-4.9069624,-1.2111819,1.5845897
-4.9069624,-1.2111819,1.5845897
-4.9069624,-1.2111819,1.5845897
-4.9069624,-1.2111819,1.5845897
-4.236743,-1.4026731000000001,0.49308985
-4.236743,-1.4026731000000001,0.49308985
-4.236743,-1.4026731000000001,0.49308985
-4.236743,-1.4026731000000001,0.49308985
-8.210186,-2.1877869999999997,-0.19627848
-8.210186,-2.1877869999999997,-0.19627848
-8.210186,-2.1877869999999997,-0.19627848
-8.210186,-2.1877869999999997,-0.19627848
-15.209189000000002,-2.5803439999999997,-0.78032666
-15.209189000000002,-2.5803439999999997,-0.78032666
-15.209189000000002,-2.5803439999999997,-0.78032666
-15.209189000000002,-2.5803439999999997,-0.78032666
-12.154904,-4.409085299999999,1.0771381000000002
-12.154904,-4.409085299999999,1.0771381000000002
-12.154904,-4.409085299999999,1.0771381000000002
-12.154904,-4.409085299999999,1.0771381000000002
-5.7495236,-4.0069537,3.3750327000000007
-5.7495236,-4.0069537,3.3750327000000007
-5.7495236,-4.0069537,3.3750327000000007
-5.4335629999999995,-3.3558834,0.0
-5.4335629999999995,-3.3558834,0.0
-5.4335629999999995,-3.3558834,0.0
-5.4335629999999995,-3.3558834,0.0
-5.4335629999999995,-3.3558834,0.0
-5.653778,-1.0675635,0.7420284
-5.653778,-1.0675635,0.7420284
-5.653778,-1.0675635,0.7420284
-7.808053999999999,-0.9622433000000001,2.254809
-7.808053999999999,-0.9622433000000001,2.254809
-7.808053999999999,-0.9622433000000001,2.254809
-7.808053999999999,-0.9622433000000001,2.254809
-15.190041,-3.3558834,5.38569
-15.190041,-3.3558834,5.38569
-15.190041,-3.3558834,5.38569
-15.190041,-3.3558834,5.38569
-17.669851,-1.7569318999999999,5.031431700000001
-17.669851,-1.7569318999999999,5.031431700000001
-17.669851,-1.7569318999999999,5.031431700000001
-17.669851,-1.7569318999999999,5.031431700000001
-9.397431,-1.2686293,1.8143792
-9.397431,-1.2686293,1.8143792
-9.397431,-1.2686293,1.8143792
-9.397431,-1.2686293,1.8143792
-7.042089,-0.10053288,1.6899098999999997
-7.042089,-0.10053288,1.6899098999999997
-7.042089,-0.10053288,1.6899098999999997
-7.042089,-0.10053288,1.6899098999999997
-4.619725,-1.948423,0.50266445
-4.619725,-1.948423,0.50266445
-4.619725,-1.948423,0.50266445
-5.845269,-2.34098,-0.6845810999999999
-5.845269,-2.34098,-0.6845810999999999
-5.845269,-2.34098,-0.6845810999999999
-5.845269,-2.34098,-0.6845810999999999
-11.044255,-2.1111906000000005,-1.709059
-11.044255,-2.1111906000000005,-1.709059
-11.044255,-2.1111906000000005,-1.709059
-11.044255,-2.1111906000000005,-1.709059
-11.245321,-3.9590807,0.39734426
-11.245321,-3.9590807,0.39734426
-11.245321,-3.9590807,0.39734426
-11.245321,-3.9590807,0.39734426
-12.3463955,-5.5771812999999995,2.3505547000000004
-12.3463955,-5.5771812999999995,2.3505547000000004
-12.3463955,-5.5771812999999995,2.3505547000000004
-12.3463955,-5.5771812999999995,2.3505547000000004
-9.20594,-2.7239625,0.98139244
-9.20594,-2.7239625,0.98139244
-9.20594,-2.7239625,0.98139244
-9.20594,-2.7239625,0.98139244
-9.20594,-2.7239625,0.98139244
-3.2984362000000003,0.36862057,4.5239797
-3.2984362000000003,0.36862057,4.5239797
-3.2984362000000003,0.36862057,4.5239797
-0.062234644000000006,-0.5313880999999999,5.979312999999999
-0.062234644000000006,-0.5313880999999999,5.979312999999999
-0.062234644000000006,-0.5313880999999999,5.979312999999999
-0.062234644000000006,-0.5313880999999999,5.979312999999999
-6.620808599999999,-5.778247400000001,1.2686293
-6.620808599999999,-5.778247400000001,1.2686293
-6.620808599999999,-5.778247400000001,1.2686293
-6.620808599999999,-5.778247400000001,1.2686293
-6.620808599999999,-5.778247400000001,1.2686293
-19.603912,-3.4037561000000003,-1.6420371999999999
-19.603912,-3.4037561000000003,-1.6420371999999999
-19.603912,-3.4037561000000003,-1.6420371999999999
-12.844273,-0.7324539000000001,1.9292740000000002
-12.844273,-0.7324539000000001,1.9292740000000002
-12.844273,-0.7324539000000001,1.9292740000000002
-12.844273,-0.7324539000000001,1.9292740000000002
-12.844273,-0.7324539000000001,1.9292740000000002
-12.844273,-0.7324539000000001,1.9292740000000002
-12.844273,-0.7324539000000001,1.9292740000000002
-12.844273,-0.7324539000000001,1.9292740000000002
-11.101703,-2.7622607000000006,-0.44521707
-11.101703,-2.7622607000000006,-0.44521707
-11.101703,-2.7622607000000006,-0.44521707
-11.101703,-2.7622607000000006,-0.44521707
-15.94643,-3.1356685,-0.46436617
-15.94643,-3.1356685,-0.46436617
-15.94643,-3.1356685,-0.46436617
-15.94643,-3.1356685,-0.46436617
-12.490014,-4.1601467,-0.043085523
-12.490014,-4.1601467,-0.043085523
-12.490014,-4.1601467,-0.043085523
-12.490014,-4.1601467,-0.043085523
-9.64637,-3.4707782,0.03351096
-9.64637,-3.4707782,0.03351096
-9.64637,-3.4707782,0.03351096
-9.64637,-3.4707782,0.03351096
-9.64637,-3.4707782,0.03351096
-9.64637,-3.4707782,0.03351096
-9.64637,-3.4707782,0.03351096
-4.2080193,-1.6803354,0.14840569
-4.2080193,-1.6803354,0.14840569
-4.2080193,-1.6803354,0.14840569
-4.2080193,-1.6803354,0.14840569
-9.148492999999998,-2.1303396,-0.30159867
-9.148492999999998,-2.1303396,-0.30159867
-9.148492999999998,-2.1303396,-0.30159867
-9.148492999999998,-2.1303396,-0.30159867
-16.224092000000002,-2.3697037999999995,-1.0292653
-16.224092000000002,-2.3697037999999995,-1.0292653
-16.224092000000002,-2.3697037999999995,-1.0292653
-14.251732999999998,-2.8101335,0.7994758000000001
-14.251732999999998,-2.8101335,0.7994758000000001
-14.251732999999998,-2.8101335,0.7994758000000001
-14.251732999999998,-2.8101335,0.7994758000000001
-10.71872,-3.078221,-1.6899098999999997
-10.71872,-3.078221,-1.6899098999999997
-10.71872,-3.078221,-1.6899098999999997
-10.71872,-3.078221,-1.6899098999999997
-8.803808,-1.8048046999999998,-0.6271336999999999
-8.803808,-1.8048046999999998,-0.6271336999999999
-8.803808,-1.8048046999999998,-0.6271336999999999
-8.803808,-1.8048046999999998,-0.6271336999999999
-7.4729443,-1.9292740000000002,0.76117754
-7.4729443,-1.9292740000000002,0.76117754
-7.4729443,-1.9292740000000002,0.76117754
-7.4729443,-1.9292740000000002,0.76117754
-7.8846507,-1.3739493999999999,-0.4164934
-7.8846507,-1.3739493999999999,-0.4164934
-7.8846507,-1.3739493999999999,-0.4164934
-7.8846507,-1.3739493999999999,-0.4164934
-9.20594,-1.7665064,0.14840569
-9.20594,-1.7665064,0.14840569
-9.20594,-1.7665064,0.14840569
-9.20594,-1.7665064,0.14840569
-10.938935,-2.6856642,0.19627848
-10.938935,-2.6856642,0.19627848
-10.938935,-2.6856642,0.19627848
-10.938935,-2.6856642,0.19627848
-11.7049,-2.8388572,1.2494801000000002
-11.7049,-2.8388572,1.2494801000000002
-11.7049,-2.8388572,1.2494801000000002
-11.7049,-2.8388572,1.2494801000000002
-11.7049,-2.8388572,1.2494801000000002
-7.8367777,-2.8101335,3.9495062999999995
-7.8367777,-2.8101335,3.9495062999999995
-7.8367777,-2.8101335,3.9495062999999995
-7.5399666,-1.948423,2.9537517999999996
-7.5399666,-1.948423,2.9537517999999996
-7.5399666,-1.948423,2.9537517999999996
-7.5399666,-1.948423,2.9537517999999996
-7.626137299999999,-2.2452345,2.2165107999999996
-7.626137299999999,-2.2452345,2.2165107999999996
-7.626137299999999,-2.2452345,2.2165107999999996
-7.626137299999999,-2.2452345,2.2165107999999996
-9.292110000000001,-3.8633351,1.7569318999999999
-9.292110000000001,-3.8633351,1.7569318999999999
-9.292110000000001,-3.8633351,1.7569318999999999
-9.292110000000001,-3.8633351,1.7569318999999999
-8.32508,-3.3080106,1.1728836
-8.32508,-3.3080106,1.1728836
-8.32508,-3.3080106,1.1728836
-8.32508,-3.3080106,1.1728836
-8.32508,-3.3080106,1.1728836
-8.32508,-3.3080106,1.1728836
-8.32508,-3.3080106,1.1728836
-8.32508,-3.3080106,1.1728836
-6.170804,-1.0579889,3.3367343000000003
-6.170804,-1.0579889,3.3367343000000003
-6.170804,-1.0579889,3.3367343000000003
-6.9176197,-2.9920502,2.3314054
-6.9176197,-2.9920502,2.3314054
-6.9176197,-2.9920502,2.3314054
-6.9176197,-2.9920502,2.3314054
-9.043172,-2.7718353,1.4792696
-9.043172,-2.7718353,1.4792696
-9.043172,-2.7718353,1.4792696
-9.043172,-2.7718353,1.4792696
-9.043172,-2.7718353,1.4792696
-17.612404,-2.1782124,0.8664976999999999
-17.612404,-2.1782124,0.8664976999999999
-17.612404,-2.1782124,0.8664976999999999
-17.612404,-2.1782124,0.8664976999999999
-17.612404,-2.1782124,0.8664976999999999
-17.612404,-2.1782124,0.8664976999999999
-17.612404,-2.1782124,0.8664976999999999
-7.281453,-2.2739582,0.9622433000000001
-7.281453,-2.2739582,0.9622433000000001
-7.281453,-2.2739582,0.9622433000000001
-7.281453,-2.2739582,0.9622433000000001
-4.437809,-1.8335283,-0.17712937
-4.437809,-1.8335283,-0.17712937
-4.437809,-1.8335283,-0.17712937
-4.437809,-1.8335283,-0.17712937
-2.34098,-1.9101248,-0.062234644000000006
-2.34098,-1.9101248,-0.062234644000000006
-2.34098,-1.9101248,-0.062234644000000006
-2.34098,-1.9101248,-0.062234644000000006
-4.3707867,-1.2111819,-0.10053288
-4.3707867,-1.2111819,-0.10053288
-4.3707867,-1.2111819,-0.10053288
-4.3707867,-1.2111819,-0.10053288
-4.3707867,-1.2111819,-0.10053288
-6.8793216,-1.862252,-0.37819514
-6.8793216,-1.862252,-0.37819514
-6.8793216,-1.862252,-0.37819514
-14.404926000000001,-3.231414,0.12925656
-14.404926000000001,-3.231414,0.12925656
-14.404926000000001,-3.231414,0.12925656
-14.404926000000001,-3.231414,0.12925656
-17.545382,-6.2091026,2.1973617
-17.545382,-6.2091026,2.1973617
-17.545382,-6.2091026,2.1973617
-17.545382,-6.2091026,2.1973617
-17.545382,-6.2091026,2.1973617
-7.654861,-3.8154623999999995,2.9824755
-7.654861,-3.8154623999999995,2.9824755
-7.654861,-3.8154623999999995,2.9824755
-5.309094,0.14840569,2.8101335
-5.309094,0.14840569,2.8101335
-5.309094,0.14840569,2.8101335
-5.309094,0.14840569,2.8101335
-4.8303657,-0.20585304,3.777164
-4.8303657,-0.20585304,3.777164
-4.8303657,-0.20585304,3.777164
-4.8303657,-0.20585304,3.777164
-4.8303657,-0.20585304,3.777164
-11.092129,-3.6143966,4.6675982000000005
-11.092129,-3.6143966,4.6675982000000005
-11.092129,-3.6143966,4.6675982000000005
-19.603912,-3.9495062999999995,1.6516117
-19.603912,-3.9495062999999995,1.6516117
-19.603912,-3.9495062999999995,1.6516117
-19.603912,-3.9495062999999995,1.6516117
-15.151742,0.03351096,1.9579976000000003
-15.151742,0.03351096,1.9579976000000003
-15.151742,0.03351096,1.9579976000000003
-15.151742,0.03351096,1.9579976000000003
-15.151742,0.03351096,1.9579976000000003
-8.880403999999999,-2.1111906000000005,1.0484143
-8.880403999999999,-2.1111906000000005,1.0484143
-8.880403999999999,-2.1111906000000005,1.0484143
-8.880403999999999,-2.1111906000000005,1.0484143
-4.3803616,-2.6377914000000002,0.043085523
-4.3803616,-2.6377914000000002,0.043085523
-4.3803616,-2.6377914000000002,0.043085523
-4.5527034,-2.0920415,-1.1250108
-4.5527034,-2.0920415,-1.1250108
-4.5527034,-2.0920415,-1.1250108
-4.5527034,-2.0920415,-1.1250108
-4.5527034,-2.0920415,-1.1250108
-7.463369999999999,-1.4792696,-1.3548003
-7.463369999999999,-1.4792696,-1.3548003
-7.463369999999999,-1.4792696,-1.3548003
-7.463369999999999,-1.4792696,-1.3548003
-12.863422,-2.5420458,-0.023936402000000002
-12.863422,-2.5420458,-0.023936402000000002
-12.863422,-2.5420458,-0.023936402000000002
-11.015532,-3.6431203,2.0728923999999997
-11.015532,-3.6431203,2.0728923999999997
-11.015532,-3.6431203,2.0728923999999997
-11.015532,-3.6431203,2.0728923999999997
-11.015532,-3.6431203,2.0728923999999997
-10.776167999999998,-5.108028,2.3122563
-10.776167999999998,-5.108028,2.3122563
-10.776167999999998,-5.108028,2.3122563
-10.776167999999998,-5.108028,2.3122563
-5.672927,-1.6516117,2.1877869999999997
-5.672927,-1.6516117,2.1877869999999997
-5.672927,-1.6516117,2.1877869999999997
-5.672927,-1.6516117,2.1877869999999997
-5.672927,0.110107444,3.0686467
-5.672927,0.110107444,3.0686467
-5.672927,0.110107444,3.0686467
-7.7793303,-3.2792869,3.2888615
-7.7793303,-3.2792869,3.2888615
-7.7793303,-3.2792869,3.2888615
-7.7793303,-3.2792869,3.2888615
-7.7793303,-3.2792869,3.2888615
-11.1208515,-3.9112080000000002,3.6239712
-11.1208515,-3.9112080000000002,3.6239712
-11.1208515,-3.9112080000000002,3.6239712
-11.1208515,-3.9112080000000002,3.6239712
-15.218764000000002,-2.3505547000000004,2.8771553
-15.218764000000002,-2.3505547000000004,2.8771553
-15.218764000000002,-2.3505547000000004,2.8771553
-16.5975,-2.2739582,2.427151
-16.5975,-2.2739582,2.427151
-16.5975,-2.2739582,2.427151
-16.5975,-2.2739582,2.427151
-16.5975,-2.2739582,2.427151
-8.32508,-1.5079931999999998,1.9675721999999998
-8.32508,-1.5079931999999998,1.9675721999999998
-8.32508,-1.5079931999999998,1.9675721999999998
-8.32508,-1.5079931999999998,1.9675721999999998
-5.797396,-1.4122477,1.4601203999999999
-5.797396,-1.4122477,1.4601203999999999
-5.797396,-1.4122477,1.4601203999999999
-4.7537694,-2.254809,0.30159867
-4.7537694,-2.254809,0.30159867
-4.7537694,-2.254809,0.30159867
-4.7537694,-2.254809,0.30159867
-4.7537694,-2.254809,0.30159867
-6.898471000000001,-1.9771467,-0.45479164
-6.898471000000001,-1.9771467,-0.45479164
-6.898471000000001,-1.9771467,-0.45479164
-6.898471000000001,-1.9771467,-0.45479164
-11.685751,-1.9771467,0.37819514
-11.685751,-1.9771467,0.37819514
-11.685751,-1.9771467,0.37819514
-11.685751,-1.9771467,0.37819514
-13.543216000000001,-3.5665237999999997,1.3356511999999998
-13.543216000000001,-3.5665237999999997,1.3356511999999998
-13.543216000000001,-3.5665237999999997,1.3356511999999998
-13.543216000000001,-3.5665237999999997,1.3356511999999998
-9.608071,-4.648448999999999,2.494173
-9.608071,-4.648448999999999,2.494173
-9.608071,-4.648448999999999,2.494173
-9.608071,-4.648448999999999,2.494173
-7.769756,-2.733537,1.7952299999999999
-7.769756,-2.733537,1.7952299999999999
-7.769756,-2.733537,1.7952299999999999
-7.769756,-2.733537,1.7952299999999999
-6.8601727,-2.1782124,1.6420371999999999
-6.8601727,-2.1782124,1.6420371999999999
-6.8601727,-2.1782124,1.6420371999999999
-6.8601727,-2.1782124,1.6420371999999999
-2.360129,-0.93351966,4.8973875
-2.360129,-0.93351966,4.8973875
-2.360129,-0.93351966,4.8973875
-2.360129,-0.93351966,4.8973875
-4.466532,-0.7228793,3.4037561000000003
-4.466532,-0.7228793,3.4037561000000003
-4.466532,-0.7228793,3.4037561000000003
-4.466532,-0.7228793,3.4037561000000003
-18.368793,-1.8814011999999998,-1.7952299999999999
-18.368793,-1.8814011999999998,-1.7952299999999999
-18.368793,-1.8814011999999998,-1.7952299999999999
-18.368793,-1.8814011999999998,-1.7952299999999999
-18.368793,-1.8814011999999998,-1.7952299999999999
-13.428320999999999,-2.5707695,2.4845984
-13.428320999999999,-2.5707695,2.4845984
-13.428320999999999,-2.5707695,2.4845984
-4.5144053,-2.0633178,3.4899273
-4.5144053,-2.0633178,3.4899273
-4.5144053,-2.0633178,3.4899273
-4.5144053,-2.0633178,3.4899273
-5.519734,-1.5367169,-0.110107444
-5.519734,-1.5367169,-0.110107444
-5.519734,-1.5367169,-0.110107444
-5.519734,-1.5367169,-0.110107444
-5.519734,-1.5367169,-0.110107444
-15.486851999999999,-2.6377914000000002,-2.6952388
-15.486851999999999,-2.6377914000000002,-2.6952388
-15.486851999999999,-2.6377914000000002,-2.6952388
-14.491097,-5.481436,0.45479164
-14.491097,-5.481436,0.45479164
-14.491097,-5.481436,0.45479164
-14.491097,-5.481436,0.45479164
-7.377198700000001,-3.0207740000000003,4.322914
-7.377198700000001,-3.0207740000000003,4.322914
-7.377198700000001,-3.0207740000000003,4.322914
-7.377198700000001,-3.0207740000000003,4.322914
-7.377198700000001,-3.0207740000000003,4.322914
-5.500585,-2.2260852000000004,1.2973529
-5.500585,-2.2260852000000004,1.2973529
-5.500585,-2.2260852000000004,1.2973529
-1.9292740000000002,0.751603,2.6760897999999997
-1.9292740000000002,0.751603,2.6760897999999997
-1.9292740000000002,0.751603,2.6760897999999997
-1.9292740000000002,0.751603,2.6760897999999997
-10.737869,-0.59841,2.1111906000000005
-10.737869,-0.59841,2.1111906000000005
-10.737869,-0.59841,2.1111906000000005
-10.737869,-0.59841,2.1111906000000005
-10.737869,-0.59841,2.1111906000000005
-19.393272,-4.811217,-1.3260766000000002
-19.393272,-4.811217,-1.3260766000000002
-19.393272,-4.811217,-1.3260766000000002
-19.393272,-4.811217,-1.3260766000000002
-9.091045,-2.9441773999999996,1.2973529
-9.091045,-2.9441773999999996,1.2973529
-9.091045,-2.9441773999999996,1.2973529
-4.2175937,-2.7814097,1.1633091
-4.2175937,-2.7814097,1.1633091
-4.2175937,-2.7814097,1.1633091
-4.2175937,-2.7814097,1.1633091
-4.246317400000001,-1.5941644,0.36862057
-4.246317400000001,-1.5941644,0.36862057
-4.246317400000001,-1.5941644,0.36862057
-4.246317400000001,-1.5941644,0.36862057
-4.246317400000001,-1.5941644,0.36862057
-10.527229,-1.8335283,0.0
-10.527229,-1.8335283,0.0
-10.527229,-1.8335283,0.0
-19.603912,-4.294190400000001,-0.5792609000000001
-19.603912,-4.294190400000001,-0.5792609000000001
-19.603912,-4.294190400000001,-0.5792609000000001
-19.603912,-4.294190400000001,-0.5792609000000001
-10.441058,-5.4718614,3.7197167999999996
-10.441058,-5.4718614,3.7197167999999996
-10.441058,-5.4718614,3.7197167999999996
-10.441058,-5.4718614,3.7197167999999996
-10.441058,-5.4718614,3.7197167999999996
-6.429317500000001,-2.8963046,2.1782124
-6.429317500000001,-2.8963046,2.1782124
-6.429317500000001,-2.8963046,2.1782124
-7.195282000000001,-3.2026904,1.4026731000000001
-7.195282000000001,-3.2026904,1.4026731000000001
-7.195282000000001,-3.2026904,1.4026731000000001
-7.195282000000001,-3.2026904,1.4026731000000001
-5.538883,-0.45479164,2.5420458
-5.538883,-0.45479164,2.5420458
-5.538883,-0.45479164,2.5420458
-5.538883,-0.45479164,2.5420458
-5.538883,-0.45479164,2.5420458
-6.094208,-0.9718179,3.9016335
-6.094208,-0.9718179,3.9016335
-6.094208,-0.9718179,3.9016335
-6.094208,-0.9718179,3.9016335
-7.6069884000000005,-2.1111906000000005,2.714388
-7.6069884000000005,-2.1111906000000005,2.714388
-7.6069884000000005,-2.1111906000000005,2.714388
-6.8793216,-1.14416,1.0962871
-6.8793216,-1.14416,1.0962871
-6.8793216,-1.14416,1.0962871
-6.8793216,-1.14416,1.0962871
-6.8793216,-1.14416,1.0962871
-14.711312,-1.4984187,0.61755913
-14.711312,-1.4984187,0.61755913
-14.711312,-1.4984187,0.61755913
-14.711312,-1.4984187,0.61755913
-19.278378,-4.5239797,0.0718092
-19.278378,-4.5239797,0.0718092
-19.278378,-4.5239797,0.0718092
-11.992137,-4.246317400000001,0.665432
-11.992137,-4.246317400000001,0.665432
-11.992137,-4.246317400000001,0.665432
-11.992137,-4.246317400000001,0.665432
-11.992137,-4.246317400000001,0.665432
-8.698488000000001,-2.7909843999999997,0.014361841
-8.698488000000001,-2.7909843999999997,0.014361841
-8.698488000000001,-2.7909843999999997,0.014361841
-8.698488000000001,-2.7909843999999997,0.014361841
-6.065484,-1.7856555,1.0867126
-6.065484,-1.7856555,1.0867126
-6.065484,-1.7856555,1.0867126
-6.065484,-1.7856555,1.0867126
-7.4920936000000005,-1.4313968000000001,0.70373017
-7.4920936000000005,-1.4313968000000001,0.70373017
-7.4920936000000005,-1.4313968000000001,0.70373017
-7.4920936000000005,-1.4313968000000001,0.70373017
-9.31126,-2.168638,0.8664976999999999
-9.31126,-2.168638,0.8664976999999999
-9.31126,-2.168638,0.8664976999999999
-9.31126,-2.168638,0.8664976999999999
-9.148492999999998,-2.1590632999999997,1.2399056
-9.148492999999998,-2.1590632999999997,1.2399056
-9.148492999999998,-2.1590632999999997,1.2399056
-9.148492999999998,-2.1590632999999997,1.2399056
-8.487848,-2.5420458,0.50266445
-8.487848,-2.5420458,0.50266445
-8.487848,-2.5420458,0.50266445
-8.487848,-2.5420458,0.50266445
-9.368708,-2.1111906000000005,0.56968635
-9.368708,-2.1111906000000005,0.56968635
-9.368708,-2.1111906000000005,0.56968635
-9.368708,-2.1111906000000005,0.56968635
-7.865501400000001,-1.7665064,0.98139244
-7.865501400000001,-1.7665064,0.98139244
-7.865501400000001,-1.7665064,0.98139244
-7.865501400000001,-1.7665064,0.98139244
-8.104865,-2.34098,0.8856468000000001
-8.104865,-2.34098,0.8856468000000001
-8.104865,-2.34098,0.8856468000000001
-8.104865,-2.34098,0.8856468000000001
-11.331491999999999,-2.9154537,0.78990126
-11.331491999999999,-2.9154537,0.78990126
-11.331491999999999,-2.9154537,0.78990126
-11.331491999999999,-2.9154537,0.78990126
-10.115523,-2.3888528,3.5856729
-10.115523,-2.3888528,3.5856729
-10.115523,-2.3888528,3.5856729
-9.96233,-2.5037475,3.997379
-9.96233,-2.5037475,3.997379
-9.96233,-2.5037475,3.997379
-9.96233,-2.5037475,3.997379
-9.96233,-2.5037475,3.997379
-9.943181,-6.1995277,-0.22500217
-9.943181,-6.1995277,-0.22500217
-9.943181,-6.1995277,-0.22500217
-9.943181,-6.1995277,-0.22500217
-8.746361,-1.6516117,0.69415563
-8.746361,-1.6516117,0.69415563
-8.746361,-1.6516117,0.69415563
-8.55487,-0.69415563,1.9771467
-8.55487,-0.69415563,1.9771467
-8.55487,-0.69415563,1.9771467
-8.55487,-0.69415563,1.9771467
-8.55487,-0.69415563,1.9771467
-9.215514,-1.9771467,1.5654407
-9.215514,-1.9771467,1.5654407
-9.215514,-1.9771467,1.5654407
-9.215514,-1.9771467,1.5654407
-9.18679,-2.7239625,0.6845810999999999
-9.18679,-2.7239625,0.6845810999999999
-9.18679,-2.7239625,0.6845810999999999
-9.18679,-2.7239625,0.6845810999999999
-9.091045,-2.7622607000000006,0.6558574
-9.091045,-2.7622607000000006,0.6558574
-9.091045,-2.7622607000000006,0.6558574
-9.339984,-2.427151,0.9430941999999999
-9.339984,-2.427151,0.9430941999999999
-9.339984,-2.427151,0.9430941999999999
-9.339984,-2.427151,0.9430941999999999
-9.339984,-2.427151,0.9430941999999999
-9.435728999999998,-2.101616,1.2973529
-9.435728999999998,-2.101616,1.2973529
-9.435728999999998,-2.101616,1.2973529
-9.435728999999998,-2.101616,1.2973529
-8.947427000000001,-1.8814011999999998,1.4792696
-8.947427000000001,-1.8814011999999998,1.4792696
-8.947427000000001,-1.8814011999999998,1.4792696
-8.717637,-2.3026817000000004,1.4888442
-8.717637,-2.3026817000000004,1.4888442
-8.717637,-2.3026817000000004,1.4888442
-8.717637,-2.3026817000000004,1.4888442
-8.717637,-2.3026817000000004,1.4888442
-8.755936,-1.776081,3.5665237999999997
-8.755936,-1.776081,3.5665237999999997
-8.755936,-1.776081,3.5665237999999997
-8.755936,-1.776081,3.5665237999999997
-8.535721,-2.6186423,1.4122477
-8.535721,-2.6186423,1.4122477
-8.535721,-2.6186423,1.4122477
-8.535721,-2.6186423,1.4122477
-9.320834,-2.9346027,0.85692316
-9.320834,-2.9346027,0.85692316
-9.320834,-2.9346027,0.85692316
-9.320834,-2.9346027,0.85692316
-9.703816999999999,-2.360129,1.2111819
-9.703816999999999,-2.360129,1.2111819
-9.703816999999999,-2.360129,1.2111819
-8.947427000000001,-2.101616,1.2494801000000002
-8.947427000000001,-2.101616,1.2494801000000002
-8.947427000000001,-2.101616,1.2494801000000002
-8.947427000000001,-2.101616,1.2494801000000002
-9.129342999999999,-2.4463003,0.92394507
-9.129342999999999,-2.4463003,0.92394507
-9.129342999999999,-2.4463003,0.92394507
-9.129342999999999,-2.4463003,0.92394507
-9.368708,-2.6377914000000002,1.0579889
-9.368708,-2.6377914000000002,1.0579889
-9.368708,-2.6377914000000002,1.0579889
-9.368708,-2.6377914000000002,1.0579889
-8.957002000000001,-2.7718353,1.0388398
-8.957002000000001,-2.7718353,1.0388398
-8.957002000000001,-2.7718353,1.0388398
-8.957002000000001,-2.7718353,1.0388398
-9.138917999999999,-2.7909843999999997,1.1920328000000002
-9.138917999999999,-2.7909843999999997,1.1920328000000002
-9.138917999999999,-2.7909843999999997,1.1920328000000002
-9.138917999999999,-2.7909843999999997,1.1920328000000002
-9.5889225,-2.5037475,1.4313968000000001
-9.5889225,-2.5037475,1.4313968000000001
-9.5889225,-2.5037475,1.4313968000000001
-9.5889225,-2.5037475,1.4313968000000001
-9.464453,-2.408002,1.4409714
-9.464453,-2.408002,1.4409714
-9.464453,-2.408002,1.4409714
-9.253813000000001,-1.8239537000000001,1.6420371999999999
-9.253813000000001,-1.8239537000000001,1.6420371999999999
-9.253813000000001,-1.8239537000000001,1.6420371999999999
-9.253813000000001,-1.8239537000000001,1.6420371999999999
-9.253813000000001,-1.8239537000000001,1.6420371999999999
-9.31126,-1.5558661,1.9579976000000003
-9.31126,-1.5558661,1.9579976000000003
-9.31126,-1.5558661,1.9579976000000003
-9.397431,-2.168638,1.3069274
-9.397431,-2.168638,1.3069274
-9.397431,-2.168638,1.3069274
-9.397431,-2.168638,1.3069274
-9.244238000000001,-2.3122563,0.9718179
-9.244238000000001,-2.3122563,0.9718179
-9.244238000000001,-2.3122563,0.9718179
-9.244238000000001,-2.3122563,0.9718179
-9.129342999999999,-2.2739582,1.1537346000000002
-9.129342999999999,-2.2739582,1.1537346000000002
-9.129342999999999,-2.2739582,1.1537346000000002
-9.129342999999999,-2.2739582,1.1537346000000002
-8.985725,-2.321831,1.0675635
-8.985725,-2.321831,1.0675635
-8.985725,-2.321831,1.0675635
-8.985725,-2.321831,1.0675635
-8.746361,-2.2452345,1.3260766000000002
-8.746361,-2.2452345,1.3260766000000002
-8.746361,-2.2452345,1.3260766000000002
-8.746361,-2.2452345,1.3260766000000002
-8.851681,-2.2260852000000004,1.9867213
-8.851681,-2.2260852000000004,1.9867213
-8.851681,-2.2260852000000004,1.9867213
-9.062322,-2.8388572,1.6324625
-9.062322,-2.8388572,1.6324625
-9.062322,-2.8388572,1.6324625
-9.062322,-2.8388572,1.6324625
-9.253813000000001,-3.039923,1.1824582000000001
-9.253813000000001,-3.039923,1.1824582000000001
-9.253813000000001,-3.039923,1.1824582000000001
-9.253813000000001,-3.039923,1.1824582000000001
-9.100619,-2.6186423,1.4218222
-9.100619,-2.6186423,1.4218222
-9.100619,-2.6186423,1.4218222
-9.100619,-2.6186423,1.4218222
-8.985725,-2.7048132000000003,1.2303311000000001
-8.985725,-2.7048132000000003,1.2303311000000001
-8.985725,-2.7048132000000003,1.2303311000000001
-8.985725,-2.7048132000000003,1.2303311000000001
-9.119769,-2.5994933,1.1824582000000001
-9.119769,-2.5994933,1.1824582000000001
-9.119769,-2.5994933,1.1824582000000001
-9.119769,-2.5994933,1.1824582000000001
-9.071896,-2.513322,1.2590546999999999
-9.071896,-2.513322,1.2590546999999999
-9.071896,-2.513322,1.2590546999999999
-9.071896,-2.513322,1.2590546999999999
-9.052747,-2.4463003,1.3260766000000002
-9.052747,-2.4463003,1.3260766000000002
-9.052747,-2.4463003,1.3260766000000002
-9.167641999999999,-2.427151,1.4601203999999999
-9.167641999999999,-2.427151,1.4601203999999999
-9.167641999999999,-2.427151,1.4601203999999999
-9.167641999999999,-2.427151,1.4601203999999999
-9.119769,-2.321831,1.4888442
-9.119769,-2.321831,1.4888442
-9.119769,-2.321831,1.4888442
-9.119769,-2.321831,1.4888442
-9.091045,-2.321831,1.4888442
-9.091045,-2.321831,1.4888442
-9.091045,-2.321831,1.4888442
-9.091045,-2.321831,1.4888442
-9.014449,-2.4558747000000003,1.3548003
-9.014449,-2.4558747000000003,1.3548003
-9.014449,-2.4558747000000003,1.3548003
-9.014449,-2.4558747000000003,1.3548003
-9.024023,-2.5516202,1.2686293
-9.024023,-2.5516202,1.2686293
-9.024023,-2.5516202,1.2686293
-9.024023,-2.5516202,1.2686293
-9.110194,-2.5994933,1.2782038
-9.110194,-2.5994933,1.2782038
-9.110194,-2.5994933,1.2782038
-9.110194,-2.5994933,1.2782038
-9.091045,-2.6186423,1.3452256999999999
-9.091045,-2.6186423,1.3452256999999999
-9.091045,-2.6186423,1.3452256999999999
-9.0814705,-2.5516202,1.3930986
-9.0814705,-2.5516202,1.3930986
-9.0814705,-2.5516202,1.3930986
-9.0814705,-2.5516202,1.3930986
-9.0814705,-2.5516202,1.3930986
-9.129342999999999,-2.4463003,1.4026731000000001
-9.129342999999999,-2.4463003,1.4026731000000001
-9.129342999999999,-2.4463003,1.4026731000000001
-9.062322,-2.3792782000000003,1.4026731000000001
-9.062322,-2.3792782000000003,1.4026731000000001
-9.062322,-2.3792782000000003,1.4026731000000001
-9.062322,-2.3792782000000003,1.4026731000000001
-9.091045,-2.3984275,1.3643749
-9.091045,-2.3984275,1.3643749
-9.091045,-2.3984275,1.3643749
-9.091045,-2.3984275,1.3643749
-9.052747,-2.3984275,1.3260766000000002
-9.052747,-2.3984275,1.3260766000000002
-9.052747,-2.3984275,1.3260766000000002
-9.052747,-2.3984275,1.3260766000000002
-9.138917999999999,-2.4845984,1.3452256999999999
-9.138917999999999,-2.4845984,1.3452256999999999
-9.138917999999999,-2.4845984,1.3452256999999999
-9.138917999999999,-2.4845984,1.3452256999999999
-9.110194,-2.5516202,1.4122477
-9.110194,-2.5516202,1.4122477
-9.110194,-2.5516202,1.4122477
-9.110194,-2.5516202,1.4122477
-9.062322,-2.5899186000000003,1.4218222
-9.062322,-2.5899186000000003,1.4218222
-9.062322,-2.5899186000000003,1.4218222
-9.091045,-2.5037475,1.3452256999999999
-9.091045,-2.5037475,1.3452256999999999
-9.091045,-2.5037475,1.3452256999999999
-9.091045,-2.5037475,1.3452256999999999
-9.100619,-2.4558747000000003,1.3069274
-9.100619,-2.4558747000000003,1.3069274
-9.100619,-2.4558747000000003,1.3069274
-9.100619,-2.4558747000000003,1.3069274
-9.138917999999999,-2.4175766,1.2877783999999999
-9.138917999999999,-2.4175766,1.2877783999999999
-9.138917999999999,-2.4175766,1.2877783999999999
-9.138917999999999,-2.4175766,1.2877783999999999
-9.129342999999999,-2.3792782000000003,1.2590546999999999
-9.129342999999999,-2.3792782000000003,1.2590546999999999
-9.129342999999999,-2.3792782000000003,1.2590546999999999
-9.129342999999999,-2.3792782000000003,1.2590546999999999
-9.129342999999999,-2.3888528,1.2782038
-9.129342999999999,-2.3888528,1.2782038
-9.129342999999999,-2.3888528,1.2782038
-9.129342999999999,-2.3888528,1.2782038
-9.024023,-2.3505547000000004,1.2782038
-9.024023,-2.3505547000000004,1.2782038
-9.024023,-2.3505547000000004,1.2782038
-9.024023,-2.3505547000000004,1.2782038
-9.129342999999999,-2.3792782000000003,1.3069274
-9.129342999999999,-2.3792782000000003,1.3069274
-9.129342999999999,-2.3792782000000003,1.3069274
-9.167641999999999,-2.3888528,1.3739493999999999
-9.167641999999999,-2.3888528,1.3739493999999999
-9.167641999999999,-2.3888528,1.3739493999999999
-9.167641999999999,-2.3888528,1.3739493999999999
-9.167641999999999,-2.3888528,1.3739493999999999
-9.062322,-2.3888528,1.383524
-9.062322,-2.3888528,1.383524
-9.062322,-2.3888528,1.383524
-9.052747,-2.5324712000000003,1.383524
-9.052747,-2.5324712000000003,1.383524
-9.052747,-2.5324712000000003,1.383524
-9.052747,-2.5324712000000003,1.383524
-9.253813000000001,-2.8484317999999997,1.3643749
-9.253813000000001,-2.8484317999999997,1.3643749
-9.253813000000001,-2.8484317999999997,1.3643749
-9.253813000000001,-2.8484317999999997,1.3643749
-9.435728999999998,-3.4420545,1.2686293
-9.435728999999998,-3.4420545,1.2686293
-9.435728999999998,-3.4420545,1.2686293
-9.435728999999998,-3.4420545,1.2686293
-9.234664,-3.5856729,1.6228879999999999
-9.234664,-3.5856729,1.6228879999999999
-9.234664,-3.5856729,1.6228879999999999
-9.234664,-3.5856729,1.6228879999999999
-9.18679,-4.150572,2.5803439999999997
-9.18679,-4.150572,2.5803439999999997
-9.18679,-4.150572,2.5803439999999997
-9.18679,-4.150572,2.5803439999999997
-9.301685,-5.5771812999999995,3.997379
-9.301685,-5.5771812999999995,3.997379
-9.301685,-5.5771812999999995,3.997379
-9.301685,-5.5771812999999995,3.997379
-9.301685,-5.5771812999999995,3.997379
-9.301685,-5.5771812999999995,3.997379
-9.301685,-5.5771812999999995,3.997379
-9.818711,-6.180379,5.912291000000001
-9.818711,-6.180379,5.912291000000001
-9.818711,-6.180379,5.912291000000001
-9.818711,-6.180379,5.912291000000001
-7.922949000000001,-6.103782,6.4484663
-7.922949000000001,-6.103782,6.4484663
-7.922949000000001,-6.103782,6.4484663
-7.922949000000001,-6.103782,6.4484663
-6.1899533,-4.342063,6.745278
-6.1899533,-4.342063,6.745278
-6.1899533,-4.342063,6.745278
-6.1899533,-4.342063,6.745278
-4.1984449999999995,-2.34098,6.3527207
-4.1984449999999995,-2.34098,6.3527207
-4.1984449999999995,-2.34098,6.3527207
-4.1984449999999995,-2.34098,6.3527207
-2.733537,-0.7994758000000001,6.391019
-2.733537,-0.7994758000000001,6.391019
-2.733537,-0.7994758000000001,6.391019
-2.733537,-0.7994758000000001,6.391019
-1.9388485,0.5792609000000001,6.9271946
-10.134672,-0.6079846,5.414414
-10.134672,-0.6079846,5.414414
-10.134672,-0.6079846,5.414414
-10.134672,-0.6079846,5.414414
-13.945347,-1.7282081999999999,4.782493
-13.945347,-1.7282081999999999,4.782493
-13.945347,-1.7282081999999999,4.782493
-13.945347,-1.7282081999999999,4.782493
-12.135756,-1.7282081999999999,4.1984449999999995
-12.135756,-1.7282081999999999,4.1984449999999995
-12.135756,-1.7282081999999999,4.1984449999999995
-12.135756,-1.7282081999999999,4.1984449999999995
-10.40276,-1.0867126,3.2984362000000003
-10.40276,-1.0867126,3.2984362000000003
-10.40276,-1.0867126,3.2984362000000003
-10.40276,-1.0867126,3.2984362000000003
-9.703816999999999,-1.2590546999999999,3.2409887000000004
-9.703816999999999,-1.2590546999999999,3.2409887000000004
-9.703816999999999,-1.2590546999999999,3.2409887000000004
-9.703816999999999,-1.2590546999999999,3.2409887000000004
-9.483603,-1.7282081999999999,3.5378
-9.483603,-1.7282081999999999,3.5378
-9.483603,-1.7282081999999999,3.5378
-9.234664,-3.0494976,2.4654493
-9.234664,-3.0494976,2.4654493
-9.234664,-3.0494976,2.4654493
-9.234664,-3.0494976,2.4654493
-9.234664,-3.0494976,2.4654493
-8.918703,-2.2835326,1.8718264999999998
-8.918703,-2.2835326,1.8718264999999998
-8.918703,-2.2835326,1.8718264999999998
-8.918703,-2.2835326,1.8718264999999998
-9.8953085,-2.427151,1.6994845
-9.8953085,-2.427151,1.6994845
-9.8953085,-2.427151,1.6994845
-9.6942425,-3.0877957,1.5367169
-9.6942425,-3.0877957,1.5367169
-9.6942425,-3.0877957,1.5367169
-9.6942425,-3.0877957,1.5367169
-9.6942425,-3.0877957,1.5367169
-9.31126,-3.3367343000000003,1.1728836
-9.31126,-3.3367343000000003,1.1728836
-9.31126,-3.3367343000000003,1.1728836
-9.31126,-3.3367343000000003,1.1728836
-9.569773,-3.1643922000000004,0.9718179
-9.569773,-3.1643922000000004,0.9718179
-9.569773,-3.1643922000000004,0.9718179
-9.569773,-3.1643922000000004,0.9718179
-9.196365,-2.714388,1.0771381000000002
-9.196365,-2.714388,1.0771381000000002
-9.196365,-2.714388,1.0771381000000002
-9.196365,-2.714388,1.0771381000000002
-8.7750845,-2.3505547000000004,1.0484143
-8.7750845,-2.3505547000000004,1.0484143
-8.7750845,-2.3505547000000004,1.0484143
-8.21976,-1.9867213,1.0962871
-8.21976,-1.9867213,1.0962871
-8.21976,-1.9867213,1.0962871
-8.21976,-1.9867213,1.0962871
-8.085716,-2.0058703,1.3356511999999998
-8.085716,-2.0058703,1.3356511999999998
-8.085716,-2.0058703,1.3356511999999998
-8.085716,-2.0058703,1.3356511999999998
-8.085716,-2.0058703,1.3356511999999998
-9.110194,-1.7282081999999999,1.1345854
-9.110194,-1.7282081999999999,1.1345854
-9.110194,-1.7282081999999999,1.1345854
-9.110194,-1.7282081999999999,1.1345854
-10.689997,-2.4367256,0.9622433000000001
-10.689997,-2.4367256,0.9622433000000001
-10.689997,-2.4367256,0.9622433000000001
-7.980396300000001,-3.9112080000000002,0.9622433000000001
-7.980396300000001,-3.9112080000000002,0.9622433000000001
-7.980396300000001,-3.9112080000000002,0.9622433000000001
-7.980396300000001,-3.9112080000000002,0.9622433000000001
-7.693159,-3.4324798999999997,0.50266445
-7.693159,-3.4324798999999997,0.50266445
-7.693159,-3.4324798999999997,0.50266445
-7.693159,-3.4324798999999997,0.50266445
-9.330409,-2.360129,1.5462915000000002
-9.330409,-2.360129,1.5462915000000002
-9.330409,-2.360129,1.5462915000000002
-9.330409,-2.360129,1.5462915000000002
-10.239991999999999,-1.1824582000000001,2.34098
-10.239991999999999,-1.1824582000000001,2.34098
-10.239991999999999,-1.1824582000000001,2.34098
-10.239991999999999,-1.1824582000000001,2.34098
-10.239991999999999,-1.1824582000000001,2.34098
-9.924032,-2.2643836,1.9675721999999998
-9.924032,-2.2643836,1.9675721999999998
-9.924032,-2.2643836,1.9675721999999998
-9.809137,-3.3558834,1.2207563999999997
-9.809137,-3.3558834,1.2207563999999997
-9.809137,-3.3558834,1.2207563999999997
-9.809137,-3.3558834,1.2207563999999997
-10.450633,-3.2792869,1.1633091
-10.450633,-3.2792869,1.1633091
-10.450633,-3.2792869,1.1633091
-10.450633,-3.2792869,1.1633091
-10.450633,-3.2792869,1.1633091
-10.536804,-2.7431116,1.3165021000000001
-10.536804,-2.7431116,1.3165021000000001
-10.536804,-2.7431116,1.3165021000000001
-9.2825365,-3.4707782,1.3739493999999999
-9.2825365,-3.4707782,1.3739493999999999
-9.2825365,-3.4707782,1.3739493999999999
-9.2825365,-3.4707782,1.3739493999999999
-8.583592999999999,-3.997379,0.6079846
-8.583592999999999,-3.997379,0.6079846
-8.583592999999999,-3.997379,0.6079846
-8.583592999999999,-3.997379,0.6079846
-8.583592999999999,-3.997379,0.6079846
-8.947427000000001,-4.08355,2.0920415
-8.947427000000001,-4.08355,2.0920415
-8.947427000000001,-4.08355,2.0920415
-8.947427000000001,-4.08355,2.0920415
-8.076141,-3.2218397000000003,2.905879
-8.076141,-3.2218397000000003,2.905879
-8.076141,-3.2218397000000003,2.905879
-7.855927,-3.777164,2.34098
-7.855927,-3.777164,2.34098
-7.855927,-3.777164,2.34098
-7.855927,-3.777164,2.34098
-7.855927,-3.777164,2.34098
-7.4537954,-4.96441,2.360129
-7.4537954,-4.96441,2.360129
-7.4537954,-4.96441,2.360129
-7.4537954,-4.96441,2.360129
-7.7027339999999995,-1.5175678999999997,1.7665064
-7.7027339999999995,-1.5175678999999997,1.7665064
-7.7027339999999995,-1.5175678999999997,1.7665064
-7.587839,-4.131423000000001,-4.0548263
-7.587839,-4.131423000000001,-4.0548263
-7.587839,-4.131423000000001,-4.0548263
-7.587839,-4.131423000000001,-4.0548263
-6.103782,-7.022939999999999,-8.755936
-6.103782,-7.022939999999999,-8.755936
-6.103782,-7.022939999999999,-8.755936
-6.103782,-7.022939999999999,-8.755936
-6.103782,-7.022939999999999,-8.755936
-4.619725,-4.246317400000001,-7.022939999999999
-4.619725,-4.246317400000001,-7.022939999999999
-4.619725,-4.246317400000001,-7.022939999999999
-5.739949,-0.8760723,-4.5718527
-5.739949,-0.8760723,-4.5718527
-5.739949,-0.8760723,-4.5718527
-5.739949,-0.8760723,-4.5718527
-6.027186,-2.1111906000000005,-7.654861
-6.027186,-2.1111906000000005,-7.654861
-6.027186,-2.1111906000000005,-7.654861
-6.027186,-2.1111906000000005,-7.654861
-6.027186,-2.1111906000000005,-7.654861
-6.3718699999999995,0.27287498,-7.8367777
-6.3718699999999995,0.27287498,-7.8367777
-6.3718699999999995,0.27287498,-7.8367777
-6.3718699999999995,0.27287498,-7.8367777
-5.845269,1.2016073,-7.214431299999999
-5.845269,1.2016073,-7.214431299999999
-5.845269,1.2016073,-7.214431299999999
-4.8207912,0.8760723,-8.641041
-4.8207912,0.8760723,-8.641041
-4.8207912,0.8760723,-8.641041
-4.8207912,0.8760723,-8.641041
-4.8207912,0.8760723,-8.641041
-5.06973,0.12925656,-8.688913000000001
-5.06973,0.12925656,-8.688913000000001
-5.06973,0.12925656,-8.688913000000001
-5.06973,0.12925656,-8.688913000000001
-4.811217,0.50266445,-8.899554
-4.811217,0.50266445,-8.899554
-4.811217,0.50266445,-8.899554
-4.5527034,0.7420284,-8.650616000000001
-4.5527034,0.7420284,-8.650616000000001
-4.5527034,0.7420284,-8.650616000000001
-4.5527034,0.7420284,-8.650616000000001
-4.5527034,0.7420284,-8.650616000000001
-4.8782387,0.8281995000000001,-8.746361
-4.8782387,0.8281995000000001,-8.746361
-4.8782387,0.8281995000000001,-8.746361
-4.9739842,0.90479594,-8.861256
-4.9739842,0.90479594,-8.861256
-4.9739842,0.90479594,-8.861256
-4.9739842,0.90479594,-8.861256
-4.8303657,1.1920328000000002,-8.258059
-4.8303657,1.1920328000000002,-8.258059
-4.8303657,1.1920328000000002,-8.258059
-4.8303657,1.1920328000000002,-8.258059
-5.2133484,1.7186337,-8.21976
-5.2133484,1.7186337,-8.21976
-5.2133484,1.7186337,-8.21976
-5.2133484,1.7186337,-8.21976
-5.1654754,0.99096704,-8.439975
-5.1654754,0.99096704,-8.439975
-5.1654754,0.99096704,-8.439975
-5.1654754,0.99096704,-8.439975
-5.548457599999999,0.56968635,-7.7027339999999995
-5.548457599999999,0.56968635,-7.7027339999999995
-5.548457599999999,0.56968635,-7.7027339999999995
-5.548457599999999,0.56968635,-7.7027339999999995
-4.9356860000000005,1.4984187,-7.980396300000001
-4.9356860000000005,1.4984187,-7.980396300000001
-4.9356860000000005,1.4984187,-7.980396300000001
-4.9356860000000005,1.4984187,-7.980396300000001
-5.2037735000000005,1.6420371999999999,-8.506997
-5.2037735000000005,1.6420371999999999,-8.506997
-5.2037735000000005,1.6420371999999999,-8.506997
-5.7208,0.110107444,-8.55487
-5.7208,0.110107444,-8.55487
-5.7208,0.110107444,-8.55487
-5.7208,0.110107444,-8.55487
-5.8165455,1.4026731000000001,-8.210186
-5.8165455,1.4026731000000001,-8.210186
-5.8165455,1.4026731000000001,-8.210186
-5.8165455,1.4026731000000001,-8.210186
-4.926111,1.4409714,-8.133589
-4.926111,1.4409714,-8.133589
-4.926111,1.4409714,-8.133589
-4.926111,1.4409714,-8.133589
-5.376116000000001,0.5218136,-8.296356
-5.376116000000001,0.5218136,-8.296356
-5.376116000000001,0.5218136,-8.296356
-5.376116000000001,0.5218136,-8.296356
-5.376116000000001,0.5218136,-8.296356
-5.452712,0.8856468000000001,-8.2676325
-5.452712,0.8856468000000001,-8.2676325
-5.452712,0.8856468000000001,-8.2676325
-5.3569665,1.5558661,-7.7027339999999995
-5.3569665,1.5558661,-7.7027339999999995
-5.3569665,1.5558661,-7.7027339999999995
-5.3569665,1.5558661,-7.7027339999999995
-5.5580324999999995,1.2494801000000002,-7.951672599999999
-5.5580324999999995,1.2494801000000002,-7.951672599999999
-5.5580324999999995,1.2494801000000002,-7.951672599999999
-5.5580324999999995,1.2494801000000002,-7.951672599999999
-5.500585,0.5218136,-8.181462
-5.500585,0.5218136,-8.181462
-5.500585,0.5218136,-8.181462
-5.500585,0.5218136,-8.181462
-5.3186684,0.11968201,-8.229335
-5.3186684,0.11968201,-8.229335
-5.3186684,0.11968201,-8.229335
-5.3186684,0.11968201,-8.229335
-5.2037735000000005,-0.2441513,-8.44955
-5.2037735000000005,-0.2441513,-8.44955
-5.2037735000000005,-0.2441513,-8.44955
-5.2037735000000005,-0.2441513,-8.44955
-5.2516465,-0.36862057,-8.439975
-5.2516465,-0.36862057,-8.439975
-5.2516465,-0.36862057,-8.439975
-5.2516465,-0.36862057,-8.439975
-5.06973,-0.33032233,-8.439975
-5.06973,-0.33032233,-8.439975
-5.06973,-0.33032233,-8.439975
-5.06973,-0.33032233,-8.439975
-5.088879,-0.014361841,-8.4686985
-5.088879,-0.014361841,-8.4686985
-5.088879,-0.014361841,-8.4686985
-5.088879,-0.014361841,-8.4686985
-5.0505805,0.12925656,-8.392102000000001
-5.0505805,0.12925656,-8.392102000000001
-5.0505805,0.12925656,-8.392102000000001
-5.0505805,0.12925656,-8.392102000000001
-5.002708,-0.110107444,-8.430401
-5.002708,-0.110107444,-8.430401
-5.002708,-0.110107444,-8.430401
-5.06973,-0.13883112,-8.526146
-5.06973,-0.13883112,-8.526146
-5.06973,-0.13883112,-8.526146
-5.06973,-0.13883112,-8.526146
-5.0793040000000005,-0.15798025,-8.487848
-5.0793040000000005,-0.15798025,-8.487848
-5.0793040000000005,-0.15798025,-8.487848
-5.0793040000000005,-0.15798025,-8.487848
-4.993133,0.043085523,-8.535721
-4.993133,0.043085523,-8.535721
-4.993133,0.043085523,-8.535721
-4.993133,0.043085523,-8.535721
-5.1367517,0.12925656,-8.382527
-5.1367517,0.12925656,-8.382527
-5.1367517,0.12925656,-8.382527
-5.1367517,0.12925656,-8.382527
-5.2037735000000005,0.22500217,-8.32508
-5.2037735000000005,0.22500217,-8.32508
-5.2037735000000005,0.22500217,-8.32508
-5.2037735000000005,0.22500217,-8.32508
-5.155901,0.22500217,-8.4686985
-5.155901,0.22500217,-8.4686985
-5.155901,0.22500217,-8.4686985
-5.155901,0.22500217,-8.4686985
-5.289944599999999,0.00478728,-8.372953
-5.289944599999999,0.00478728,-8.372953
-5.289944599999999,0.00478728,-8.372953
-5.2707953000000005,-0.062234644000000006,-8.296356
-5.2707953000000005,-0.062234644000000006,-8.296356
-5.2707953000000005,-0.062234644000000006,-8.296356
-5.2707953000000005,-0.062234644000000006,-8.296356
-5.2707953000000005,-0.062234644000000006,-8.296356
-5.261221,-0.15798025,-8.334655
-5.261221,-0.15798025,-8.334655
-5.261221,-0.15798025,-8.334655
-5.261221,-0.15798025,-8.334655
-5.3378177,-0.16755481,-8.143164
-5.3378177,-0.16755481,-8.143164
-5.3378177,-0.16755481,-8.143164
-5.1846247000000005,-0.5218136,-8.11444
-5.1846247000000005,-0.5218136,-8.11444
-5.1846247000000005,-0.5218136,-8.11444
-5.1846247000000005,-0.5218136,-8.11444
-5.1846247000000005,-0.5218136,-8.11444
-5.1654754,-0.78990126,-8.229335
-5.1654754,-0.78990126,-8.229335
-5.1654754,-0.78990126,-8.229335
-5.366541000000001,-0.49308985,-7.951672599999999
-5.366541000000001,-0.49308985,-7.951672599999999
-5.366541000000001,-0.49308985,-7.951672599999999
-5.366541000000001,-0.49308985,-7.951672599999999
-5.2037735000000005,-0.59841,-8.11444
-5.2037735000000005,-0.59841,-8.11444
-5.2037735000000005,-0.59841,-8.11444
-5.2037735000000005,-0.59841,-8.11444
-5.261221,-1.0196906,-7.9899707
-5.261221,-1.0196906,-7.9899707
-5.261221,-1.0196906,-7.9899707
-5.261221,-1.0196906,-7.9899707
-5.289944599999999,-1.8814011999999998,-6.984642
-5.289944599999999,-1.8814011999999998,-6.984642
-5.289944599999999,-1.8814011999999998,-6.984642
-5.289944599999999,-1.8814011999999998,-6.984642
-5.289944599999999,-1.8814011999999998,-6.984642
-5.289944599999999,-1.8814011999999998,-6.984642
-5.289944599999999,-1.8814011999999998,-6.984642
-5.289944599999999,-1.8814011999999998,-6.984642
-6.505913700000001,-3.5856729,-0.05266008
-6.505913700000001,-3.5856729,-0.05266008
-6.505913700000001,-3.5856729,-0.05266008
-3.8633351,-5.041005999999999,-10.06765
-3.8633351,-5.041005999999999,-10.06765
-3.8633351,-5.041005999999999,-10.06765
-3.8633351,-5.041005999999999,-10.06765
-5.8644185,-2.6377914000000002,-6.946343400000001
-5.8644185,-2.6377914000000002,-6.946343400000001
-5.8644185,-2.6377914000000002,-6.946343400000001
-5.8644185,-2.6377914000000002,-6.946343400000001
-7.3389006,-2.6856642,0.5218136
-7.3389006,-2.6856642,0.5218136
-7.3389006,-2.6856642,0.5218136
-7.3389006,-2.6856642,0.5218136
-7.3389006,-2.6856642,0.5218136
-14.682589000000002,-6.429317500000001,0.0
-14.682589000000002,-6.429317500000001,0.0
-14.682589000000002,-6.429317500000001,0.0
-9.464453,-7.2623043,2.6952388
-9.464453,-7.2623043,2.6952388
-9.464453,-7.2623043,2.6952388
-9.464453,-7.2623043,2.6952388
-8.143164,-2.2356597999999996,-1.9292740000000002
-8.143164,-2.2356597999999996,-1.9292740000000002
-8.143164,-2.2356597999999996,-1.9292740000000002
-8.143164,-2.2356597999999996,-1.9292740000000002
-8.143164,-2.2356597999999996,-1.9292740000000002
-8.210186,-4.8973875,-7.042089
-8.210186,-4.8973875,-7.042089
-8.210186,-4.8973875,-7.042089
-7.0037910000000005,1.4505458999999998,4.476107
-7.0037910000000005,1.4505458999999998,4.476107
-7.0037910000000005,1.4505458999999998,4.476107
-7.0037910000000005,1.4505458999999998,4.476107
-7.0037910000000005,1.4505458999999998,4.476107
-3.690993,-3.0494976,2.7718353
-3.690993,-3.0494976,2.7718353
-3.690993,-3.0494976,2.7718353
-3.690993,-3.0494976,2.7718353
-11.254896,-5.778247400000001,0.6750065
-11.254896,-5.778247400000001,0.6750065
-11.254896,-5.778247400000001,0.6750065
-17.277294,-3.1069447999999995,-2.5803439999999997
-17.277294,-3.1069447999999995,-2.5803439999999997
-17.277294,-3.1069447999999995,-2.5803439999999997
-17.277294,-3.1069447999999995,-2.5803439999999997
-17.277294,-3.1069447999999995,-2.5803439999999997
-12.681505,-2.8197080000000003,1.9196993000000002
-12.681505,-2.8197080000000003,1.9196993000000002
-12.681505,-2.8197080000000003,1.9196993000000002
-9.483603,-2.0058703,2.1877869999999997
-9.483603,-2.0058703,2.1877869999999997
-9.483603,-2.0058703,2.1877869999999997
-9.483603,-2.0058703,2.1877869999999997
-7.463369999999999,-3.1835412999999995,0.8856468000000001
-7.463369999999999,-3.1835412999999995,0.8856468000000001
-7.463369999999999,-3.1835412999999995,0.8856468000000001
-7.463369999999999,-3.1835412999999995,0.8856468000000001
-5.567607,-1.9388485,0.39734426
-5.567607,-1.9388485,0.39734426
-5.567607,-1.9388485,0.39734426
-5.567607,-1.9388485,0.39734426
-5.567607,-1.9388485,0.39734426
-5.567607,-1.9388485,0.39734426
-5.567607,-1.9388485,0.39734426
-5.5963306,-0.8760723,2.9441773999999996
-5.5963306,-0.8760723,2.9441773999999996
-5.5963306,-0.8760723,2.9441773999999996
-5.5963306,-0.8760723,2.9441773999999996
-8.784659,-3.1165195,2.666515
-8.784659,-3.1165195,2.666515
-8.784659,-3.1165195,2.666515
-8.784659,-3.1165195,2.666515
-8.784659,-3.1165195,2.666515
-15.429404000000002,-5.194199,0.11968201
-15.429404000000002,-5.194199,0.11968201
-15.429404000000002,-5.194199,0.11968201
-16.042175,-3.8154623999999995,0.40691882
-16.042175,-3.8154623999999995,0.40691882
-16.042175,-3.8154623999999995,0.40691882
-16.042175,-3.8154623999999995,0.40691882
-11.350641,-1.2111819,1.7952299999999999
-11.350641,-1.2111819,1.7952299999999999
-11.350641,-1.2111819,1.7952299999999999
-11.350641,-1.2111819,1.7952299999999999
-11.350641,-1.2111819,1.7952299999999999
-9.091045,-0.83777404,2.2356597999999996
-9.091045,-0.83777404,2.2356597999999996
-9.091045,-0.83777404,2.2356597999999996
