accx,accy,accz
6.4197426,-1.3548003,7.300602400000001
6.4197426,-1.3548003,7.300602400000001
6.4197426,-1.3548003,7.300602400000001
6.4197426,-1.3548003,7.300602400000001
7.597413499999999,-1.1154363,7.042089
7.597413499999999,-1.1154363,7.042089
7.597413499999999,-1.1154363,7.042089
8.813383,-1.8143792,6.458041000000001
8.813383,-1.8143792,6.458041000000001
8.813383,-1.8143792,6.458041000000001
8.813383,-1.8143792,6.458041000000001
9.292110000000001,-0.36862057,5.500585
9.292110000000001,-0.36862057,5.500585
9.292110000000001,-0.36862057,5.500585
9.292110000000001,-0.36862057,5.500585
11.130426,-2.972901,5.4431376
11.130426,-2.972901,5.4431376
11.130426,-2.972901,5.4431376
11.130426,-2.972901,5.4431376
10.316589,-2.5516202,4.5622783
10.316589,-2.5516202,4.5622783
10.316589,-2.5516202,4.5622783
10.316589,-2.5516202,4.5622783
9.876159,-2.408002,4.0931244
9.876159,-2.408002,4.0931244
9.876159,-2.408002,4.0931244
9.876159,-2.408002,4.0931244
9.014449,-1.4792696,3.3080106
9.014449,-1.4792696,3.3080106
9.014449,-1.4792696,3.3080106
9.014449,-1.4792696,3.3080106
9.560199,-1.9101248,2.9824755
9.560199,-1.9101248,2.9824755
9.560199,-1.9101248,2.9824755
9.560199,-1.9101248,2.9824755
9.828286,-2.2165107999999996,2.752686
9.828286,-2.2165107999999996,2.752686
9.828286,-2.2165107999999996,2.752686
9.828286,-2.2165107999999996,2.752686
10.019777000000001,-1.7856555,2.9154537
10.019777000000001,-1.7856555,2.9154537
10.019777000000001,-1.7856555,2.9154537
10.019777000000001,-1.7856555,2.9154537
9.885734,-1.5558661,2.800559
9.885734,-1.5558661,2.800559
9.885734,-1.5558661,2.800559
9.885734,-1.5558661,2.800559
9.608071,-1.5175678999999997,2.4750240000000003
9.608071,-1.5175678999999997,2.4750240000000003
9.608071,-1.5175678999999997,2.4750240000000003
9.608071,-1.5175678999999997,2.4750240000000003
9.636795,-1.4601203999999999,2.3314054
9.636795,-1.4601203999999999,2.3314054
9.636795,-1.4601203999999999,2.3314054
9.636795,-1.4601203999999999,2.3314054
9.64637,-1.4218222,2.2643836
9.64637,-1.4218222,2.2643836
9.64637,-1.4218222,2.2643836
9.64637,-1.4218222,2.2643836
9.62722,-1.6611862000000002,2.1207652
9.62722,-1.6611862000000002,2.1207652
9.62722,-1.6611862000000002,2.1207652
9.62722,-1.6611862000000002,2.1207652
9.608071,-1.3643749,2.2069361
9.608071,-1.3643749,2.2069361
9.608071,-1.3643749,2.2069361
9.608071,-1.3643749,2.2069361
9.665519,-1.2782038,2.2260852000000004
9.665519,-1.2782038,2.2260852000000004
9.665519,-1.2782038,2.2260852000000004
9.665519,-1.2782038,2.2260852000000004
9.598496,-1.4313968000000001,2.1782124
9.598496,-1.4313968000000001,2.1782124
9.598496,-1.4313968000000001,2.1782124
9.62722,-1.4218222,2.1111906000000005
9.62722,-1.4218222,2.1111906000000005
9.62722,-1.4218222,2.1111906000000005
9.62722,-1.4218222,2.1111906000000005
9.847435,-1.5558661,2.2069361
9.847435,-1.5558661,2.2069361
9.847435,-1.5558661,2.2069361
9.847435,-1.5558661,2.2069361
9.732541000000001,-1.2782038,2.321831
9.732541000000001,-1.2782038,2.321831
9.732541000000001,-1.2782038,2.321831
9.732541000000001,-1.2782038,2.321831
9.655944,-1.2877783999999999,2.2260852000000004
9.655944,-1.2877783999999999,2.2260852000000004
9.655944,-1.2877783999999999,2.2260852000000004
9.655944,-1.2877783999999999,2.2260852000000004
9.5889225,-1.3739493999999999,2.2165107999999996
9.5889225,-1.3739493999999999,2.2165107999999996
9.5889225,-1.3739493999999999,2.2165107999999996
9.5889225,-1.3739493999999999,2.2165107999999996
9.636795,-1.383524,2.2260852000000004
9.636795,-1.383524,2.2260852000000004
9.636795,-1.383524,2.2260852000000004
9.713391,-1.5845897,2.2835326
9.713391,-1.5845897,2.2835326
9.713391,-1.5845897,2.2835326
9.713391,-1.5845897,2.2835326
9.713391,-1.5845897,2.2835326
9.722966,-1.6707608,2.3026817000000004
9.722966,-1.6707608,2.3026817000000004
9.722966,-1.6707608,2.3026817000000004
9.722966,-1.6707608,2.3026817000000004
9.6942425,-1.4313968000000001,2.3505547000000004
9.6942425,-1.4313968000000001,2.3505547000000004
9.6942425,-1.4313968000000001,2.3505547000000004
9.6942425,-1.4313968000000001,2.3505547000000004
9.483603,-1.2494801000000002,2.34098
9.483603,-1.2494801000000002,2.34098
9.483603,-1.2494801000000002,2.34098
9.483603,-1.2494801000000002,2.34098
9.64637,-1.5654407,2.2835326
9.64637,-1.5654407,2.2835326
9.64637,-1.5654407,2.2835326
9.64637,-1.5654407,2.2835326
9.742115,-1.5271424,2.34098
9.742115,-1.5271424,2.34098
9.742115,-1.5271424,2.34098
9.742115,-1.5271424,2.34098
9.722966,-1.5367169,2.2643836
9.722966,-1.5367169,2.2643836
9.722966,-1.5367169,2.2643836
9.722966,-1.5367169,2.2643836
9.617646,-1.5367169,2.360129
9.617646,-1.5367169,2.360129
9.617646,-1.5367169,2.360129
9.617646,-1.5367169,2.360129
9.665519,-1.5558661,2.5037475
9.665519,-1.5558661,2.5037475
9.665519,-1.5558661,2.5037475
9.665519,-1.5558661,2.5037475
9.617646,-1.5271424,2.4558747000000003
9.617646,-1.5271424,2.4558747000000003
9.617646,-1.5271424,2.4558747000000003
9.617646,-1.5271424,2.4558747000000003
9.617646,-1.5271424,2.4558747000000003
9.64637,-1.6228879999999999,2.4175766
9.64637,-1.6228879999999999,2.4175766
9.64637,-1.6228879999999999,2.4175766
9.54105,-1.5750152,2.4558747000000003
9.54105,-1.5750152,2.4558747000000003
9.54105,-1.5750152,2.4558747000000003
9.54105,-1.5750152,2.4558747000000003
9.426155,-1.4984187,2.3792782000000003
9.426155,-1.4984187,2.3792782000000003
9.426155,-1.4984187,2.3792782000000003
9.426155,-1.4984187,2.3792782000000003
9.426155,-1.4984187,2.3792782000000003
9.5219,-1.7377827000000001,2.3314054
9.5219,-1.7377827000000001,2.3314054
9.5219,-1.7377827000000001,2.3314054
9.608071,-1.6707608,2.5994933
9.608071,-1.6707608,2.5994933
9.608071,-1.6707608,2.5994933
9.608071,-1.6707608,2.5994933
9.531475,-1.709059,2.6856642
9.531475,-1.709059,2.6856642
9.531475,-1.709059,2.6856642
9.531475,-1.709059,2.6856642
9.483603,-1.6037389,2.6760897999999997
9.483603,-1.6037389,2.6760897999999997
9.483603,-1.6037389,2.6760897999999997
9.483603,-1.6037389,2.6760897999999997
9.5889225,-1.5271424,2.6760897999999997
9.5889225,-1.5271424,2.6760897999999997
9.5889225,-1.5271424,2.6760897999999997
9.5889225,-1.5271424,2.6760897999999997
9.569773,-1.5367169,2.5420458
9.569773,-1.5367169,2.5420458
9.569773,-1.5367169,2.5420458
9.569773,-1.5367169,2.5420458
9.445304,-1.4122477,2.561195
9.445304,-1.4122477,2.561195
9.445304,-1.4122477,2.561195
9.445304,-1.4122477,2.561195
9.483603,-1.469695,2.4367256
9.483603,-1.469695,2.4367256
9.483603,-1.469695,2.4367256
9.54105,-1.469695,2.5324712000000003
9.54105,-1.469695,2.5324712000000003
9.54105,-1.469695,2.5324712000000003
9.54105,-1.469695,2.5324712000000003
9.608071,-1.5558661,2.5037475
9.608071,-1.5558661,2.5037475
9.608071,-1.5558661,2.5037475
9.608071,-1.5558661,2.5037475
9.464453,-1.4792696,2.5037475
9.464453,-1.4792696,2.5037475
9.464453,-1.4792696,2.5037475
9.464453,-1.4792696,2.5037475
9.474028,-1.5558661,2.561195
9.474028,-1.5558661,2.561195
9.474028,-1.5558661,2.561195
9.474028,-1.5558661,2.561195
9.64637,-1.5558661,2.7048132000000003
9.64637,-1.5558661,2.7048132000000003
9.64637,-1.5558661,2.7048132000000003
9.64637,-1.5558661,2.7048132000000003
9.617646,-1.6037389,2.6952388
9.617646,-1.6037389,2.6952388
9.617646,-1.6037389,2.6952388
9.598496,-1.4601203999999999,2.5803439999999997
9.598496,-1.4601203999999999,2.5803439999999997
9.598496,-1.4601203999999999,2.5803439999999997
9.598496,-1.4601203999999999,2.5803439999999997
9.560199,-1.4409714,2.5803439999999997
9.560199,-1.4409714,2.5803439999999997
9.560199,-1.4409714,2.5803439999999997
9.560199,-1.4409714,2.5803439999999997
9.62722,-1.4026731000000001,2.3984275
9.62722,-1.4026731000000001,2.3984275
9.62722,-1.4026731000000001,2.3984275
9.62722,-1.4026731000000001,2.3984275
9.560199,-1.5367169,2.254809
9.560199,-1.5367169,2.254809
9.560199,-1.5367169,2.254809
9.560199,-1.5367169,2.254809
9.41658,-1.3548003,2.4654493
9.41658,-1.3548003,2.4654493
9.41658,-1.3548003,2.4654493
9.41658,-1.3548003,2.4654493
9.655944,-1.4218222,2.5516202
9.655944,-1.4218222,2.5516202
9.655944,-1.4218222,2.5516202
9.655944,-1.4218222,2.5516202
9.761265,-1.7569318999999999,2.3888528
9.761265,-1.7569318999999999,2.3888528
9.761265,-1.7569318999999999,2.3888528
9.761265,-1.7569318999999999,2.3888528
9.397431,-1.5941644,2.427151
9.397431,-1.5941644,2.427151
9.397431,-1.5941644,2.427151
9.397431,-1.5941644,2.427151
9.655944,-1.6037389,2.6090677
9.655944,-1.6037389,2.6090677
9.655944,-1.6037389,2.6090677
9.655944,-1.6037389,2.6090677
9.665519,-1.709059,2.5037475
9.665519,-1.709059,2.5037475
9.665519,-1.709059,2.5037475
9.560199,-1.5175678999999997,2.3697037999999995
9.560199,-1.5175678999999997,2.3697037999999995
9.560199,-1.5175678999999997,2.3697037999999995
9.560199,-1.5175678999999997,2.3697037999999995
9.560199,-1.5175678999999997,2.3697037999999995
9.569773,-1.4026731000000001,2.4558747000000003
9.569773,-1.4026731000000001,2.4558747000000003
9.569773,-1.4026731000000001,2.4558747000000003
9.569773,-1.4026731000000001,2.4558747000000003
9.665519,-1.5271424,2.4558747000000003
9.665519,-1.5271424,2.4558747000000003
9.665519,-1.5271424,2.4558747000000003
9.665519,-1.5271424,2.4558747000000003
9.62722,-1.5941644,2.408002
9.62722,-1.5941644,2.408002
9.62722,-1.5941644,2.408002
9.62722,-1.5941644,2.408002
9.531475,-1.6133133999999998,2.3697037999999995
9.531475,-1.6133133999999998,2.3697037999999995
9.531475,-1.6133133999999998,2.3697037999999995
9.64637,-1.6707608,2.3697037999999995
9.64637,-1.6707608,2.3697037999999995
9.64637,-1.6707608,2.3697037999999995
9.64637,-1.6707608,2.3697037999999995
9.636795,-1.6899098999999997,2.3792782000000003
9.636795,-1.6899098999999997,2.3792782000000003
9.636795,-1.6899098999999997,2.3792782000000003
9.636795,-1.6899098999999997,2.3792782000000003
9.62722,-1.6037389,2.3697037999999995
9.62722,-1.6037389,2.3697037999999995
9.62722,-1.6037389,2.3697037999999995
9.62722,-1.6037389,2.3697037999999995
9.62722,-1.6037389,2.3697037999999995
9.569773,-1.6228879999999999,2.427151
9.569773,-1.6228879999999999,2.427151
9.569773,-1.6228879999999999,2.427151
9.64637,-1.5367169,2.4845984
9.64637,-1.5367169,2.4845984
9.64637,-1.5367169,2.4845984
9.64637,-1.5367169,2.4845984
9.64637,-1.5367169,2.4845984
9.569773,-1.6037389,2.427151
9.569773,-1.6037389,2.427151
9.569773,-1.6037389,2.427151
9.636795,-1.5367169,2.494173
9.636795,-1.5367169,2.494173
9.636795,-1.5367169,2.494173
9.636795,-1.5367169,2.494173
9.579348,-1.5271424,2.5516202
9.579348,-1.5271424,2.5516202
9.579348,-1.5271424,2.5516202
9.579348,-1.5271424,2.5516202
9.502751,-1.6133133999999998,2.5228968
9.502751,-1.6133133999999998,2.5228968
9.502751,-1.6133133999999998,2.5228968
9.502751,-1.6133133999999998,2.5228968
9.617646,-1.5367169,2.3888528
9.617646,-1.5367169,2.3888528
9.617646,-1.5367169,2.3888528
9.617646,-1.5367169,2.3888528
9.550624000000001,-1.8814011999999998,2.2643836
9.550624000000001,-1.8814011999999998,2.2643836
9.550624000000001,-1.8814011999999998,2.2643836
9.550624000000001,-1.8814011999999998,2.2643836
9.550624000000001,-1.4984187,2.5324712000000003
9.550624000000001,-1.4984187,2.5324712000000003
9.550624000000001,-1.4984187,2.5324712000000003
9.550624000000001,-1.4984187,2.5324712000000003
9.550624000000001,-1.6228879999999999,2.513322
9.550624000000001,-1.6228879999999999,2.513322
9.550624000000001,-1.6228879999999999,2.513322
9.550624000000001,-1.6228879999999999,2.513322
9.512326,-1.5271424,2.427151
9.512326,-1.5271424,2.427151
9.512326,-1.5271424,2.427151
9.512326,-1.5271424,2.427151
9.569773,-1.5654407,2.3505547000000004
9.569773,-1.5654407,2.3505547000000004
9.569773,-1.5654407,2.3505547000000004
9.569773,-1.5654407,2.3505547000000004
9.569773,-1.5654407,2.3505547000000004
9.5889225,-1.5845897,2.3505547000000004
9.5889225,-1.5845897,2.3505547000000004
9.5889225,-1.5845897,2.3505547000000004
9.62722,-1.4792696,2.408002
9.62722,-1.4792696,2.408002
9.62722,-1.4792696,2.408002
9.62722,-1.4792696,2.408002
9.598496,-1.5750152,2.4367256
9.598496,-1.5750152,2.4367256
9.598496,-1.5750152,2.4367256
9.598496,-1.5750152,2.4367256
9.598496,-1.5750152,2.4367256
9.617646,-1.4409714,2.5994933
9.617646,-1.4409714,2.5994933
9.617646,-1.4409714,2.5994933
9.5889225,-1.5654407,2.6186423
9.5889225,-1.5654407,2.6186423
9.5889225,-1.5654407,2.6186423
9.5889225,-1.5654407,2.6186423
9.655944,-1.7665064,2.4367256
9.655944,-1.7665064,2.4367256
9.655944,-1.7665064,2.4367256
9.655944,-1.7665064,2.4367256
9.655944,-1.7665064,2.4367256
9.64637,-1.8048046999999998,2.3505547000000004
9.64637,-1.8048046999999998,2.3505547000000004
9.64637,-1.8048046999999998,2.3505547000000004
9.569773,-1.709059,2.4558747000000003
9.569773,-1.709059,2.4558747000000003
9.569773,-1.709059,2.4558747000000003
9.569773,-1.709059,2.4558747000000003
9.6942425,-1.6228879999999999,2.4654493
9.6942425,-1.6228879999999999,2.4654493
9.6942425,-1.6228879999999999,2.4654493
9.6942425,-1.6228879999999999,2.4654493
9.6942425,-1.6228879999999999,2.4654493
9.397431,-1.5941644,2.3026817000000004
9.397431,-1.5941644,2.3026817000000004
9.397431,-1.5941644,2.3026817000000004
9.397431,-1.5941644,2.3026817000000004
9.512326,-1.6133133999999998,2.360129
9.512326,-1.6133133999999998,2.360129
9.512326,-1.6133133999999998,2.360129
9.5219,-1.6324625,2.5707695
9.5219,-1.6324625,2.5707695
9.5219,-1.6324625,2.5707695
9.5219,-1.6324625,2.5707695
9.550624000000001,-1.7569318999999999,2.513322
9.550624000000001,-1.7569318999999999,2.513322
9.550624000000001,-1.7569318999999999,2.513322
9.550624000000001,-1.7569318999999999,2.513322
9.598496,-1.6611862000000002,2.513322
9.598496,-1.6611862000000002,2.513322
9.598496,-1.6611862000000002,2.513322
9.598496,-1.6611862000000002,2.513322
9.62722,-1.6324625,2.5228968
9.62722,-1.6324625,2.5228968
9.62722,-1.6324625,2.5228968
9.62722,-1.6324625,2.5228968
9.75169,-1.7569318999999999,2.427151
9.75169,-1.7569318999999999,2.427151
9.75169,-1.7569318999999999,2.427151
9.75169,-1.7569318999999999,2.427151
9.5889225,-1.4505458999999998,2.6952388
9.5889225,-1.4505458999999998,2.6952388
9.5889225,-1.4505458999999998,2.6952388
9.5889225,-1.4505458999999998,2.6952388
9.215514,-1.3165021000000001,2.494173
9.215514,-1.3165021000000001,2.494173
9.215514,-1.3165021000000001,2.494173
9.215514,-1.3165021000000001,2.494173
9.397431,-1.1728836,2.3697037999999995
9.397431,-1.1728836,2.3697037999999995
9.397431,-1.1728836,2.3697037999999995
9.397431,-1.1728836,2.3697037999999995
9.722966,-1.2590546999999999,2.3792782000000003
9.722966,-1.2590546999999999,2.3792782000000003
9.722966,-1.2590546999999999,2.3792782000000003
9.722966,-1.2590546999999999,2.3792782000000003
10.000628,-0.9718179,2.7239625
10.000628,-0.9718179,2.7239625
10.000628,-0.9718179,2.7239625
10.000628,-0.9718179,2.7239625
9.435728999999998,-1.2207563999999997,2.9250283
9.435728999999998,-1.2207563999999997,2.9250283
9.435728999999998,-1.2207563999999997,2.9250283
9.435728999999998,-1.2207563999999997,2.9250283
9.435728999999998,-1.2207563999999997,2.9250283
9.320834,-1.3356511999999998,3.3463089999999998
9.320834,-1.3356511999999998,3.3463089999999998
9.320834,-1.3356511999999998,3.3463089999999998
8.813383,-1.709059,3.3654580000000003
8.813383,-1.709059,3.3654580000000003
8.813383,-1.709059,3.3654580000000003
8.813383,-1.709059,3.3654580000000003
8.717637,-2.0728923999999997,3.1165195
8.717637,-2.0728923999999997,3.1165195
8.717637,-2.0728923999999997,3.1165195
8.717637,-2.0728923999999997,3.1165195
8.717637,-2.0728923999999997,3.1165195
7.875075999999999,-2.0728923999999997,2.714388
7.875075999999999,-2.0728923999999997,2.714388
7.875075999999999,-2.0728923999999997,2.714388
5.960164,-1.2399056,2.6186423
5.960164,-1.2399056,2.6186423
5.960164,-1.2399056,2.6186423
5.960164,-1.2399056,2.6186423
5.2516465,-1.2399056,2.254809
5.2516465,-1.2399056,2.254809
5.2516465,-1.2399056,2.254809
5.2516465,-1.2399056,2.254809
5.2516465,-1.2399056,2.254809
9.301685,-1.6803354,2.5803439999999997
9.301685,-1.6803354,2.5803439999999997
9.301685,-1.6803354,2.5803439999999997
10.584677000000001,-1.2016073,2.905879
10.584677000000001,-1.2016073,2.905879
10.584677000000001,-1.2016073,2.905879
10.584677000000001,-1.2016073,2.905879
14.720885999999998,-2.2165107999999996,2.6090677
14.720885999999998,-2.2165107999999996,2.6090677
14.720885999999998,-2.2165107999999996,2.6090677
14.720885999999998,-2.2165107999999996,2.6090677
14.720885999999998,-2.2165107999999996,2.6090677
13.782579,-1.5079931999999998,1.6516117
13.782579,-1.5079931999999998,1.6516117
13.782579,-1.5079931999999998,1.6516117
13.782579,-1.5079931999999998,1.6516117
12.90172,-1.3452256999999999,1.2303311000000001
12.90172,-1.3452256999999999,1.2303311000000001
12.90172,-1.3452256999999999,1.2303311000000001
8.085716,-1.0771381000000002,2.1303396
8.085716,-1.0771381000000002,2.1303396
8.085716,-1.0771381000000002,2.1303396
8.085716,-1.0771381000000002,2.1303396
8.085716,-1.0771381000000002,2.1303396
5.222923000000001,-1.469695,2.2835326
5.222923000000001,-1.469695,2.2835326
5.222923000000001,-1.469695,2.2835326
5.222923000000001,-1.469695,2.2835326
4.993133,-1.383524,2.0824668
4.993133,-1.383524,2.0824668
4.993133,-1.383524,2.0824668
5.548457599999999,-1.6707608,1.6707608
5.548457599999999,-1.6707608,1.6707608
5.548457599999999,-1.6707608,1.6707608
5.548457599999999,-1.6707608,1.6707608
5.548457599999999,-1.6707608,1.6707608
9.052747,-1.383524,1.6420371999999999
9.052747,-1.383524,1.6420371999999999
9.052747,-1.383524,1.6420371999999999
9.052747,-1.383524,1.6420371999999999
18.282623,-0.56011176,1.7377827000000001
18.282623,-0.56011176,1.7377827000000001
18.282623,-0.56011176,1.7377827000000001
17.066654,-1.0292653,2.360129
17.066654,-1.0292653,2.360129
17.066654,-1.0292653,2.360129
17.066654,-1.0292653,2.360129
17.066654,-1.0292653,2.360129
9.569773,-1.0101161,2.5037475
9.569773,-1.0101161,2.5037475
9.569773,-1.0101161,2.5037475
9.569773,-1.0101161,2.5037475
5.806971,-1.4409714,3.3080106
5.806971,-1.4409714,3.3080106
5.806971,-1.4409714,3.3080106
5.806971,-1.4409714,3.3080106
4.409085299999999,-2.3314054,3.0303482999999996
4.409085299999999,-2.3314054,3.0303482999999996
4.409085299999999,-2.3314054,3.0303482999999996
4.409085299999999,-2.3314054,3.0303482999999996
4.993133,-1.8814011999999998,2.9250283
4.993133,-1.8814011999999998,2.9250283
4.993133,-1.8814011999999998,2.9250283
4.993133,-1.8814011999999998,2.9250283
5.548457599999999,-1.2303311000000001,2.254809
5.548457599999999,-1.2303311000000001,2.254809
5.548457599999999,-1.2303311000000001,2.254809
5.548457599999999,-1.2303311000000001,2.254809
11.934689500000001,-1.6803354,2.3505547000000004
11.934689500000001,-1.6803354,2.3505547000000004
11.934689500000001,-1.6803354,2.3505547000000004
11.934689500000001,-1.6803354,2.3505547000000004
14.625141000000001,-1.709059,1.6516117
14.625141000000001,-1.709059,1.6516117
14.625141000000001,-1.709059,1.6516117
14.625141000000001,-1.709059,1.6516117
17.066654,-2.8388572,1.2973529
17.066654,-2.8388572,1.2973529
17.066654,-2.8388572,1.2973529
17.066654,-2.8388572,1.2973529
10.517653999999999,-0.8473485999999999,2.561195
10.517653999999999,-0.8473485999999999,2.561195
10.517653999999999,-0.8473485999999999,2.561195
10.517653999999999,-0.8473485999999999,2.561195
6.4197426,-2.2643836,1.776081
6.4197426,-2.2643836,1.776081
6.4197426,-2.2643836,1.776081
6.4197426,-2.2643836,1.776081
3.6335455999999997,-1.948423,1.7377827000000001
3.6335455999999997,-1.948423,1.7377827000000001
3.6335455999999997,-1.948423,1.7377827000000001
3.6335455999999997,-1.948423,1.7377827000000001
4.7058964,-1.8239537000000001,1.8048046999999998
4.7058964,-1.8239537000000001,1.8048046999999998
4.7058964,-1.8239537000000001,1.8048046999999998
4.7058964,-1.8239537000000001,1.8048046999999998
11.321918,-1.4218222,1.8814011999999998
11.321918,-1.4218222,1.8814011999999998
11.321918,-1.4218222,1.8814011999999998
11.321918,-1.4218222,1.8814011999999998
19.517742000000002,-1.2590546999999999,2.3792782000000003
19.517742000000002,-1.2590546999999999,2.3792782000000003
19.517742000000002,-1.2590546999999999,2.3792782000000003
19.517742000000002,-1.2590546999999999,2.3792782000000003
15.027272,-1.9962958,3.1739669999999998
15.027272,-1.9962958,3.1739669999999998
15.027272,-1.9962958,3.1739669999999998
15.027272,-1.9962958,3.1739669999999998
10.134672,-1.4984187,4.2654667
10.134672,-1.4984187,4.2654667
10.134672,-1.4984187,4.2654667
10.134672,-1.4984187,4.2654667
2.101616,-1.0005416,3.2888615
2.101616,-1.0005416,3.2888615
2.101616,-1.0005416,3.2888615
2.101616,-1.0005416,3.2888615
3.690993,-2.408002,2.408002
3.690993,-2.408002,2.408002
3.690993,-2.408002,2.408002
3.690993,-2.408002,2.408002
5.2037735000000005,-1.8814011999999998,2.7431116
5.2037735000000005,-1.8814011999999998,2.7431116
5.2037735000000005,-1.8814011999999998,2.7431116
5.2037735000000005,-1.8814011999999998,2.7431116
5.2037735000000005,-1.8814011999999998,2.7431116
7.214431299999999,-2.101616,2.3984275
7.214431299999999,-2.101616,2.3984275
7.214431299999999,-2.101616,2.3984275
11.005958,-1.9867213,1.8909756999999998
11.005958,-1.9867213,1.8909756999999998
11.005958,-1.9867213,1.8909756999999998
11.005958,-1.9867213,1.8909756999999998
15.96558,-2.254809,0.59841
15.96558,-2.254809,0.59841
15.96558,-2.254809,0.59841
15.96558,-2.254809,0.59841
15.96558,-2.254809,0.59841
17.803895999999998,-2.2643836,1.0675635
17.803895999999998,-2.2643836,1.0675635
17.803895999999998,-2.2643836,1.0675635
10.757019,-1.1250108,2.9346027
10.757019,-1.1250108,2.9346027
10.757019,-1.1250108,2.9346027
10.757019,-1.1250108,2.9346027
3.5856729,-2.6090677,1.8239537000000001
3.5856729,-2.6090677,1.8239537000000001
3.5856729,-2.6090677,1.8239537000000001
3.5856729,-2.6090677,1.8239537000000001
3.3558834,-2.752686,1.7665064
3.3558834,-2.752686,1.7665064
3.3558834,-2.752686,1.7665064
3.3558834,-2.752686,1.7665064
5.6154795,-1.5845897,2.1399142999999996
5.6154795,-1.5845897,2.1399142999999996
5.6154795,-1.5845897,2.1399142999999996
5.6154795,-1.5845897,2.1399142999999996
9.971905,-1.6228879999999999,2.0824668
9.971905,-1.6228879999999999,2.0824668
9.971905,-1.6228879999999999,2.0824668
9.971905,-1.6228879999999999,2.0824668
14.740035999999998,-1.6899098999999997,1.3739493999999999
14.740035999999998,-1.6899098999999997,1.3739493999999999
14.740035999999998,-1.6899098999999997,1.3739493999999999
14.740035999999998,-1.6899098999999997,1.3739493999999999
14.740035999999998,-1.6899098999999997,1.3739493999999999
17.918789999999998,-3.0973704,2.1111906000000005
17.918789999999998,-3.0973704,2.1111906000000005
17.918789999999998,-3.0973704,2.1111906000000005
8.55487,-1.948423,3.193116
8.55487,-1.948423,3.193116
8.55487,-1.948423,3.193116
8.55487,-1.948423,3.193116
5.8548436,-1.7473572,3.6431203
5.8548436,-1.7473572,3.6431203
5.8548436,-1.7473572,3.6431203
5.8548436,-1.7473572,3.6431203
3.7292912000000005,-1.4888442,3.2505634
3.7292912000000005,-1.4888442,3.2505634
3.7292912000000005,-1.4888442,3.2505634
3.7292912000000005,-1.4888442,3.2505634
5.021857,-2.1399142999999996,2.8292825
5.021857,-2.1399142999999996,2.8292825
5.021857,-2.1399142999999996,2.8292825
5.021857,-2.1399142999999996,2.8292825
7.0995364,-1.4122477,2.4750240000000003
7.0995364,-1.4122477,2.4750240000000003
7.0995364,-1.4122477,2.4750240000000003
7.0995364,-1.4122477,2.4750240000000003
13.3612995,-1.469695,1.2016073
13.3612995,-1.469695,1.2016073
13.3612995,-1.469695,1.2016073
13.3612995,-1.469695,1.2016073
17.727299,-1.8526775000000002,0.9430941999999999
17.727299,-1.8526775000000002,0.9430941999999999
17.727299,-1.8526775000000002,0.9430941999999999
17.727299,-1.8526775000000002,0.9430941999999999
15.592172,-2.3026817000000004,1.2016073
15.592172,-2.3026817000000004,1.2016073
15.592172,-2.3026817000000004,1.2016073
15.592172,-2.3026817000000004,1.2016073
10.316589,-1.9388485,2.6377914000000002
10.316589,-1.9388485,2.6377914000000002
10.316589,-1.9388485,2.6377914000000002
10.316589,-1.9388485,2.6377914000000002
3.7197167999999996,-2.7909843999999997,1.9579976000000003
3.7197167999999996,-2.7909843999999997,1.9579976000000003
3.7197167999999996,-2.7909843999999997,1.9579976000000003
3.7197167999999996,-2.7909843999999997,1.9579976000000003
4.3995104000000005,-2.8580062,1.8239537000000001
4.3995104000000005,-2.8580062,1.8239537000000001
4.3995104000000005,-2.8580062,1.8239537000000001
4.3995104000000005,-2.8580062,1.8239537000000001
6.132505999999999,-1.5271424,1.9867213
6.132505999999999,-1.5271424,1.9867213
6.132505999999999,-1.5271424,1.9867213
6.132505999999999,-1.5271424,1.9867213
9.933606,-2.321831,1.6324625
9.933606,-2.321831,1.6324625
9.933606,-2.321831,1.6324625
9.933606,-2.321831,1.6324625
14.270883,-2.360129,2.1399142999999996
14.270883,-2.360129,2.1399142999999996
14.270883,-2.360129,2.1399142999999996
14.270883,-2.360129,2.1399142999999996
15.467703,-2.101616,2.7431116
15.467703,-2.101616,2.7431116
15.467703,-2.101616,2.7431116
12.375119,-1.2877783999999999,3.518651
12.375119,-1.2877783999999999,3.518651
12.375119,-1.2877783999999999,3.518651
12.375119,-1.2877783999999999,3.518651
5.9218655,-0.46436617,3.3080106
5.9218655,-0.46436617,3.3080106
5.9218655,-0.46436617,3.3080106
5.9218655,-0.46436617,3.3080106
4.2080193,-2.3888528,2.101616
4.2080193,-2.3888528,2.101616
4.2080193,-2.3888528,2.101616
4.2080193,-2.3888528,2.101616
5.4335629999999995,-2.0920415,2.4175766
5.4335629999999995,-2.0920415,2.4175766
5.4335629999999995,-2.0920415,2.4175766
5.4335629999999995,-2.0920415,2.4175766
6.1612295999999995,-1.7282081999999999,2.7239625
6.1612295999999995,-1.7282081999999999,2.7239625
6.1612295999999995,-1.7282081999999999,2.7239625
6.1612295999999995,-1.7282081999999999,2.7239625
8.889978999999999,-2.4367256,2.3122563
8.889978999999999,-2.4367256,2.3122563
8.889978999999999,-2.4367256,2.3122563
8.889978999999999,-2.4367256,2.3122563
15.400681,-1.6228879999999999,1.469695
15.400681,-1.6228879999999999,1.469695
15.400681,-1.6228879999999999,1.469695
15.400681,-1.6228879999999999,1.469695
18.579435,-2.7048132000000003,1.3548003
18.579435,-2.7048132000000003,1.3548003
18.579435,-2.7048132000000003,1.3548003
18.579435,-2.7048132000000003,1.3548003
11.149575,-1.6516117,2.4558747000000003
11.149575,-1.6516117,2.4558747000000003
11.149575,-1.6516117,2.4558747000000003
11.149575,-1.6516117,2.4558747000000003
6.410168,-1.2686293,3.7005677
6.410168,-1.2686293,3.7005677
6.410168,-1.2686293,3.7005677
6.410168,-1.2686293,3.7005677
3.9686553,-1.8526775000000002,2.5516202
3.9686553,-1.8526775000000002,2.5516202
3.9686553,-1.8526775000000002,2.5516202
3.9686553,-1.8526775000000002,2.5516202
3.671844,-1.5079931999999998,1.6707608
3.671844,-1.5079931999999998,1.6707608
3.671844,-1.5079931999999998,1.6707608
3.671844,-1.5079931999999998,1.6707608
7.022939999999999,-2.2165107999999996,1.6516117
7.022939999999999,-2.2165107999999996,1.6516117
7.022939999999999,-2.2165107999999996,1.6516117
7.022939999999999,-2.2165107999999996,1.6516117
13.878325,-1.2973529,2.2069361
13.878325,-1.2973529,2.2069361
13.878325,-1.2973529,2.2069361
13.878325,-1.2973529,2.2069361
17.918789999999998,-2.0728923999999997,3.078221
17.918789999999998,-2.0728923999999997,3.078221
17.918789999999998,-2.0728923999999997,3.078221
17.918789999999998,-2.0728923999999997,3.078221
11.446387,-3.3367343000000003,4.3133397
11.446387,-3.3367343000000003,4.3133397
11.446387,-3.3367343000000003,4.3133397
11.446387,-3.3367343000000003,4.3133397
7.6740103,-1.3739493999999999,4.849515
7.6740103,-1.3739493999999999,4.849515
7.6740103,-1.3739493999999999,4.849515
7.6740103,-1.3739493999999999,4.849515
4.5718527,-2.666515,3.1452432
4.5718527,-2.666515,3.1452432
4.5718527,-2.666515,3.1452432
4.2080193,-3.0686467,2.88673
4.2080193,-3.0686467,2.88673
4.2080193,-3.0686467,2.88673
4.2080193,-3.0686467,2.88673
5.2037735000000005,-1.9388485,3.1739669999999998
5.2037735000000005,-1.9388485,3.1739669999999998
5.2037735000000005,-1.9388485,3.1739669999999998
5.2037735000000005,-1.9388485,3.1739669999999998
10.278291000000001,-1.8143792,3.2792869
10.278291000000001,-1.8143792,3.2792869
10.278291000000001,-1.8143792,3.2792869
10.278291000000001,-1.8143792,3.2792869
16.19537,-1.2303311000000001,3.3367343000000003
16.19537,-1.2303311000000001,3.3367343000000003
16.19537,-1.2303311000000001,3.3367343000000003
16.19537,-1.2303311000000001,3.3367343000000003
16.731544,-1.7665064,2.2931072999999995
16.731544,-1.7665064,2.2931072999999995
16.731544,-1.7665064,2.2931072999999995
16.731544,-1.7665064,2.2931072999999995
14.778334,-1.7282081999999999,1.9388485
14.778334,-1.7282081999999999,1.9388485
14.778334,-1.7282081999999999,1.9388485
14.778334,-1.7282081999999999,1.9388485
8.258059,-1.9196993000000002,2.3314054
8.258059,-1.9196993000000002,2.3314054
8.258059,-1.9196993000000002,2.3314054
8.258059,-1.9196993000000002,2.3314054
6.132505999999999,-2.034594,2.0441686999999997
6.132505999999999,-2.034594,2.0441686999999997
6.132505999999999,-2.034594,2.0441686999999997
6.132505999999999,-2.034594,2.0441686999999997
7.463369999999999,-1.8718264999999998,1.9101248
7.463369999999999,-1.8718264999999998,1.9101248
7.463369999999999,-1.8718264999999998,1.9101248
7.463369999999999,-1.8718264999999998,1.9101248
9.41658,-1.6037389,2.1973617
9.41658,-1.6037389,2.1973617
9.41658,-1.6037389,2.1973617
9.41658,-1.6037389,2.1973617
11.953838000000001,-1.383524,2.2643836
11.953838000000001,-1.383524,2.2643836
11.953838000000001,-1.383524,2.2643836
11.953838000000001,-1.383524,2.2643836
12.604909,-1.0675635,2.015445
12.604909,-1.0675635,2.015445
12.604909,-1.0675635,2.015445
12.604909,-1.0675635,2.015445
10.230417999999998,-0.56968635,1.6611862000000002
10.230417999999998,-0.56968635,1.6611862000000002
10.230417999999998,-0.56968635,1.6611862000000002
10.230417999999998,-0.56968635,1.6611862000000002
10.029352000000001,0.13883112,1.7186337
10.029352000000001,0.13883112,1.7186337
10.029352000000001,0.13883112,1.7186337
10.029352000000001,0.13883112,1.7186337
6.2091026,-1.0292653,1.469695
6.2091026,-1.0292653,1.469695
6.2091026,-1.0292653,1.469695
6.2091026,-1.0292653,1.469695
7.022939999999999,-1.6228879999999999,2.1303396
7.022939999999999,-1.6228879999999999,2.1303396
7.022939999999999,-1.6228879999999999,2.1303396
7.022939999999999,-1.6228879999999999,2.1303396
7.5495410000000005,-1.9292740000000002,2.7431116
7.5495410000000005,-1.9292740000000002,2.7431116
7.5495410000000005,-1.9292740000000002,2.7431116
7.5495410000000005,-1.9292740000000002,2.7431116
9.119769,-2.5899186000000003,3.0303482999999996
9.119769,-2.5899186000000003,3.0303482999999996
9.119769,-2.5899186000000003,3.0303482999999996
9.119769,-2.5899186000000003,3.0303482999999996
11.7336235,-2.3314054,3.8920587999999996
11.7336235,-2.3314054,3.8920587999999996
11.7336235,-2.3314054,3.8920587999999996
11.7336235,-2.3314054,3.8920587999999996
12.987891000000001,-1.7856555,4.016528
12.987891000000001,-1.7856555,4.016528
12.987891000000001,-1.7856555,4.016528
12.987891000000001,-1.7856555,4.016528
10.642124,-1.3069274,3.5856729
10.642124,-1.3069274,3.5856729
10.642124,-1.3069274,3.5856729
10.642124,-1.3069274,3.5856729
11.187874,-1.3643749,2.647366
11.187874,-1.3643749,2.647366
11.187874,-1.3643749,2.647366
11.187874,-1.3643749,2.647366
9.579348,-0.83777404,1.9675721999999998
9.579348,-0.83777404,1.9675721999999998
9.579348,-0.83777404,1.9675721999999998
9.579348,-0.83777404,1.9675721999999998
7.846352,-1.1058618,1.7473572
7.846352,-1.1058618,1.7473572
7.846352,-1.1058618,1.7473572
7.846352,-1.1058618,1.7473572
8.258059,-0.63670826,1.6133133999999998
8.258059,-0.63670826,1.6133133999999998
8.258059,-0.63670826,1.6133133999999998
8.258059,-0.63670826,1.6133133999999998
8.258059,-0.63670826,1.6133133999999998
8.439975,-0.512239,1.5654407
8.439975,-0.512239,1.5654407
8.439975,-0.512239,1.5654407
9.071896,-1.5941644,1.14416
9.071896,-1.5941644,1.14416
9.071896,-1.5941644,1.14416
9.071896,-1.5941644,1.14416
10.450633,-1.4984187,1.7377827000000001
10.450633,-1.4984187,1.7377827000000001
10.450633,-1.4984187,1.7377827000000001
10.450633,-1.4984187,1.7377827000000001
13.782579,-1.2782038,2.0250196
13.782579,-1.2782038,2.0250196
13.782579,-1.2782038,2.0250196
13.782579,-1.2782038,2.0250196
10.814466,-1.709059,1.7569318999999999
10.814466,-1.709059,1.7569318999999999
10.814466,-1.709059,1.7569318999999999
10.814466,-1.709059,1.7569318999999999
9.378282,-1.948423,2.1973617
9.378282,-1.948423,2.1973617
9.378282,-1.948423,2.1973617
9.378282,-1.948423,2.1973617
6.7740016,-1.1345854,2.513322
6.7740016,-1.1345854,2.513322
6.7740016,-1.1345854,2.513322
6.7740016,-1.1345854,2.513322
6.649532300000001,-1.9579976000000003,2.5516202
6.649532300000001,-1.9579976000000003,2.5516202
6.649532300000001,-1.9579976000000003,2.5516202
6.649532300000001,-1.9579976000000003,2.5516202
5.031431700000001,-1.8814011999999998,2.647366
5.031431700000001,-1.8814011999999998,2.647366
5.031431700000001,-1.8814011999999998,2.647366
5.031431700000001,-1.8814011999999998,2.647366
5.108028,-1.8239537000000001,2.5516202
5.108028,-1.8239537000000001,2.5516202
5.108028,-1.8239537000000001,2.5516202
5.108028,-1.8239537000000001,2.5516202
5.108028,-1.8239537000000001,2.5516202
5.108028,-1.8239537000000001,2.5516202
5.108028,-1.8239537000000001,2.5516202
10.689997,-1.9867213,2.905879
10.689997,-1.9867213,2.905879
10.689997,-1.9867213,2.905879
10.689997,-1.9867213,2.905879
14.778334,-2.1782124,2.5228968
14.778334,-2.1782124,2.5228968
14.778334,-2.1782124,2.5228968
14.778334,-2.1782124,2.5228968
18.148579,-2.3505547000000004,2.2260852000000004
18.148579,-2.3505547000000004,2.2260852000000004
18.148579,-2.3505547000000004,2.2260852000000004
18.148579,-2.3505547000000004,2.2260852000000004
11.618729,-0.85692316,1.8431028999999999
11.618729,-0.85692316,1.8431028999999999
11.618729,-0.85692316,1.8431028999999999
11.618729,-0.85692316,1.8431028999999999
5.7495236,-1.4792696,1.7186337
5.7495236,-1.4792696,1.7186337
5.7495236,-1.4792696,1.7186337
5.7495236,-1.4792696,1.7186337
4.610151,-1.6611862000000002,1.948423
4.610151,-1.6611862000000002,1.948423
4.610151,-1.6611862000000002,1.948423
4.610151,-1.6611862000000002,1.948423
5.0793040000000005,-1.0292653,1.8814011999999998
5.0793040000000005,-1.0292653,1.8814011999999998
5.0793040000000005,-1.0292653,1.8814011999999998
5.0793040000000005,-1.0292653,1.8814011999999998
8.00912,-1.9867213,1.0388398
8.00912,-1.9867213,1.0388398
8.00912,-1.9867213,1.0388398
11.810221,-2.4558747000000003,1.2111819
11.810221,-2.4558747000000003,1.2111819
11.810221,-2.4558747000000003,1.2111819
11.810221,-2.4558747000000003,1.2111819
11.810221,-2.4558747000000003,1.2111819
15.218764000000002,-1.1345854,2.1590632999999997
15.218764000000002,-1.1345854,2.1590632999999997
15.218764000000002,-1.1345854,2.1590632999999997
16.271964999999998,-2.0824668,3.5090763999999997
16.271964999999998,-2.0824668,3.5090763999999997
16.271964999999998,-2.0824668,3.5090763999999997
16.271964999999998,-2.0824668,3.5090763999999997
9.062322,-0.5218136,3.7580150000000003
9.062322,-0.5218136,3.7580150000000003
9.062322,-0.5218136,3.7580150000000003
9.062322,-0.5218136,3.7580150000000003
5.38569,-0.56011176,3.0207740000000003
5.38569,-0.56011176,3.0207740000000003
5.38569,-0.56011176,3.0207740000000003
5.38569,-0.56011176,3.0207740000000003
4.0261025,-1.383524,2.1303396
4.0261025,-1.383524,2.1303396
4.0261025,-1.383524,2.1303396
4.0261025,-1.383524,2.1303396
5.2037735000000005,-1.9962958,2.0058703
5.2037735000000005,-1.9962958,2.0058703
5.2037735000000005,-1.9962958,2.0058703
5.2037735000000005,-1.9962958,2.0058703
5.481436,-1.5558661,2.34098
5.481436,-1.5558661,2.34098
5.481436,-1.5558661,2.34098
5.481436,-1.5558661,2.34098
11.810221,-0.34947145,2.34098
11.810221,-0.34947145,2.34098
11.810221,-0.34947145,2.34098
11.810221,-0.34947145,2.34098
19.546464999999998,-1.4888442,1.383524
19.546464999999998,-1.4888442,1.383524
19.546464999999998,-1.4888442,1.383524
19.546464999999998,-1.4888442,1.383524
15.678343,-2.1782124,1.1345854
15.678343,-2.1782124,1.1345854
15.678343,-2.1782124,1.1345854
15.678343,-2.1782124,1.1345854
9.636795,-1.6611862000000002,1.9675721999999998
9.636795,-1.6611862000000002,1.9675721999999998
9.636795,-1.6611862000000002,1.9675721999999998
9.636795,-1.6611862000000002,1.9675721999999998
2.8101335,-1.9675721999999998,1.14416
2.8101335,-1.9675721999999998,1.14416
2.8101335,-1.9675721999999998,1.14416
2.8101335,-1.9675721999999998,1.14416
3.9590807,-2.9154537,1.2207563999999997
3.9590807,-2.9154537,1.2207563999999997
3.9590807,-2.9154537,1.2207563999999997
3.9590807,-2.9154537,1.2207563999999997
6.391019,-2.4367256,1.8814011999999998
6.391019,-2.4367256,1.8814011999999998
6.391019,-2.4367256,1.8814011999999998
6.391019,-2.4367256,1.8814011999999998
10.029352000000001,-1.8239537000000001,2.3984275
10.029352000000001,-1.8239537000000001,2.3984275
10.029352000000001,-1.8239537000000001,2.3984275
10.029352000000001,-1.8239537000000001,2.3984275
15.008123000000001,-1.7377827000000001,2.5803439999999997
15.008123000000001,-1.7377827000000001,2.5803439999999997
15.008123000000001,-1.7377827000000001,2.5803439999999997
15.008123000000001,-1.7377827000000001,2.5803439999999997
16.271964999999998,-2.6377914000000002,2.4175766
16.271964999999998,-2.6377914000000002,2.4175766
16.271964999999998,-2.6377914000000002,2.4175766
16.271964999999998,-2.6377914000000002,2.4175766
16.271964999999998,-2.6377914000000002,2.4175766
11.781497,-0.9526688,3.8824842000000004
11.781497,-0.9526688,3.8824842000000004
11.781497,-0.9526688,3.8824842000000004
6.7548523000000005,-0.3398969,3.6526947
6.7548523000000005,-0.3398969,3.6526947
6.7548523000000005,-0.3398969,3.6526947
6.7548523000000005,-0.3398969,3.6526947
4.4186597,-1.2399056,2.4463003
4.4186597,-1.2399056,2.4463003
4.4186597,-1.2399056,2.4463003
4.4186597,-1.2399056,2.4463003
4.9739842,-2.0633178,2.0441686999999997
4.9739842,-2.0633178,2.0441686999999997
4.9739842,-2.0633178,2.0441686999999997
4.9739842,-2.0633178,2.0441686999999997
5.586755999999999,-1.8431028999999999,2.1399142999999996
5.586755999999999,-1.8431028999999999,2.1399142999999996
5.586755999999999,-1.8431028999999999,2.1399142999999996
5.586755999999999,-1.8431028999999999,2.1399142999999996
8.650616000000001,-1.8335283,2.0824668
8.650616000000001,-1.8335283,2.0824668
8.650616000000001,-1.8335283,2.0824668
8.650616000000001,-1.8335283,2.0824668
16.520905,-1.6611862000000002,2.1877869999999997
16.520905,-1.6611862000000002,2.1877869999999997
16.520905,-1.6611862000000002,2.1877869999999997
18.34007,-1.8718264999999998,1.5079931999999998
18.34007,-1.8718264999999998,1.5079931999999998
18.34007,-1.8718264999999998,1.5079931999999998
18.34007,-1.8718264999999998,1.5079931999999998
18.34007,-1.8718264999999998,1.5079931999999998
14.30918,-1.2207563999999997,1.7282081999999999
14.30918,-1.2207563999999997,1.7282081999999999
14.30918,-1.2207563999999997,1.7282081999999999
5.548457599999999,-0.43564250000000004,2.7048132000000003
5.548457599999999,-0.43564250000000004,2.7048132000000003
5.548457599999999,-0.43564250000000004,2.7048132000000003
5.548457599999999,-0.43564250000000004,2.7048132000000003
5.548457599999999,-0.43564250000000004,2.7048132000000003
2.4654493,-1.7377827000000001,1.5750152
2.4654493,-1.7377827000000001,1.5750152
2.4654493,-1.7377827000000001,1.5750152
2.4654493,-1.7377827000000001,1.5750152
3.690993,-1.5654407,1.3739493999999999
3.690993,-1.5654407,1.3739493999999999
3.690993,-1.5654407,1.3739493999999999
6.8888964999999995,-2.5803439999999997,1.14416
6.8888964999999995,-2.5803439999999997,1.14416
6.8888964999999995,-2.5803439999999997,1.14416
6.8888964999999995,-2.5803439999999997,1.14416
12.193203,-2.4367256,2.0250196
12.193203,-2.4367256,2.0250196
12.193203,-2.4367256,2.0250196
12.193203,-2.4367256,2.0250196
18.02411,-2.1303396,2.4750240000000003
18.02411,-2.1303396,2.4750240000000003
18.02411,-2.1303396,2.4750240000000003
18.02411,-2.1303396,2.4750240000000003
14.76876,-2.4750240000000003,3.8729098
14.76876,-2.4750240000000003,3.8729098
14.76876,-2.4750240000000003,3.8729098
14.76876,-2.4750240000000003,3.8729098
8.602742,-1.0196906,3.671844
8.602742,-1.0196906,3.671844
8.602742,-1.0196906,3.671844
8.602742,-1.0196906,3.671844
4.8973875,-0.20585304,2.7622607000000006
4.8973875,-0.20585304,2.7622607000000006
4.8973875,-0.20585304,2.7622607000000006
4.8973875,-0.20585304,2.7622607000000006
3.9112080000000002,-1.9292740000000002,1.4313968000000001
3.9112080000000002,-1.9292740000000002,1.4313968000000001
3.9112080000000002,-1.9292740000000002,1.4313968000000001
4.9835587,-2.0537431,1.5079931999999998
4.9835587,-2.0537431,1.5079931999999998
4.9835587,-2.0537431,1.5079931999999998
4.9835587,-2.0537431,1.5079931999999998
7.970821400000001,-1.1154363,1.9771467
7.970821400000001,-1.1154363,1.9771467
7.970821400000001,-1.1154363,1.9771467
7.970821400000001,-1.1154363,1.9771467
13.562365,-1.7665064,1.4122477
13.562365,-1.7665064,1.4122477
13.562365,-1.7665064,1.4122477
13.562365,-1.7665064,1.4122477
16.19537,-1.9388485,0.77075213
16.19537,-1.9388485,0.77075213
16.19537,-1.9388485,0.77075213
16.19537,-1.9388485,0.77075213
16.779417000000002,-2.321831,1.1537346000000002
16.779417000000002,-2.321831,1.1537346000000002
16.779417000000002,-2.321831,1.1537346000000002
16.779417000000002,-2.321831,1.1537346000000002
8.200611,-0.5218136,2.4558747000000003
8.200611,-0.5218136,2.4558747000000003
8.200611,-0.5218136,2.4558747000000003
8.200611,-0.5218136,2.4558747000000003
4.2080193,-1.0962871,1.7856555
4.2080193,-1.0962871,1.7856555
4.2080193,-1.0962871,1.7856555
4.2080193,-1.0962871,1.7856555
3.3080106,-2.0441686999999997,1.3930986
3.3080106,-2.0441686999999997,1.3930986
3.3080106,-2.0441686999999997,1.3930986
3.3080106,-2.0441686999999997,1.3930986
6.8793216,-2.2643836,1.3739493999999999
6.8793216,-2.2643836,1.3739493999999999
6.8793216,-2.2643836,1.3739493999999999
6.8793216,-2.2643836,1.3739493999999999
14.74961,-1.776081,2.0537431
14.74961,-1.776081,2.0537431
14.74961,-1.776081,2.0537431
13.734707,-0.92394507,2.1111906000000005
13.734707,-0.92394507,2.1111906000000005
13.734707,-0.92394507,2.1111906000000005
13.734707,-0.92394507,2.1111906000000005
13.734707,-0.92394507,2.1111906000000005
16.463457000000002,-2.9441773999999996,2.3697037999999995
16.463457000000002,-2.9441773999999996,2.3697037999999995
16.463457000000002,-2.9441773999999996,2.3697037999999995
7.501668,-1.3356511999999998,2.5707695
7.501668,-1.3356511999999998,2.5707695
7.501668,-1.3356511999999998,2.5707695
7.501668,-1.3356511999999998,2.5707695
5.759098000000001,-1.4026731000000001,2.714388
5.759098000000001,-1.4026731000000001,2.714388
5.759098000000001,-1.4026731000000001,2.714388
5.759098000000001,-1.4026731000000001,2.714388
5.759098000000001,-1.4026731000000001,2.714388
3.6143966,-1.5654407,2.1877869999999997
3.6143966,-1.5654407,2.1877869999999997
3.6143966,-1.5654407,2.1877869999999997
5.088879,-2.2260852000000004,2.0250196
5.088879,-2.2260852000000004,2.0250196
5.088879,-2.2260852000000004,2.0250196
5.088879,-2.2260852000000004,2.0250196
8.918703,-1.5845897,2.015445
8.918703,-1.5845897,2.015445
8.918703,-1.5845897,2.015445
8.918703,-1.5845897,2.015445
16.17622,-1.5271424,1.5845897
16.17622,-1.5271424,1.5845897
16.17622,-1.5271424,1.5845897
16.17622,-1.5271424,1.5845897
17.478360000000002,-2.427151,0.9718179
17.478360000000002,-2.427151,0.9718179
17.478360000000002,-2.427151,0.9718179
17.478360000000002,-2.427151,0.9718179
14.136839000000002,-1.4026731000000001,1.3643749
14.136839000000002,-1.4026731000000001,1.3643749
14.136839000000002,-1.4026731000000001,1.3643749
14.136839000000002,-1.4026731000000001,1.3643749
7.808053999999999,-1.2686293,2.0728923999999997
7.808053999999999,-1.2686293,2.0728923999999997
7.808053999999999,-1.2686293,2.0728923999999997
7.808053999999999,-1.2686293,2.0728923999999997
3.5090763999999997,-2.4558747000000003,1.383524
3.5090763999999997,-2.4558747000000003,1.383524
3.5090763999999997,-2.4558747000000003,1.383524
3.5090763999999997,-2.4558747000000003,1.383524
4.0356774,-2.733537,1.6803354
4.0356774,-2.733537,1.6803354
4.0356774,-2.733537,1.6803354
4.0356774,-2.733537,1.6803354
6.6878304,-1.9101248,1.8431028999999999
6.6878304,-1.9101248,1.8431028999999999
6.6878304,-1.9101248,1.8431028999999999
6.6878304,-1.9101248,1.8431028999999999
12.777251,-2.2452345,1.7665064
12.777251,-2.2452345,1.7665064
12.777251,-2.2452345,1.7665064
13.600663,-1.383524,1.8718264999999998
13.600663,-1.383524,1.8718264999999998
13.600663,-1.383524,1.8718264999999998
13.600663,-1.383524,1.8718264999999998
13.600663,-1.383524,1.8718264999999998
16.798567000000002,-3.231414,2.6856642
16.798567000000002,-3.231414,2.6856642
16.798567000000002,-3.231414,2.6856642
8.32508,-1.1345854,3.0016246
8.32508,-1.1345854,3.0016246
8.32508,-1.1345854,3.0016246
8.32508,-1.1345854,3.0016246
8.32508,-1.1345854,3.0016246
8.23891,-1.0771381000000002,3.4133307999999998
8.23891,-1.0771381000000002,3.4133307999999998
8.23891,-1.0771381000000002,3.4133307999999998
8.23891,-1.0771381000000002,3.4133307999999998
5.3569665,-0.8281995000000001,3.0016246
5.3569665,-0.8281995000000001,3.0016246
5.3569665,-0.8281995000000001,3.0016246
5.845269,-0.7994758000000001,2.752686
5.845269,-0.7994758000000001,2.752686
5.845269,-0.7994758000000001,2.752686
5.845269,-0.7994758000000001,2.752686
5.845269,-0.7994758000000001,2.752686
6.8410234,-0.78032666,2.905879
6.8410234,-0.78032666,2.905879
6.8410234,-0.78032666,2.905879
6.8410234,-0.78032666,2.905879
8.21976,-1.1250108,2.254809
8.21976,-1.1250108,2.254809
8.21976,-1.1250108,2.254809
8.21976,-1.1250108,2.254809
14.184710999999998,-1.4026731000000001,1.8526775000000002
14.184710999999998,-1.4026731000000001,1.8526775000000002
14.184710999999998,-1.4026731000000001,1.8526775000000002
14.184710999999998,-1.4026731000000001,1.8526775000000002
18.416667999999998,-2.1782124,1.1633091
18.416667999999998,-2.1782124,1.1633091
18.416667999999998,-2.1782124,1.1633091
15.812386499999999,-2.4654493,2.034594
15.812386499999999,-2.4654493,2.034594
15.812386499999999,-2.4654493,2.034594
15.812386499999999,-2.4654493,2.034594
15.812386499999999,-2.4654493,2.034594
8.286782,-0.8090504,3.3750327000000007
8.286782,-0.8090504,3.3750327000000007
8.286782,-0.8090504,3.3750327000000007
8.286782,-0.8090504,3.3750327000000007
4.3324885,-0.34947145,2.5803439999999997
4.3324885,-0.34947145,2.5803439999999997
4.3324885,-0.34947145,2.5803439999999997
4.3324885,-0.34947145,2.5803439999999997
6.180379,-2.015445,1.7856555
6.180379,-2.015445,1.7856555
6.180379,-2.015445,1.7856555
6.180379,-2.015445,1.7856555
10.977234,-1.6803354,2.034594
10.977234,-1.6803354,2.034594
10.977234,-1.6803354,2.034594
12.336822,-1.383524,1.7473572
12.336822,-1.383524,1.7473572
12.336822,-1.383524,1.7473572
12.336822,-1.383524,1.7473572
12.336822,-1.383524,1.7473572
12.308098,-1.4122477,1.6037389
12.308098,-1.4122477,1.6037389
12.308098,-1.4122477,1.6037389
12.308098,-1.4122477,1.6037389
10.316589,-0.20585304,1.7377827000000001
10.316589,-0.20585304,1.7377827000000001
10.316589,-0.20585304,1.7377827000000001
10.316589,-0.20585304,1.7377827000000001
10.6134,0.43564250000000004,1.6707608
10.6134,0.43564250000000004,1.6707608
10.6134,0.43564250000000004,1.6707608
7.6740103,0.023936402000000002,1.5750152
7.6740103,0.023936402000000002,1.5750152
7.6740103,0.023936402000000002,1.5750152
7.6740103,0.023936402000000002,1.5750152
6.0463347,-0.5792609000000001,1.7856555
6.0463347,-0.5792609000000001,1.7856555
6.0463347,-0.5792609000000001,1.7856555
6.0463347,-0.5792609000000001,1.7856555
8.104865,-1.5750152,2.6377914000000002
8.104865,-1.5750152,2.6377914000000002
8.104865,-1.5750152,2.6377914000000002
8.104865,-1.5750152,2.6377914000000002
8.593167999999999,-1.8909756999999998,3.5856729
8.593167999999999,-1.8909756999999998,3.5856729
8.593167999999999,-1.8909756999999998,3.5856729
8.593167999999999,-1.8909756999999998,3.5856729
8.593167999999999,-1.8909756999999998,3.5856729
10.105948,-1.7473572,3.7005677
10.105948,-1.7473572,3.7005677
10.105948,-1.7473572,3.7005677
13.045339,-2.1782124,3.0494976
13.045339,-2.1782124,3.0494976
13.045339,-2.1782124,3.0494976
13.045339,-2.1782124,3.0494976
12.097457,-2.101616,2.9441773999999996
12.097457,-2.101616,2.9441773999999996
12.097457,-2.101616,2.9441773999999996
12.097457,-2.101616,2.9441773999999996
12.097457,-2.101616,2.9441773999999996
10.335738000000001,-1.6803354,2.7431116
10.335738000000001,-1.6803354,2.7431116
10.335738000000001,-1.6803354,2.7431116
10.393186,-0.8090504,2.3505547000000004
10.393186,-0.8090504,2.3505547000000004
10.393186,-0.8090504,2.3505547000000004
10.393186,-0.8090504,2.3505547000000004
10.393186,-0.8090504,2.3505547000000004
7.9420977,-1.1920328000000002,1.5462915000000002
7.9420977,-1.1920328000000002,1.5462915000000002
7.9420977,-1.1920328000000002,1.5462915000000002
7.9420977,-1.1920328000000002,1.5462915000000002
8.727212,-1.2016073,1.4218222
8.727212,-1.2016073,1.4218222
8.727212,-1.2016073,1.4218222
8.727212,-1.2016073,1.4218222
8.516571,-1.0962871,1.5462915000000002
8.516571,-1.0962871,1.5462915000000002
8.516571,-1.0962871,1.5462915000000002
8.382527,-1.6899098999999997,2.034594
8.382527,-1.6899098999999997,2.034594
8.382527,-1.6899098999999997,2.034594
8.382527,-1.6899098999999997,2.034594
10.115523,-0.8856468000000001,2.2452345
10.115523,-0.8856468000000001,2.2452345
10.115523,-0.8856468000000001,2.2452345
10.115523,-0.8856468000000001,2.2452345
11.542132,-1.1824582000000001,1.5845897
11.542132,-1.1824582000000001,1.5845897
11.542132,-1.1824582000000001,1.5845897
11.542132,-1.1824582000000001,1.5845897
12.087883,-1.9196993000000002,1.1250108
12.087883,-1.9196993000000002,1.1250108
12.087883,-1.9196993000000002,1.1250108
12.087883,-1.9196993000000002,1.1250108
12.087883,-1.9196993000000002,1.1250108
10.891063,-1.9771467,1.9388485
10.891063,-1.9771467,1.9388485
10.891063,-1.9771467,1.9388485
9.407005,-1.2207563999999997,2.0633178
9.407005,-1.2207563999999997,2.0633178
9.407005,-1.2207563999999997,2.0633178
9.407005,-1.2207563999999997,2.0633178
5.941015,-1.2111819,2.0058703
5.941015,-1.2111819,2.0058703
5.941015,-1.2111819,2.0058703
5.941015,-1.2111819,2.0058703
5.5963306,-1.3548003,2.2069361
5.5963306,-1.3548003,2.2069361
5.5963306,-1.3548003,2.2069361
5.5963306,-1.3548003,2.2069361
4.4952559999999995,-1.7377827000000001,2.149489
4.4952559999999995,-1.7377827000000001,2.149489
4.4952559999999995,-1.7377827000000001,2.149489
4.4952559999999995,-1.7377827000000001,2.149489
4.4952559999999995,-1.7377827000000001,2.149489
5.739949,-2.015445,2.2739582
5.739949,-2.015445,2.2739582
5.739949,-2.015445,2.2739582
9.2825365,-1.6707608,2.5803439999999997
9.2825365,-1.6707608,2.5803439999999997
9.2825365,-1.6707608,2.5803439999999997
9.2825365,-1.6707608,2.5803439999999997
14.337904,-1.6420371999999999,2.0824668
14.337904,-1.6420371999999999,2.0824668
14.337904,-1.6420371999999999,2.0824668
14.337904,-1.6420371999999999,2.0824668
16.559202,-2.6952388,1.0771381000000002
16.559202,-2.6952388,1.0771381000000002
16.559202,-2.6952388,1.0771381000000002
16.559202,-2.6952388,1.0771381000000002
15.496426000000001,-1.776081,1.9196993000000002
15.496426000000001,-1.776081,1.9196993000000002
15.496426000000001,-1.776081,1.9196993000000002
15.496426000000001,-1.776081,1.9196993000000002
15.496426000000001,-1.776081,1.9196993000000002
8.315506,-0.78032666,2.494173
8.315506,-0.78032666,2.494173
8.315506,-0.78032666,2.494173
3.8154623999999995,-2.0633178,1.1920328000000002
3.8154623999999995,-2.0633178,1.1920328000000002
3.8154623999999995,-2.0633178,1.1920328000000002
3.8154623999999995,-2.0633178,1.1920328000000002
4.5527034,-1.709059,1.3452256999999999
4.5527034,-1.709059,1.3452256999999999
4.5527034,-1.709059,1.3452256999999999
4.5527034,-1.709059,1.3452256999999999
4.5527034,-1.709059,1.3452256999999999
6.7548523000000005,-1.2111819,1.3643749
6.7548523000000005,-1.2111819,1.3643749
6.7548523000000005,-1.2111819,1.3643749
10.230417999999998,-2.0441686999999997,1.5558661
10.230417999999998,-2.0441686999999997,1.5558661
10.230417999999998,-2.0441686999999997,1.5558661
10.230417999999998,-2.0441686999999997,1.5558661
10.230417999999998,-2.0441686999999997,1.5558661
15.764514000000002,-2.6186423,2.2452345
15.764514000000002,-2.6186423,2.2452345
15.764514000000002,-2.6186423,2.2452345
15.764514000000002,-2.6186423,2.2452345
16.788992,-3.5760984,3.078221
16.788992,-3.5760984,3.078221
16.788992,-3.5760984,3.078221
6.525062999999999,-2.101616,2.905879
6.525062999999999,-2.101616,2.905879
6.525062999999999,-2.101616,2.905879
6.525062999999999,-2.101616,2.905879
6.525062999999999,-2.101616,2.905879
6.467615599999999,-1.3165021000000001,3.3175852
6.467615599999999,-1.3165021000000001,3.3175852
6.467615599999999,-1.3165021000000001,3.3175852
6.467615599999999,-1.3165021000000001,3.3175852
3.7867386,-1.5175678999999997,2.4558747000000003
3.7867386,-1.5175678999999997,2.4558747000000003
3.7867386,-1.5175678999999997,2.4558747000000003
3.7867386,-1.5175678999999997,2.4558747000000003
5.0505805,-1.9675721999999998,1.8526775000000002
5.0505805,-1.9675721999999998,1.8526775000000002
5.0505805,-1.9675721999999998,1.8526775000000002
5.0505805,-1.9675721999999998,1.8526775000000002
7.951672599999999,-1.1345854,1.6611862000000002
7.951672599999999,-1.1345854,1.6611862000000002
7.951672599999999,-1.1345854,1.6611862000000002
7.951672599999999,-1.1345854,1.6611862000000002
13.849601999999999,-0.7420284,0.0718092
13.849601999999999,-0.7420284,0.0718092
13.849601999999999,-0.7420284,0.0718092
13.849601999999999,-0.7420284,0.0718092
18.742203,-2.3792782000000003,0.36862057
18.742203,-2.3792782000000003,0.36862057
18.742203,-2.3792782000000003,0.36862057
18.742203,-2.3792782000000003,0.36862057
13.02619,-2.905879,1.5845897
13.02619,-2.905879,1.5845897
13.02619,-2.905879,1.5845897
13.02619,-2.905879,1.5845897
8.2676325,-1.2494801000000002,1.8718264999999998
8.2676325,-1.2494801000000002,1.8718264999999998
8.2676325,-1.2494801000000002,1.8718264999999998
8.2676325,-1.2494801000000002,1.8718264999999998
3.690993,-1.4984187,1.9005502
3.690993,-1.4984187,1.9005502
3.690993,-1.4984187,1.9005502
3.690993,-1.4984187,1.9005502
4.08355,-1.8431028999999999,1.8048046999999998
4.08355,-1.8431028999999999,1.8048046999999998
4.08355,-1.8431028999999999,1.8048046999999998
4.08355,-1.8431028999999999,1.8048046999999998
7.35805,-1.9771467,2.4175766
7.35805,-1.9771467,2.4175766
7.35805,-1.9771467,2.4175766
7.35805,-1.9771467,2.4175766
11.944264,-1.9867213,3.3175852
11.944264,-1.9867213,3.3175852
11.944264,-1.9867213,3.3175852
11.944264,-1.9867213,3.3175852
18.407093,-1.0675635,2.9824755
18.407093,-1.0675635,2.9824755
18.407093,-1.0675635,2.9824755
18.407093,-1.0675635,2.9824755
12.968742,-1.6420371999999999,2.752686
12.968742,-1.6420371999999999,2.752686
12.968742,-1.6420371999999999,2.752686
12.968742,-1.6420371999999999,2.752686
8.602742,-1.6324625,2.733537
8.602742,-1.6324625,2.733537
8.602742,-1.6324625,2.733537
8.602742,-1.6324625,2.733537
5.1176023,-0.8856468000000001,2.4845984
5.1176023,-0.8856468000000001,2.4845984
5.1176023,-0.8856468000000001,2.4845984
5.1176023,-0.8856468000000001,2.4845984
4.619725,-1.8526775000000002,1.6228879999999999
4.619725,-1.8526775000000002,1.6228879999999999
4.619725,-1.8526775000000002,1.6228879999999999
4.619725,-1.8526775000000002,1.6228879999999999
5.5963306,-2.1207652,1.5558661
5.5963306,-2.1207652,1.5558661
5.5963306,-2.1207652,1.5558661
5.5963306,-2.1207652,1.5558661
7.9995449999999995,-1.5175678999999997,2.5324712000000003
7.9995449999999995,-1.5175678999999997,2.5324712000000003
7.9995449999999995,-1.5175678999999997,2.5324712000000003
7.9995449999999995,-1.5175678999999997,2.5324712000000003
12.786825,-1.4601203999999999,2.8580062
12.786825,-1.4601203999999999,2.8580062
12.786825,-1.4601203999999999,2.8580062
12.786825,-1.4601203999999999,2.8580062
15.352808,-2.1303396,1.8335283
15.352808,-2.1303396,1.8335283
15.352808,-2.1303396,1.8335283
15.352808,-2.1303396,1.8335283
17.277294,-2.800559,1.5367169
17.277294,-2.800559,1.5367169
17.277294,-2.800559,1.5367169
17.277294,-2.800559,1.5367169
10.546378,-0.8090504,2.9537517999999996
10.546378,-0.8090504,2.9537517999999996
10.546378,-0.8090504,2.9537517999999996
10.546378,-0.8090504,2.9537517999999996
3.7197167999999996,-1.5175678999999997,1.8431028999999999
3.7197167999999996,-1.5175678999999997,1.8431028999999999
3.7197167999999996,-1.5175678999999997,1.8431028999999999
3.7197167999999996,-1.5175678999999997,1.8431028999999999
2.7239625,-2.2739582,1.6037389
2.7239625,-2.2739582,1.6037389
2.7239625,-2.2739582,1.6037389
2.7239625,-2.2739582,1.6037389
4.1409974,-1.2303311000000001,1.8048046999999998
4.1409974,-1.2303311000000001,1.8048046999999998
4.1409974,-1.2303311000000001,1.8048046999999998
4.1409974,-1.2303311000000001,1.8048046999999998
10.498505999999999,-1.4601203999999999,2.0441686999999997
10.498505999999999,-1.4601203999999999,2.0441686999999997
10.498505999999999,-1.4601203999999999,2.0441686999999997
10.498505999999999,-1.4601203999999999,2.0441686999999997
15.123018,-2.1111906000000005,1.6516117
15.123018,-2.1111906000000005,1.6516117
15.123018,-2.1111906000000005,1.6516117
15.123018,-2.1111906000000005,1.6516117
17.143251,-1.8526775000000002,2.733537
17.143251,-1.8526775000000002,2.733537
17.143251,-1.8526775000000002,2.733537
17.143251,-1.8526775000000002,2.733537
17.143251,-1.8526775000000002,2.733537
10.661273,-2.1111906000000005,3.4324798999999997
10.661273,-2.1111906000000005,3.4324798999999997
10.661273,-2.1111906000000005,3.4324798999999997
8.459125,-2.0537431,3.0207740000000003
8.459125,-2.0537431,3.0207740000000003
8.459125,-2.0537431,3.0207740000000003
8.459125,-2.0537431,3.0207740000000003
5.1367517,-1.9771467,1.9579976000000003
5.1367517,-1.9771467,1.9579976000000003
5.1367517,-1.9771467,1.9579976000000003
5.1367517,-1.9771467,1.9579976000000003
5.1367517,-1.9771467,1.9579976000000003
5.309094,-1.6420371999999999,1.8718264999999998
5.309094,-1.6420371999999999,1.8718264999999998
5.309094,-1.6420371999999999,1.8718264999999998
5.7495236,-1.5654407,2.0441686999999997
5.7495236,-1.5654407,2.0441686999999997
5.7495236,-1.5654407,2.0441686999999997
5.7495236,-1.5654407,2.0441686999999997
5.7495236,-1.5654407,2.0441686999999997
9.18679,-1.8335283,2.3026817000000004
9.18679,-1.8335283,2.3026817000000004
9.18679,-1.8335283,2.3026817000000004
9.18679,-1.8335283,2.3026817000000004
16.482605,-1.469695,1.6803354
16.482605,-1.469695,1.6803354
16.482605,-1.469695,1.6803354
18.732628,-1.8909756999999998,1.4313968000000001
18.732628,-1.8909756999999998,1.4313968000000001
18.732628,-1.8909756999999998,1.4313968000000001
18.732628,-1.8909756999999998,1.4313968000000001
18.732628,-1.8909756999999998,1.4313968000000001
10.594251,-1.0962871,2.034594
10.594251,-1.0962871,2.034594
10.594251,-1.0962871,2.034594
10.594251,-1.0962871,2.034594
5.3569665,-1.7952299999999999,2.3505547000000004
5.3569665,-1.7952299999999999,2.3505547000000004
5.3569665,-1.7952299999999999,2.3505547000000004
5.3569665,-1.7952299999999999,2.3505547000000004
3.8346114,-2.1973617,1.9005502
3.8346114,-2.1973617,1.9005502
3.8346114,-2.1973617,1.9005502
4.763344,-1.8048046999999998,2.0250196
4.763344,-1.8048046999999998,2.0250196
4.763344,-1.8048046999999998,2.0250196
4.763344,-1.8048046999999998,2.0250196
7.693159,-1.9388485,1.7377827000000001
7.693159,-1.9388485,1.7377827000000001
7.693159,-1.9388485,1.7377827000000001
7.693159,-1.9388485,1.7377827000000001
13.8879,-2.561195,2.4654493
13.8879,-2.561195,2.4654493
13.8879,-2.561195,2.4654493
13.8879,-2.561195,2.4654493
15.73579,-2.8771553,2.0537431
15.73579,-2.8771553,2.0537431
15.73579,-2.8771553,2.0537431
15.73579,-2.8771553,2.0537431
12.384694,-2.5516202,2.9920502
12.384694,-2.5516202,2.9920502
12.384694,-2.5516202,2.9920502
12.384694,-2.5516202,2.9920502
8.4686985,-1.2973529,3.193116
8.4686985,-1.2973529,3.193116
8.4686985,-1.2973529,3.193116
4.2175937,-2.0537431,2.4845984
4.2175937,-2.0537431,2.4845984
4.2175937,-2.0537431,2.4845984
4.2175937,-2.0537431,2.4845984
4.2175937,-2.0537431,2.4845984
3.6431203,-2.2931072999999995,2.3984275
3.6431203,-2.2931072999999995,2.3984275
3.6431203,-2.2931072999999995,2.3984275
6.429317500000001,-0.90479594,3.5282254
6.429317500000001,-0.90479594,3.5282254
6.429317500000001,-0.90479594,3.5282254
6.429317500000001,-0.90479594,3.5282254
13.600663,-2.3984275,2.8292825
13.600663,-2.3984275,2.8292825
13.600663,-2.3984275,2.8292825
13.600663,-2.3984275,2.8292825
15.209189000000002,-3.0207740000000003,0.77075213
15.209189000000002,-3.0207740000000003,0.77075213
15.209189000000002,-3.0207740000000003,0.77075213
15.209189000000002,-3.0207740000000003,0.77075213
17.516659,-3.5473747,0.61755913
17.516659,-3.5473747,0.61755913
17.516659,-3.5473747,0.61755913
17.516659,-3.5473747,0.61755913
9.62722,-1.6324625,2.5037475
9.62722,-1.6324625,2.5037475
9.62722,-1.6324625,2.5037475
4.8782387,-1.862252,2.321831
4.8782387,-1.862252,2.321831
4.8782387,-1.862252,2.321831
4.8782387,-1.862252,2.321831
4.8782387,-1.862252,2.321831
4.619725,-2.733537,2.0441686999999997
4.619725,-2.733537,2.0441686999999997
4.619725,-2.733537,2.0441686999999997
4.619725,-1.9196993000000002,2.0537431
4.619725,-1.9196993000000002,2.0537431
4.619725,-1.9196993000000002,2.0537431
4.619725,-1.9196993000000002,2.0537431
5.653778,-2.2260852000000004,1.3165021000000001
5.653778,-2.2260852000000004,1.3165021000000001
5.653778,-2.2260852000000004,1.3165021000000001
5.653778,-2.2260852000000004,1.3165021000000001
13.753855999999999,-2.149489,1.7569318999999999
13.753855999999999,-2.149489,1.7569318999999999
13.753855999999999,-2.149489,1.7569318999999999
13.753855999999999,-2.149489,1.7569318999999999
16.654947,-1.6516117,2.1303396
16.654947,-1.6516117,2.1303396
16.654947,-1.6516117,2.1303396
16.654947,-1.6516117,2.1303396
13.696407999999998,-2.9824755,3.4420545
13.696407999999998,-2.9824755,3.4420545
13.696407999999998,-2.9824755,3.4420545
13.696407999999998,-2.9824755,3.4420545
8.4686985,-2.4367256,3.6143966
8.4686985,-2.4367256,3.6143966
8.4686985,-2.4367256,3.6143966
5.347392,-1.4984187,3.3941817000000003
5.347392,-1.4984187,3.3941817000000003
5.347392,-1.4984187,3.3941817000000003
5.347392,-1.4984187,3.3941817000000003
4.0356774,-1.9675721999999998,2.7718353
4.0356774,-1.9675721999999998,2.7718353
4.0356774,-1.9675721999999998,2.7718353
4.0356774,-1.9675721999999998,2.7718353
6.180379,-1.8814011999999998,2.5516202
6.180379,-1.8814011999999998,2.5516202
6.180379,-1.8814011999999998,2.5516202
6.180379,-1.8814011999999998,2.5516202
11.436812,-2.7814097,2.6090677
11.436812,-2.7814097,2.6090677
11.436812,-2.7814097,2.6090677
11.436812,-2.7814097,2.6090677
19.32625,-1.9771467,2.800559
19.32625,-1.9771467,2.800559
19.32625,-1.9771467,2.800559
19.32625,-1.9771467,2.800559
19.32625,-1.9771467,2.800559
11.925115,-1.0484143,1.9962958
11.925115,-1.0484143,1.9962958
11.925115,-1.0484143,1.9962958
13.811303,-1.7282081999999999,1.9388485
13.811303,-1.7282081999999999,1.9388485
13.811303,-1.7282081999999999,1.9388485
13.811303,-1.7282081999999999,1.9388485
7.243155000000001,-0.44521707,2.0058703
7.243155000000001,-0.44521707,2.0058703
7.243155000000001,-0.44521707,2.0058703
7.243155000000001,-0.44521707,2.0058703
7.243155000000001,-0.44521707,2.0058703
6.065484,-1.2399056,1.8814011999999998
6.065484,-1.2399056,1.8814011999999998
6.065484,-1.2399056,1.8814011999999998
7.9325233,-1.4601203999999999,1.6707608
7.9325233,-1.4601203999999999,1.6707608
7.9325233,-1.4601203999999999,1.6707608
7.9325233,-1.4601203999999999,1.6707608
10.2016945,-2.2452345,1.5079931999999998
10.2016945,-2.2452345,1.5079931999999998
10.2016945,-2.2452345,1.5079931999999998
10.2016945,-2.2452345,1.5079931999999998
10.2016945,-2.2452345,1.5079931999999998
11.848517999999999,-1.6994845,1.5941644
11.848517999999999,-1.6994845,1.5941644
11.848517999999999,-1.6994845,1.5941644
12.614484,-1.6516117,1.3165021000000001
12.614484,-1.6516117,1.3165021000000001
12.614484,-1.6516117,1.3165021000000001
12.614484,-1.6516117,1.3165021000000001
9.64637,-1.9101248,1.1633091
9.64637,-1.9101248,1.1633091
9.64637,-1.9101248,1.1633091
9.64637,-1.9101248,1.1633091
9.64637,-1.9101248,1.1633091
10.316589,-0.512239,1.862252
10.316589,-0.512239,1.862252
10.316589,-0.512239,1.862252
10.316589,-0.512239,1.862252
10.316589,-0.512239,1.862252
10.316589,-0.512239,1.862252
10.316589,-0.512239,1.862252
6.400593799999999,-1.7473572,1.776081
6.400593799999999,-1.7473572,1.776081
6.400593799999999,-1.7473572,1.776081
6.400593799999999,-1.7473572,1.776081
7.693159,-1.9101248,2.5324712000000003
7.693159,-1.9101248,2.5324712000000003
7.693159,-1.9101248,2.5324712000000003
7.693159,-1.9101248,2.5324712000000003
7.693159,-2.2835326,2.9346027
7.693159,-2.2835326,2.9346027
7.693159,-2.2835326,2.9346027
7.693159,-2.2835326,2.9346027
11.044255,-2.408002,3.193116
11.044255,-2.408002,3.193116
11.044255,-2.408002,3.193116
11.044255,-2.408002,3.193116
15.544298999999999,-1.9101248,3.604822
15.544298999999999,-1.9101248,3.604822
15.544298999999999,-1.9101248,3.604822
15.544298999999999,-1.9101248,3.604822
9.177217,-1.8909756999999998,1.8909756999999998
9.177217,-1.8909756999999998,1.8909756999999998
9.177217,-1.8909756999999998,1.8909756999999998
9.177217,-1.8909756999999998,1.8909756999999998
11.283619999999999,-2.752686,1.6994845
11.283619999999999,-2.752686,1.6994845
11.283619999999999,-2.752686,1.6994845
8.765511,-1.3260766000000002,1.7473572
8.765511,-1.3260766000000002,1.7473572
8.765511,-1.3260766000000002,1.7473572
8.765511,-1.3260766000000002,1.7473572
8.191036,-1.6228879999999999,1.7473572
8.191036,-1.6228879999999999,1.7473572
8.191036,-1.6228879999999999,1.7473572
8.191036,-1.6228879999999999,1.7473572
9.004874000000001,-1.3452256999999999,1.5941644
9.004874000000001,-1.3452256999999999,1.5941644
9.004874000000001,-1.3452256999999999,1.5941644
9.004874000000001,-1.3452256999999999,1.5941644
9.320834,-1.9101248,1.7186337
9.320834,-1.9101248,1.7186337
9.320834,-1.9101248,1.7186337
9.320834,-1.9101248,1.7186337
9.158066999999999,-1.6611862000000002,2.0824668
9.158066999999999,-1.6611862000000002,2.0824668
9.158066999999999,-1.6611862000000002,2.0824668
9.158066999999999,-1.6611862000000002,2.0824668
11.350641,-1.5845897,1.9196993000000002
11.350641,-1.5845897,1.9196993000000002
11.350641,-1.5845897,1.9196993000000002
9.8953085,-1.5175678999999997,1.3930986
9.8953085,-1.5175678999999997,1.3930986
9.8953085,-1.5175678999999997,1.3930986
9.8953085,-1.5175678999999997,1.3930986
9.8953085,-1.5175678999999997,1.3930986
11.446387,-2.5707695,1.5367169
11.446387,-2.5707695,1.5367169
11.446387,-2.5707695,1.5367169
9.225089,-2.0920415,2.4463003
9.225089,-2.0920415,2.4463003
9.225089,-2.0920415,2.4463003
9.225089,-2.0920415,2.4463003
5.538883,-2.1782124,2.6856642
5.538883,-2.1782124,2.6856642
5.538883,-2.1782124,2.6856642
5.538883,-2.1782124,2.6856642
5.538883,-2.1782124,2.6856642
4.9835587,-2.2931072999999995,2.3984275
4.9835587,-2.2931072999999995,2.3984275
4.9835587,-2.2931072999999995,2.3984275
4.648448999999999,-1.8814011999999998,2.5994933
4.648448999999999,-1.8814011999999998,2.5994933
4.648448999999999,-1.8814011999999998,2.5994933
4.648448999999999,-1.8814011999999998,2.5994933
6.065484,-2.6952388,2.34098
6.065484,-2.6952388,2.34098
6.065484,-2.6952388,2.34098
6.065484,-2.6952388,2.34098
6.065484,-2.6952388,2.34098
9.100619,-2.4654493,2.8580062
9.100619,-2.4654493,2.8580062
9.100619,-2.4654493,2.8580062
14.950676000000001,-1.9196993000000002,2.8197080000000003
14.950676000000001,-1.9196993000000002,2.8197080000000003
14.950676000000001,-1.9196993000000002,2.8197080000000003
14.950676000000001,-1.9196993000000002,2.8197080000000003
19.000715,-2.2165107999999996,1.9962958
19.000715,-2.2165107999999996,1.9962958
19.000715,-2.2165107999999996,1.9962958
19.000715,-2.2165107999999996,1.9962958
19.000715,-2.2165107999999996,1.9962958
11.972988,-0.7420284,1.7569318999999999
11.972988,-0.7420284,1.7569318999999999
11.972988,-0.7420284,1.7569318999999999
11.972988,-0.7420284,1.7569318999999999
8.564445,-1.1537346000000002,2.101616
8.564445,-1.1537346000000002,2.101616
8.564445,-1.1537346000000002,2.101616
2.5228968,-0.64628285,1.3643749
2.5228968,-0.64628285,1.3643749
2.5228968,-0.64628285,1.3643749
2.5228968,-0.64628285,1.3643749
4.3324885,-1.2303311000000001,0.99096704
4.3324885,-1.2303311000000001,0.99096704
4.3324885,-1.2303311000000001,0.99096704
4.3324885,-1.2303311000000001,0.99096704
7.8367777,-2.5707695,1.0867126
7.8367777,-2.5707695,1.0867126
7.8367777,-2.5707695,1.0867126
7.8367777,-2.5707695,1.0867126
12.748528,-3.4037561000000003,2.2452345
12.748528,-3.4037561000000003,2.2452345
12.748528,-3.4037561000000003,2.2452345
12.748528,-3.4037561000000003,2.2452345
15.582597,-1.1633091,3.7292912000000005
15.582597,-1.1633091,3.7292912000000005
15.582597,-1.1633091,3.7292912000000005
15.582597,-1.1633091,3.7292912000000005
12.633633,-2.2835326,3.5760984
12.633633,-2.2835326,3.5760984
12.633633,-2.2835326,3.5760984
12.633633,-2.2835326,3.5760984
9.770839,-0.8664976999999999,4.150572
9.770839,-0.8664976999999999,4.150572
9.770839,-0.8664976999999999,4.150572
9.770839,-0.8664976999999999,4.150572
4.7441945,-1.2207563999999997,2.8580062
4.7441945,-1.2207563999999997,2.8580062
4.7441945,-1.2207563999999997,2.8580062
3.5282254,-2.4463003,1.7186337
3.5282254,-2.4463003,1.7186337
3.5282254,-2.4463003,1.7186337
3.5282254,-2.4463003,1.7186337
5.452712,-2.034594,2.0633178
5.452712,-2.034594,2.0633178
5.452712,-2.034594,2.0633178
5.452712,-2.034594,2.0633178
8.7750845,-1.8718264999999998,2.3505547000000004
8.7750845,-1.8718264999999998,2.3505547000000004
8.7750845,-1.8718264999999998,2.3505547000000004
8.7750845,-1.8718264999999998,2.3505547000000004
17.03793,-2.800559,1.7473572
17.03793,-2.800559,1.7473572
17.03793,-2.800559,1.7473572
17.03793,-2.800559,1.7473572
18.971989999999998,-3.078221,1.3260766000000002
18.971989999999998,-3.078221,1.3260766000000002
18.971989999999998,-3.078221,1.3260766000000002
18.971989999999998,-3.078221,1.3260766000000002
11.178299,-1.7665064,2.254809
11.178299,-1.7665064,2.254809
11.178299,-1.7665064,2.254809
11.178299,-1.7665064,2.254809
5.586755999999999,-2.0058703,1.7282081999999999
5.586755999999999,-2.0058703,1.7282081999999999
5.586755999999999,-2.0058703,1.7282081999999999
5.586755999999999,-2.0058703,1.7282081999999999
2.9920502,-2.360129,1.2973529
2.9920502,-2.360129,1.2973529
2.9920502,-2.360129,1.2973529
2.9920502,-2.360129,1.2973529
4.1122737,-2.647366,0.9718179
4.1122737,-2.647366,0.9718179
4.1122737,-2.647366,0.9718179
4.1122737,-2.647366,0.9718179
7.7793303,-3.2888615,1.6899098999999997
7.7793303,-3.2888615,1.6899098999999997
7.7793303,-3.2888615,1.6899098999999997
7.7793303,-3.2888615,1.6899098999999997
12.269799,-2.6090677,3.193116
12.269799,-2.6090677,3.193116
12.269799,-2.6090677,3.193116
12.269799,-2.6090677,3.193116
17.277294,-3.212265,2.4367256
17.277294,-3.212265,2.4367256
17.277294,-3.212265,2.4367256
17.277294,-3.212265,2.4367256
13.868751000000001,-3.5378,3.3750327000000007
13.868751000000001,-3.5378,3.3750327000000007
13.868751000000001,-3.5378,3.3750327000000007
13.868751000000001,-3.5378,3.3750327000000007
8.32508,-2.321831,3.5282254
8.32508,-2.321831,3.5282254
8.32508,-2.321831,3.5282254
8.32508,-2.321831,3.5282254
3.844186,-0.92394507,3.1643922000000004
3.844186,-0.92394507,3.1643922000000004
3.844186,-0.92394507,3.1643922000000004
3.844186,-0.92394507,3.1643922000000004
3.5569491,-2.2643836,2.0441686999999997
3.5569491,-2.2643836,2.0441686999999997
3.5569491,-2.2643836,2.0441686999999997
3.5569491,-2.2643836,2.0441686999999997
5.4335629999999995,-1.9005502,2.2835326
5.4335629999999995,-1.9005502,2.2835326
5.4335629999999995,-1.9005502,2.2835326
7.2335806,-1.3930986,1.6707608
7.2335806,-1.3930986,1.6707608
7.2335806,-1.3930986,1.6707608
7.2335806,-1.3930986,1.6707608
7.2335806,-1.3930986,1.6707608
16.961334,-1.0962871,1.4122477
16.961334,-1.0962871,1.4122477
16.961334,-1.0962871,1.4122477
16.961334,-1.0962871,1.4122477
18.397517999999998,-2.3505547000000004,0.9526688
18.397517999999998,-2.3505547000000004,0.9526688
18.397517999999998,-2.3505547000000004,0.9526688
13.198531,-1.7665064,1.6994845
13.198531,-1.7665064,1.6994845
13.198531,-1.7665064,1.6994845
13.198531,-1.7665064,1.6994845
13.198531,-1.7665064,1.6994845
5.8931417,-1.0962871,2.2069361
5.8931417,-1.0962871,2.2069361
5.8931417,-1.0962871,2.2069361
3.7292912000000005,-2.1877869999999997,1.5079931999999998
3.7292912000000005,-2.1877869999999997,1.5079931999999998
3.7292912000000005,-2.1877869999999997,1.5079931999999998
3.7292912000000005,-2.1877869999999997,1.5079931999999998
3.4707782,-2.1111906000000005,1.4888442
3.4707782,-2.1111906000000005,1.4888442
3.4707782,-2.1111906000000005,1.4888442
3.4707782,-2.1111906000000005,1.4888442
5.6825019999999995,-2.2069361,1.2207563999999997
5.6825019999999995,-2.2069361,1.2207563999999997
5.6825019999999995,-2.2069361,1.2207563999999997
5.6825019999999995,-2.2069361,1.2207563999999997
13.8879,-2.3314054,1.709059
13.8879,-2.3314054,1.709059
13.8879,-2.3314054,1.709059
13.8879,-2.3314054,1.709059
17.756021,-2.3697037999999995,2.4367256
17.756021,-2.3697037999999995,2.4367256
17.756021,-2.3697037999999995,2.4367256
17.756021,-2.3697037999999995,2.4367256
14.720885999999998,-2.1399142999999996,3.3750327000000007
14.720885999999998,-2.1399142999999996,3.3750327000000007
14.720885999999998,-2.1399142999999996,3.3750327000000007
14.720885999999998,-2.1399142999999996,3.3750327000000007
9.435728999999998,-0.17712937,3.997379
9.435728999999998,-0.17712937,3.997379
9.435728999999998,-0.17712937,3.997379
9.435728999999998,-0.17712937,3.997379
4.3707867,-1.2877783999999999,2.4750240000000003
4.3707867,-1.2877783999999999,2.4750240000000003
4.3707867,-1.2877783999999999,2.4750240000000003
4.3707867,-1.2877783999999999,2.4750240000000003
4.3516379999999995,-1.3643749,1.9579976000000003
4.3516379999999995,-1.3643749,1.9579976000000003
4.3516379999999995,-1.3643749,1.9579976000000003
4.3516379999999995,-1.3643749,1.9579976000000003
5.5963306,-1.2973529,1.8143792
5.5963306,-1.2973529,1.8143792
5.5963306,-1.2973529,1.8143792
5.5963306,-1.2973529,1.8143792
7.310177,-1.7282081999999999,1.8335283
7.310177,-1.7282081999999999,1.8335283
7.310177,-1.7282081999999999,1.8335283
7.310177,-1.7282081999999999,1.8335283
14.251732999999998,-1.7377827000000001,1.5271424
14.251732999999998,-1.7377827000000001,1.5271424
14.251732999999998,-1.7377827000000001,1.5271424
14.251732999999998,-1.7377827000000001,1.5271424
19.09646,-3.039923,1.4888442
19.09646,-3.039923,1.4888442
19.09646,-3.039923,1.4888442
14.74961,-1.8718264999999998,1.7665064
14.74961,-1.8718264999999998,1.7665064
14.74961,-1.8718264999999998,1.7665064
14.74961,-1.8718264999999998,1.7665064
7.252729400000001,-1.3165021000000001,2.101616
7.252729400000001,-1.3165021000000001,2.101616
7.252729400000001,-1.3165021000000001,2.101616
7.252729400000001,-1.3165021000000001,2.101616
7.252729400000001,-1.3165021000000001,2.101616
2.647366,-1.5941644,1.3260766000000002
2.647366,-1.5941644,1.3260766000000002
2.647366,-1.5941644,1.3260766000000002
2.647366,-1.5941644,1.3260766000000002
3.6622693999999996,-1.8335283,1.383524
3.6622693999999996,-1.8335283,1.383524
3.6622693999999996,-1.8335283,1.383524
7.405922400000001,-2.034594,1.2016073
7.405922400000001,-2.034594,1.2016073
7.405922400000001,-2.034594,1.2016073
7.405922400000001,-2.034594,1.2016073
7.405922400000001,-2.034594,1.2016073
10.814466,-1.8431028999999999,1.3356511999999998
10.814466,-1.8431028999999999,1.3356511999999998
10.814466,-1.8431028999999999,1.3356511999999998
10.814466,-1.8431028999999999,1.3356511999999998
16.30069,-2.2069361,1.7186337
16.30069,-2.2069361,1.7186337
16.30069,-2.2069361,1.7186337
15.984729000000002,-2.7239625,3.0111992
15.984729000000002,-2.7239625,3.0111992
15.984729000000002,-2.7239625,3.0111992
15.984729000000002,-2.7239625,3.0111992
15.984729000000002,-2.7239625,3.0111992
11.025106,-1.6133133999999998,3.4037561000000003
11.025106,-1.6133133999999998,3.4037561000000003
11.025106,-1.6133133999999998,3.4037561000000003
11.025106,-1.6133133999999998,3.4037561000000003
6.0750585,-1.0292653,3.1165195
6.0750585,-1.0292653,3.1165195
6.0750585,-1.0292653,3.1165195
6.0750585,-1.0292653,3.1165195
3.0207740000000003,-1.709059,2.2069361
3.0207740000000003,-1.709059,2.2069361
3.0207740000000003,-1.709059,2.2069361
3.0207740000000003,-1.709059,2.2069361
4.1409974,-1.469695,2.408002
4.1409974,-1.469695,2.408002
4.1409974,-1.469695,2.408002
4.1409974,-1.469695,2.408002
8.765511,-1.1920328000000002,2.3888528
8.765511,-1.1920328000000002,2.3888528
8.765511,-1.1920328000000002,2.3888528
8.765511,-1.1920328000000002,2.3888528
11.570856,-1.5654407,1.862252
11.570856,-1.5654407,1.862252
11.570856,-1.5654407,1.862252
11.570856,-1.5654407,1.862252
18.004960999999998,-2.513322,1.0771381000000002
18.004960999999998,-2.513322,1.0771381000000002
18.004960999999998,-2.513322,1.0771381000000002
18.004960999999998,-2.513322,1.0771381000000002
16.166645000000003,-2.3888528,1.5079931999999998
16.166645000000003,-2.3888528,1.5079931999999998
16.166645000000003,-2.3888528,1.5079931999999998
9.368708,-1.4122477,2.2739582
9.368708,-1.4122477,2.2739582
9.368708,-1.4122477,2.2739582
9.368708,-1.4122477,2.2739582
9.368708,-1.4122477,2.2739582
3.7388659,-1.2590546999999999,2.2452345
3.7388659,-1.2590546999999999,2.2452345
3.7388659,-1.2590546999999999,2.2452345
3.7388659,-1.2590546999999999,2.2452345
2.9633265,-2.0633178,1.3739493999999999
2.9633265,-2.0633178,1.3739493999999999
2.9633265,-2.0633178,1.3739493999999999
6.3718699999999995,-2.168638,1.383524
6.3718699999999995,-2.168638,1.383524
6.3718699999999995,-2.168638,1.383524
6.3718699999999995,-2.168638,1.383524
6.3718699999999995,-2.168638,1.383524
11.063405,-1.4218222,2.1303396
11.063405,-1.4218222,2.1303396
11.063405,-1.4218222,2.1303396
11.063405,-1.4218222,2.1303396
16.406010000000002,-1.6611862000000002,1.3930986
16.406010000000002,-1.6611862000000002,1.3930986
16.406010000000002,-1.6611862000000002,1.3930986
14.950676000000001,-3.1260939999999997,2.1973617
14.950676000000001,-3.1260939999999997,2.1973617
14.950676000000001,-3.1260939999999997,2.1973617
14.950676000000001,-3.1260939999999997,2.1973617
14.950676000000001,-3.1260939999999997,2.1973617
10.996383,-1.2303311000000001,3.5952474999999997
10.996383,-1.2303311000000001,3.5952474999999997
10.996383,-1.2303311000000001,3.5952474999999997
10.996383,-1.2303311000000001,3.5952474999999997
6.5825105,-1.2973529,3.4899273
6.5825105,-1.2973529,3.4899273
6.5825105,-1.2973529,3.4899273
6.5825105,-1.2973529,3.4899273
3.9878044000000004,-1.6611862000000002,3.0877957
3.9878044000000004,-1.6611862000000002,3.0877957
3.9878044000000004,-1.6611862000000002,3.0877957
3.9878044000000004,-1.6611862000000002,3.0877957
5.098453500000001,-1.9579976000000003,3.039923
5.098453500000001,-1.9579976000000003,3.039923
5.098453500000001,-1.9579976000000003,3.039923
5.098453500000001,-1.9579976000000003,3.039923
8.047417999999999,-2.4845984,3.231414
8.047417999999999,-2.4845984,3.231414
8.047417999999999,-2.4845984,3.231414
8.047417999999999,-2.4845984,3.231414
15.352808,-1.8143792,3.7101421
15.352808,-1.8143792,3.7101421
15.352808,-1.8143792,3.7101421
15.352808,-1.8143792,3.7101421
16.406010000000002,-0.3111732,2.3505547000000004
16.406010000000002,-0.3111732,2.3505547000000004
16.406010000000002,-0.3111732,2.3505547000000004
16.406010000000002,-0.3111732,2.3505547000000004
14.625141000000001,-2.034594,0.50266445
14.625141000000001,-2.034594,0.50266445
14.625141000000001,-2.034594,0.50266445
14.625141000000001,-2.034594,0.50266445
11.130426,-1.6420371999999999,0.91437054
11.130426,-1.6420371999999999,0.91437054
11.130426,-1.6420371999999999,0.91437054
6.0559096,0.043085523,1.7282081999999999
6.0559096,0.043085523,1.7282081999999999
6.0559096,0.043085523,1.7282081999999999
6.0559096,0.043085523,1.7282081999999999
6.0559096,0.043085523,1.7282081999999999
7.683584700000001,-1.0484143,1.1058618
7.683584700000001,-1.0484143,1.1058618
7.683584700000001,-1.0484143,1.1058618
7.683584700000001,-1.0484143,1.1058618
8.439975,-1.2686293,1.0484143
8.439975,-1.2686293,1.0484143
8.439975,-1.2686293,1.0484143
8.439975,-1.2686293,1.0484143
9.713391,-2.3314054,0.9718179
9.713391,-2.3314054,0.9718179
9.713391,-2.3314054,0.9718179
9.713391,-2.3314054,0.9718179
12.365545,-2.34098,1.6133133999999998
12.365545,-2.34098,1.6133133999999998
12.365545,-2.34098,1.6133133999999998
12.365545,-2.34098,1.6133133999999998
12.604909,-1.8048046999999998,1.6803354
12.604909,-1.8048046999999998,1.6803354
12.604909,-1.8048046999999998,1.6803354
12.604909,-1.8048046999999998,1.6803354
10.843189,-0.8952214,1.3069274
10.843189,-0.8952214,1.3069274
10.843189,-0.8952214,1.3069274
10.843189,-0.8952214,1.3069274
9.742115,-0.20585304,1.1154363
9.742115,-0.20585304,1.1154363
9.742115,-0.20585304,1.1154363
9.742115,-0.20585304,1.1154363
6.678256,-1.1633091,0.9622433000000001
6.678256,-1.1633091,0.9622433000000001
6.678256,-1.1633091,0.9622433000000001
6.678256,-1.1633091,0.9622433000000001
7.137835000000001,-2.3697037999999995,1.8335283
7.137835000000001,-2.3697037999999995,1.8335283
7.137835000000001,-2.3697037999999995,1.8335283
7.137835000000001,-2.3697037999999995,1.8335283
8.832532,-1.948423,3.1452432
8.832532,-1.948423,3.1452432
8.832532,-1.948423,3.1452432
8.832532,-1.948423,3.1452432
9.100619,-1.9675721999999998,3.6814184
9.100619,-1.9675721999999998,3.6814184
9.100619,-1.9675721999999998,3.6814184
9.100619,-1.9675721999999998,3.6814184
10.804892,-2.1303396,3.8154623999999995
10.804892,-2.1303396,3.8154623999999995
10.804892,-2.1303396,3.8154623999999995
10.804892,-2.1303396,3.8154623999999995
10.804892,-2.1303396,3.8154623999999995
10.642124,-1.3069274,3.3367343000000003
10.642124,-1.3069274,3.3367343000000003
10.642124,-1.3069274,3.3367343000000003
11.149575,-1.3548003,2.494173
11.149575,-1.3548003,2.494173
11.149575,-1.3548003,2.494173
11.149575,-1.3548003,2.494173
11.925115,-1.6133133999999998,0.9718179
11.925115,-1.6133133999999998,0.9718179
11.925115,-1.6133133999999998,0.9718179
11.925115,-1.6133133999999998,0.9718179
11.925115,-1.6133133999999998,0.9718179
11.647452000000001,-1.5654407,0.92394507
11.647452000000001,-1.5654407,0.92394507
11.647452000000001,-1.5654407,0.92394507
8.516571,-0.05266008,1.1920328000000002
8.516571,-0.05266008,1.1920328000000002
8.516571,-0.05266008,1.1920328000000002
8.516571,-0.05266008,1.1920328000000002
8.181462,-0.63670826,0.78032666
8.181462,-0.63670826,0.78032666
8.181462,-0.63670826,0.78032666
8.181462,-0.63670826,0.78032666
7.980396300000001,-1.0101161,0.6750065
7.980396300000001,-1.0101161,0.6750065
7.980396300000001,-1.0101161,0.6750065
7.980396300000001,-1.0101161,0.6750065
7.980396300000001,-1.0101161,0.6750065
7.0037910000000005,-1.3739493999999999,0.9622433000000001
7.0037910000000005,-1.3739493999999999,0.9622433000000001
7.0037910000000005,-1.3739493999999999,0.9622433000000001
6.8601727,-1.4505458999999998,1.2782038
6.8601727,-1.4505458999999998,1.2782038
6.8601727,-1.4505458999999998,1.2782038
6.8601727,-1.4505458999999998,1.2782038
7.1091112999999995,-2.1207652,1.3643749
7.1091112999999995,-2.1207652,1.3643749
7.1091112999999995,-2.1207652,1.3643749
7.1091112999999995,-2.1207652,1.3643749
7.1091112999999995,-2.1207652,1.3643749
7.6452865999999995,-2.8484317999999997,1.8335283
7.6452865999999995,-2.8484317999999997,1.8335283
7.6452865999999995,-2.8484317999999997,1.8335283
12.46129,-2.905879,2.733537
12.46129,-2.905879,2.733537
12.46129,-2.905879,2.733537
12.46129,-2.905879,2.733537
12.46129,-2.905879,2.733537
16.30069,-2.1782124,2.5324712000000003
16.30069,-2.1782124,2.5324712000000003
16.30069,-2.1782124,2.5324712000000003
16.30069,-2.1782124,2.5324712000000003
14.232584,-2.2931072999999995,2.9920502
14.232584,-2.2931072999999995,2.9920502
14.232584,-2.2931072999999995,2.9920502
8.258059,-0.9430941999999999,3.0877957
8.258059,-0.9430941999999999,3.0877957
8.258059,-0.9430941999999999,3.0877957
8.258059,-0.9430941999999999,3.0877957
4.6771727,-0.39734426,2.9250283
4.6771727,-0.39734426,2.9250283
4.6771727,-0.39734426,2.9250283
4.6771727,-0.39734426,2.9250283
4.6771727,-0.39734426,2.9250283
3.4324798999999997,-1.6228879999999999,1.9867213
3.4324798999999997,-1.6228879999999999,1.9867213
3.4324798999999997,-1.6228879999999999,1.9867213
3.4324798999999997,-1.6228879999999999,1.9867213
5.28037,-0.6271336999999999,2.6282167000000003
5.28037,-0.6271336999999999,2.6282167000000003
5.28037,-0.6271336999999999,2.6282167000000003
7.5495410000000005,-1.5462915000000002,1.8526775000000002
7.5495410000000005,-1.5462915000000002,1.8526775000000002
7.5495410000000005,-1.5462915000000002,1.8526775000000002
7.5495410000000005,-1.5462915000000002,1.8526775000000002
7.5495410000000005,-1.5462915000000002,1.8526775000000002
16.147495000000003,-2.360129,2.034594
16.147495000000003,-2.360129,2.034594
16.147495000000003,-2.360129,2.034594
16.147495000000003,-2.360129,2.034594
16.817715,-2.6952388,1.4026731000000001
16.817715,-2.6952388,1.4026731000000001
16.817715,-2.6952388,1.4026731000000001
14.223009,-2.2452345,1.8335283
14.223009,-2.2452345,1.8335283
14.223009,-2.2452345,1.8335283
14.223009,-2.2452345,1.8335283
14.223009,-2.2452345,1.8335283
8.315506,-2.2260852000000004,2.4558747000000003
8.315506,-2.2260852000000004,2.4558747000000003
8.315506,-2.2260852000000004,2.4558747000000003
8.315506,-2.2260852000000004,2.4558747000000003
3.8537605000000004,-2.8388572,2.0920415
3.8537605000000004,-2.8388572,2.0920415
3.8537605000000004,-2.8388572,2.0920415
4.619725,-2.1399142999999996,2.1782124
4.619725,-2.1399142999999996,2.1782124
4.619725,-2.1399142999999996,2.1782124
4.619725,-2.1399142999999996,2.1782124
4.619725,-2.1399142999999996,2.1782124
6.4963393,-1.8526775000000002,1.9292740000000002
6.4963393,-1.8526775000000002,1.9292740000000002
6.4963393,-1.8526775000000002,1.9292740000000002
8.851681,-2.972901,1.6133133999999998
8.851681,-2.972901,1.6133133999999998
8.851681,-2.972901,1.6133133999999998
8.851681,-2.972901,1.6133133999999998
16.319838,-3.7675896,2.2452345
16.319838,-3.7675896,2.2452345
16.319838,-3.7675896,2.2452345
16.319838,-3.7675896,2.2452345
16.319838,-3.7675896,2.2452345
17.325167,-2.9824755,3.078221
17.325167,-2.9824755,3.078221
17.325167,-2.9824755,3.078221
10.0868,-2.0058703,3.2888615
10.0868,-2.0058703,3.2888615
10.0868,-2.0058703,3.2888615
10.0868,-2.0058703,3.2888615
5.644203,-1.3739493999999999,3.0973704
5.644203,-1.3739493999999999,3.0973704
5.644203,-1.3739493999999999,3.0973704
5.644203,-1.3739493999999999,3.0973704
5.644203,-1.3739493999999999,3.0973704
4.2080193,-2.1877869999999997,2.2165107999999996
4.2080193,-2.1877869999999997,2.2165107999999996
4.2080193,-2.1877869999999997,2.2165107999999996
4.2080193,-2.1877869999999997,2.2165107999999996
4.456958,-2.1207652,2.1399142999999996
4.456958,-2.1207652,2.1399142999999996
4.456958,-2.1207652,2.1399142999999996
6.0080366,-1.8335283,2.3026817000000004
6.0080366,-1.8335283,2.3026817000000004
6.0080366,-1.8335283,2.3026817000000004
6.0080366,-1.8335283,2.3026817000000004
10.460207,-1.4313968000000001,2.5420458
10.460207,-1.4313968000000001,2.5420458
10.460207,-1.4313968000000001,2.5420458
10.460207,-1.4313968000000001,2.5420458
10.460207,-1.4313968000000001,2.5420458
17.717724,-1.7377827000000001,1.8718264999999998
17.717724,-1.7377827000000001,1.8718264999999998
17.717724,-1.7377827000000001,1.8718264999999998
15.956005,-3.4707782,2.015445
15.956005,-3.4707782,2.015445
15.956005,-3.4707782,2.015445
15.956005,-3.4707782,2.015445
15.956005,-3.4707782,2.015445
12.212352000000001,-2.647366,3.1548176
12.212352000000001,-2.647366,3.1548176
12.212352000000001,-2.647366,3.1548176
12.212352000000001,-2.647366,3.1548176
4.619725,-2.8101335,1.9962958
4.619725,-2.8101335,1.9962958
4.619725,-2.8101335,1.9962958
4.6771727,-3.4803526,1.6516117
4.6771727,-3.4803526,1.6516117
4.6771727,-3.4803526,1.6516117
4.6771727,-3.4803526,1.6516117
4.6771727,-3.4803526,1.6516117
7.080387599999999,-2.8580062,1.9388485
7.080387599999999,-2.8580062,1.9388485
7.080387599999999,-2.8580062,1.9388485
6.678256,-3.2218397000000003,1.4601203999999999
6.678256,-3.2218397000000003,1.4601203999999999
6.678256,-3.2218397000000003,1.4601203999999999
6.678256,-3.2218397000000003,1.4601203999999999
7.271878699999999,-3.4229053999999994,1.5558661
7.271878699999999,-3.4229053999999994,1.5558661
7.271878699999999,-3.4229053999999994,1.5558661
7.271878699999999,-3.4229053999999994,1.5558661
11.628304,-2.800559,2.8963046
11.628304,-2.800559,2.8963046
11.628304,-2.800559,2.8963046
11.628304,-2.800559,2.8963046
16.109198000000003,-2.8197080000000003,2.9154537
16.109198000000003,-2.8197080000000003,2.9154537
16.109198000000003,-2.8197080000000003,2.9154537
16.109198000000003,-2.8197080000000003,2.9154537
15.036847,-2.8580062,2.9346027
15.036847,-2.8580062,2.9346027
15.036847,-2.8580062,2.9346027
15.036847,-2.8580062,2.9346027
7.788905000000001,-1.7186337,3.2218397000000003
7.788905000000001,-1.7186337,3.2218397000000003
7.788905000000001,-1.7186337,3.2218397000000003
7.788905000000001,-1.7186337,3.2218397000000003
7.788905000000001,-1.7186337,3.2218397000000003
3.7675896,-0.71330476,2.5228968
3.7675896,-0.71330476,2.5228968
3.7675896,-0.71330476,2.5228968
4.8590894,-1.8048046999999998,1.7282081999999999
4.8590894,-1.8048046999999998,1.7282081999999999
4.8590894,-1.8048046999999998,1.7282081999999999
4.8590894,-1.8048046999999998,1.7282081999999999
5.1846247000000005,-1.2782038,1.8814011999999998
5.1846247000000005,-1.2782038,1.8814011999999998
5.1846247000000005,-1.2782038,1.8814011999999998
5.1846247000000005,-1.2782038,1.8814011999999998
5.1846247000000005,-1.2782038,1.8814011999999998
8.497422,-1.7665064,1.8909756999999998
8.497422,-1.7665064,1.8909756999999998
8.497422,-1.7665064,1.8909756999999998
11.26447,-1.6228879999999999,2.254809
11.26447,-1.6228879999999999,2.254809
11.26447,-1.6228879999999999,2.254809
11.26447,-1.6228879999999999,2.254809
17.976236,-3.6526947,2.5324712000000003
17.976236,-3.6526947,2.5324712000000003
17.976236,-3.6526947,2.5324712000000003
17.976236,-3.6526947,2.5324712000000003
17.976236,-3.6526947,2.5324712000000003
16.913462,-1.6228879999999999,2.1303396
16.913462,-1.6228879999999999,2.1303396
16.913462,-1.6228879999999999,2.1303396
16.913462,-1.6228879999999999,2.1303396
8.784659,-0.61755913,2.513322
8.784659,-0.61755913,2.513322
8.784659,-0.61755913,2.513322
4.6005764000000005,-1.5845897,2.0058703
4.6005764000000005,-1.5845897,2.0058703
4.6005764000000005,-1.5845897,2.0058703
4.6005764000000005,-1.5845897,2.0058703
4.6005764000000005,-1.5845897,2.0058703
3.4229053999999994,-2.360129,1.6516117
3.4229053999999994,-2.360129,1.6516117
3.4229053999999994,-2.360129,1.6516117
3.4229053999999994,-2.360129,1.6516117
4.782493,-1.709059,1.6324625
4.782493,-1.709059,1.6324625
4.782493,-1.709059,1.6324625
7.9899707,-2.2643836,1.7377827000000001
7.9899707,-2.2643836,1.7377827000000001
7.9899707,-2.2643836,1.7377827000000001
7.9899707,-2.2643836,1.7377827000000001
7.9899707,-2.2643836,1.7377827000000001
15.285785999999998,-2.34098,2.6282167000000003
15.285785999999998,-2.34098,2.6282167000000003
15.285785999999998,-2.34098,2.6282167000000003
15.285785999999998,-2.34098,2.6282167000000003
17.631554,-2.9250283,3.844186
17.631554,-2.9250283,3.844186
17.631554,-2.9250283,3.844186
10.326163000000001,-3.0303482999999996,4.102699299999999
10.326163000000001,-3.0303482999999996,4.102699299999999
10.326163000000001,-3.0303482999999996,4.102699299999999
10.326163000000001,-3.0303482999999996,4.102699299999999
10.326163000000001,-3.0303482999999996,4.102699299999999
7.9995449999999995,-0.6845810999999999,4.1792955
7.9995449999999995,-0.6845810999999999,4.1792955
7.9995449999999995,-0.6845810999999999,4.1792955
7.9995449999999995,-0.6845810999999999,4.1792955
4.1601467,-1.2494801000000002,2.5994933
4.1601467,-1.2494801000000002,2.5994933
4.1601467,-1.2494801000000002,2.5994933
4.1601467,-1.2494801000000002,2.5994933
5.041005999999999,-2.0920415,1.8431028999999999
5.041005999999999,-2.0920415,1.8431028999999999
5.041005999999999,-2.0920415,1.8431028999999999
5.041005999999999,-2.0920415,1.8431028999999999
6.458041000000001,-1.5271424,2.2739582
6.458041000000001,-1.5271424,2.2739582
6.458041000000001,-1.5271424,2.2739582
8.23891,-2.5899186000000003,1.7377827000000001
8.23891,-2.5899186000000003,1.7377827000000001
8.23891,-2.5899186000000003,1.7377827000000001
8.23891,-2.5899186000000003,1.7377827000000001
14.64429,-1.3069274,2.7622607000000006
14.64429,-1.3069274,2.7622607000000006
14.64429,-1.3069274,2.7622607000000006
14.64429,-1.3069274,2.7622607000000006
18.167728,-1.5941644,2.9633265
18.167728,-1.5941644,2.9633265
18.167728,-1.5941644,2.9633265
18.167728,-1.5941644,2.9633265
18.167728,-1.5941644,2.9633265
13.476192999999999,-1.5941644,2.4463003
13.476192999999999,-1.5941644,2.4463003
13.476192999999999,-1.5941644,2.4463003
7.0133657000000005,-1.4505458999999998,2.2931072999999995
7.0133657000000005,-1.4505458999999998,2.2931072999999995
7.0133657000000005,-1.4505458999999998,2.2931072999999995
7.0133657000000005,-1.4505458999999998,2.2931072999999995
4.763344,-1.4984187,2.0058703
4.763344,-1.4984187,2.0058703
4.763344,-1.4984187,2.0058703
4.763344,-1.4984187,2.0058703
4.6005764000000005,-2.0441686999999997,1.8718264999999998
4.6005764000000005,-2.0441686999999997,1.8718264999999998
4.6005764000000005,-2.0441686999999997,1.8718264999999998
4.6005764000000005,-2.0441686999999997,1.8718264999999998
5.835694999999999,-2.0058703,1.5271424
5.835694999999999,-2.0058703,1.5271424
5.835694999999999,-2.0058703,1.5271424
5.835694999999999,-2.0058703,1.5271424
9.98148,-2.2931072999999995,1.5750152
9.98148,-2.2931072999999995,1.5750152
9.98148,-2.2931072999999995,1.5750152
9.98148,-2.2931072999999995,1.5750152
14.941101999999999,-1.4409714,2.3026817000000004
14.941101999999999,-1.4409714,2.3026817000000004
14.941101999999999,-1.4409714,2.3026817000000004
17.564531,-2.0824668,3.039923
17.564531,-2.0824668,3.039923
17.564531,-2.0824668,3.039923
17.564531,-2.0824668,3.039923
11.446387,-0.9430941999999999,3.4229053999999994
11.446387,-0.9430941999999999,3.4229053999999994
11.446387,-0.9430941999999999,3.4229053999999994
11.446387,-0.9430941999999999,3.4229053999999994
6.2952733,-0.5313880999999999,3.0303482999999996
6.2952733,-0.5313880999999999,3.0303482999999996
6.2952733,-0.5313880999999999,3.0303482999999996
6.2952733,-0.5313880999999999,3.0303482999999996
5.1367517,-1.6611862000000002,2.360129
5.1367517,-1.6611862000000002,2.360129
5.1367517,-1.6611862000000002,2.360129
5.1367517,-1.6611862000000002,2.360129
5.366541000000001,-1.8239537000000001,2.168638
5.366541000000001,-1.8239537000000001,2.168638
5.366541000000001,-1.8239537000000001,2.168638
5.366541000000001,-1.8239537000000001,2.168638
7.1857076,-1.7473572,2.6186423
7.1857076,-1.7473572,2.6186423
7.1857076,-1.7473572,2.6186423
7.1857076,-1.7473572,2.6186423
8.095291,-1.709059,2.5994933
8.095291,-1.709059,2.5994933
8.095291,-1.709059,2.5994933
12.930444,-1.9675721999999998,2.6377914000000002
12.930444,-1.9675721999999998,2.6377914000000002
12.930444,-1.9675721999999998,2.6377914000000002
12.930444,-1.9675721999999998,2.6377914000000002
12.930444,-1.9675721999999998,2.6377914000000002
14.960251000000001,-2.2069361,1.5750152
14.960251000000001,-2.2069361,1.5750152
14.960251000000001,-2.2069361,1.5750152
15.170891000000001,-2.1207652,1.7186337
15.170891000000001,-2.1207652,1.7186337
15.170891000000001,-2.1207652,1.7186337
15.170891000000001,-2.1207652,1.7186337
9.608071,-0.69415563,3.0973704
9.608071,-0.69415563,3.0973704
9.608071,-0.69415563,3.0973704
9.608071,-0.69415563,3.0973704
3.4995019999999997,-0.8281995000000001,2.0728923999999997
3.4995019999999997,-0.8281995000000001,2.0728923999999997
3.4995019999999997,-0.8281995000000001,2.0728923999999997
3.4995019999999997,-0.8281995000000001,2.0728923999999997
4.294190400000001,-2.4463003,1.5750152
4.294190400000001,-2.4463003,1.5750152
4.294190400000001,-2.4463003,1.5750152
4.294190400000001,-2.4463003,1.5750152
7.1857076,-1.776081,1.8048046999999998
7.1857076,-1.776081,1.8048046999999998
7.1857076,-1.776081,1.8048046999999998
7.1857076,-1.776081,1.8048046999999998
11.38894,-1.5941644,2.3697037999999995
11.38894,-1.5941644,2.3697037999999995
11.38894,-1.5941644,2.3697037999999995
11.38894,-1.5941644,2.3697037999999995
15.94643,-1.7569318999999999,0.9526688
15.94643,-1.7569318999999999,0.9526688
15.94643,-1.7569318999999999,0.9526688
15.94643,-1.7569318999999999,0.9526688
15.209189000000002,-2.1590632999999997,2.408002
15.209189000000002,-2.1590632999999997,2.408002
15.209189000000002,-2.1590632999999997,2.408002
15.209189000000002,-2.1590632999999997,2.408002
8.439975,-1.7377827000000001,3.3463089999999998
8.439975,-1.7377827000000001,3.3463089999999998
8.439975,-1.7377827000000001,3.3463089999999998
8.439975,-1.7377827000000001,3.3463089999999998
5.5963306,-1.0675635,3.6622693999999996
5.5963306,-1.0675635,3.6622693999999996
5.5963306,-1.0675635,3.6622693999999996
5.5963306,-1.0675635,3.6622693999999996
5.242071599999999,-2.4750240000000003,2.4175766
5.242071599999999,-2.4750240000000003,2.4175766
5.242071599999999,-2.4750240000000003,2.4175766
5.242071599999999,-2.4750240000000003,2.4175766
8.5740185,-2.8388572,2.3984275
8.5740185,-2.8388572,2.3984275
8.5740185,-2.8388572,2.3984275
8.5740185,-2.8388572,2.3984275
11.944264,-2.1877869999999997,2.9824755
11.944264,-2.1877869999999997,2.9824755
11.944264,-2.1877869999999997,2.9824755
14.567694,-2.3697037999999995,3.4899273
14.567694,-2.3697037999999995,3.4899273
14.567694,-2.3697037999999995,3.4899273
14.567694,-2.3697037999999995,3.4899273
14.567694,-2.3697037999999995,3.4899273
10.383611,-1.6803354,2.168638
10.383611,-1.6803354,2.168638
10.383611,-1.6803354,2.168638
10.383611,-1.6803354,2.168638
11.743198,-2.168638,2.2835326
11.743198,-2.168638,2.2835326
11.743198,-2.168638,2.2835326
11.743198,-2.168638,2.2835326
7.9420977,-1.2494801000000002,2.2165107999999996
7.9420977,-1.2494801000000002,2.2165107999999996
7.9420977,-1.2494801000000002,2.2165107999999996
7.9420977,-1.2494801000000002,2.2165107999999996
8.21976,-1.0579889,2.2165107999999996
8.21976,-1.0579889,2.2165107999999996
8.21976,-1.0579889,2.2165107999999996
8.21976,-1.0579889,2.2165107999999996
8.784659,-0.71330476,2.0824668
8.784659,-0.71330476,2.0824668
8.784659,-0.71330476,2.0824668
8.784659,-0.71330476,2.0824668
8.631466,-1.5271424,1.7856555
8.631466,-1.5271424,1.7856555
8.631466,-1.5271424,1.7856555
8.631466,-1.5271424,1.7856555
9.292110000000001,-1.3739493999999999,2.0058703
9.292110000000001,-1.3739493999999999,2.0058703
9.292110000000001,-1.3739493999999999,2.0058703
9.292110000000001,-1.3739493999999999,2.0058703
10.517653999999999,-1.8048046999999998,1.8143792
10.517653999999999,-1.8048046999999998,1.8143792
10.517653999999999,-1.8048046999999998,1.8143792
10.517653999999999,-1.8048046999999998,1.8143792
13.045339,-1.6899098999999997,2.0633178
13.045339,-1.6899098999999997,2.0633178
13.045339,-1.6899098999999997,2.0633178
8.631466,-1.3643749,2.0633178
8.631466,-1.3643749,2.0633178
8.631466,-1.3643749,2.0633178
8.631466,-1.3643749,2.0633178
8.631466,-1.3643749,2.0633178
9.454879,-1.7952299999999999,1.9867213
9.454879,-1.7952299999999999,1.9867213
9.454879,-1.7952299999999999,1.9867213
9.454879,-1.7952299999999999,1.9867213
8.34423,-1.709059,2.2835326
8.34423,-1.709059,2.2835326
8.34423,-1.709059,2.2835326
8.34423,-1.709059,2.2835326
7.7027339999999995,-2.1782124,2.8292825
7.7027339999999995,-2.1782124,2.8292825
7.7027339999999995,-2.1782124,2.8292825
7.7027339999999995,-2.1782124,2.8292825
7.846352,-1.8048046999999998,3.4324798999999997
7.846352,-1.8048046999999998,3.4324798999999997
7.846352,-1.8048046999999998,3.4324798999999997
8.171887,-2.4367256,3.5760984
8.171887,-2.4367256,3.5760984
8.171887,-2.4367256,3.5760984
8.171887,-2.4367256,3.5760984
9.828286,-2.4463003,3.7101421
9.828286,-2.4463003,3.7101421
9.828286,-2.4463003,3.7101421
9.828286,-2.4463003,3.7101421
12.758101,-2.2260852000000004,3.078221
12.758101,-2.2260852000000004,3.078221
12.758101,-2.2260852000000004,3.078221
12.758101,-2.2260852000000004,3.078221
12.758101,-2.2260852000000004,3.078221
11.810221,-2.1111906000000005,2.4750240000000003
11.810221,-2.1111906000000005,2.4750240000000003
11.810221,-2.1111906000000005,2.4750240000000003
8.641041,-2.101616,2.2739582
8.641041,-2.101616,2.2739582
8.641041,-2.101616,2.2739582
8.641041,-2.101616,2.2739582
10.06765,-1.1920328000000002,1.776081
10.06765,-1.1920328000000002,1.776081
10.06765,-1.1920328000000002,1.776081
10.06765,-1.1920328000000002,1.776081
9.885734,-0.8856468000000001,1.383524
9.885734,-0.8856468000000001,1.383524
9.885734,-0.8856468000000001,1.383524
9.885734,-0.8856468000000001,1.383524
8.00912,-0.83777404,1.3356511999999998
8.00912,-0.83777404,1.3356511999999998
8.00912,-0.83777404,1.3356511999999998
8.00912,-0.83777404,1.3356511999999998
7.7601814,-0.56968635,1.4792696
7.7601814,-0.56968635,1.4792696
7.7601814,-0.56968635,1.4792696
7.7601814,-0.56968635,1.4792696
6.218677,-1.5175678999999997,1.4505458999999998
6.218677,-1.5175678999999997,1.4505458999999998
6.218677,-1.5175678999999997,1.4505458999999998
5.567607,-1.0579889,1.8909756999999998
5.567607,-1.0579889,1.8909756999999998
5.567607,-1.0579889,1.8909756999999998
5.567607,-1.0579889,1.8909756999999998
5.567607,-1.0579889,1.8909756999999998
6.764427,-1.1154363,1.9388485
6.764427,-1.1154363,1.9388485
6.764427,-1.1154363,1.9388485
14.155988,-3.4995019999999997,2.0441686999999997
14.155988,-3.4995019999999997,2.0441686999999997
14.155988,-3.4995019999999997,2.0441686999999997
14.155988,-3.4995019999999997,2.0441686999999997
16.607075,-3.1260939999999997,2.5228968
16.607075,-3.1260939999999997,2.5228968
16.607075,-3.1260939999999997,2.5228968
16.607075,-3.1260939999999997,2.5228968
12.710229,-2.867581,3.8250370000000005
12.710229,-2.867581,3.8250370000000005
12.710229,-2.867581,3.8250370000000005
12.710229,-2.867581,3.8250370000000005
8.248484,-1.4888442,3.5760984
8.248484,-1.4888442,3.5760984
8.248484,-1.4888442,3.5760984
8.248484,-1.4888442,3.5760984
5.0505805,-1.6994845,2.6952388
5.0505805,-1.6994845,2.6952388
5.0505805,-1.6994845,2.6952388
5.0505805,-1.6994845,2.6952388
4.322914,-1.9196993000000002,2.101616
4.322914,-1.9196993000000002,2.101616
4.322914,-1.9196993000000002,2.101616
4.322914,-1.9196993000000002,2.101616
5.3186684,-1.9771467,2.1303396
5.3186684,-1.9771467,2.1303396
5.3186684,-1.9771467,2.1303396
6.936769,-1.9579976000000003,2.3026817000000004
6.936769,-1.9579976000000003,2.3026817000000004
6.936769,-1.9579976000000003,2.3026817000000004
6.936769,-1.9579976000000003,2.3026817000000004
6.936769,-1.9579976000000003,2.3026817000000004
11.551707,-2.5324712000000003,2.254809
11.551707,-2.5324712000000003,2.254809
11.551707,-2.5324712000000003,2.254809
11.551707,-2.5324712000000003,2.254809
18.579435,-2.3888528,1.8239537000000001
18.579435,-2.3888528,1.8239537000000001
18.579435,-2.3888528,1.8239537000000001
15.984729000000002,-3.039923,0.98139244
15.984729000000002,-3.039923,0.98139244
15.984729000000002,-3.039923,0.98139244
15.984729000000002,-3.039923,0.98139244
15.984729000000002,-3.039923,0.98139244
9.579348,-2.149489,1.9196993000000002
9.579348,-2.149489,1.9196993000000002
9.579348,-2.149489,1.9196993000000002
6.0846334,-1.8143792,1.9771467
6.0846334,-1.8143792,1.9771467
6.0846334,-1.8143792,1.9771467
6.0846334,-1.8143792,1.9771467
6.0846334,-1.8143792,1.9771467
4.5239797,-2.1782124,1.7569318999999999
4.5239797,-2.1782124,1.7569318999999999
4.5239797,-2.1782124,1.7569318999999999
5.1176023,-2.1590632999999997,1.4792696
5.1176023,-2.1590632999999997,1.4792696
5.1176023,-2.1590632999999997,1.4792696
5.1176023,-2.1590632999999997,1.4792696
7.2048570000000005,-2.1399142999999996,1.4026731000000001
7.2048570000000005,-2.1399142999999996,1.4026731000000001
7.2048570000000005,-2.1399142999999996,1.4026731000000001
7.2048570000000005,-2.1399142999999996,1.4026731000000001
12.288948,-2.1782124,1.8335283
12.288948,-2.1782124,1.8335283
12.288948,-2.1782124,1.8335283
12.288948,-2.1782124,1.8335283
16.482605,-2.9537517999999996,1.9005502
16.482605,-2.9537517999999996,1.9005502
16.482605,-2.9537517999999996,1.9005502
16.482605,-2.9537517999999996,1.9005502
13.849601999999999,-2.7239625,2.6760897999999997
13.849601999999999,-2.7239625,2.6760897999999997
13.849601999999999,-2.7239625,2.6760897999999997
13.849601999999999,-2.7239625,2.6760897999999997
11.044255,-2.1590632999999997,2.9633265
11.044255,-2.1590632999999997,2.9633265
11.044255,-2.1590632999999997,2.9633265
11.044255,-2.1590632999999997,2.9633265
4.7537694,-0.7994758000000001,3.0973704
4.7537694,-0.7994758000000001,3.0973704
4.7537694,-0.7994758000000001,3.0973704
4.7537694,-0.7994758000000001,3.0973704
3.8633351,-2.2739582,1.9962958
3.8633351,-2.2739582,1.9962958
3.8633351,-2.2739582,1.9962958
3.8633351,-2.2739582,1.9962958
4.5335545999999995,-1.7856555,1.9005502
4.5335545999999995,-1.7856555,1.9005502
4.5335545999999995,-1.7856555,1.9005502
4.5335545999999995,-1.7856555,1.9005502
7.022939999999999,-2.0058703,1.7665064
7.022939999999999,-2.0058703,1.7665064
7.022939999999999,-2.0058703,1.7665064
7.022939999999999,-2.0058703,1.7665064
13.811303,-1.9292740000000002,0.37819514
13.811303,-1.9292740000000002,0.37819514
13.811303,-1.9292740000000002,0.37819514
13.811303,-1.9292740000000002,0.37819514
15.668768,-2.5516202,-0.00478728
15.668768,-2.5516202,-0.00478728
15.668768,-2.5516202,-0.00478728
15.668768,-2.5516202,-0.00478728
16.271964999999998,-3.3750327000000007,0.63670826
16.271964999999998,-3.3750327000000007,0.63670826
16.271964999999998,-3.3750327000000007,0.63670826
16.271964999999998,-3.3750327000000007,0.63670826
11.226172,-1.776081,2.7909843999999997
11.226172,-1.776081,2.7909843999999997
11.226172,-1.776081,2.7909843999999997
11.226172,-1.776081,2.7909843999999997
11.226172,-1.776081,2.7909843999999997
4.6771727,-1.9579976000000003,1.9771467
4.6771727,-1.9579976000000003,1.9771467
4.6771727,-1.9579976000000003,1.9771467
4.1792955,-2.254809,1.9196993000000002
4.1792955,-2.254809,1.9196993000000002
4.1792955,-2.254809,1.9196993000000002
4.1792955,-2.254809,1.9196993000000002
5.4335629999999995,-1.3452256999999999,1.9771467
5.4335629999999995,-1.3452256999999999,1.9771467
5.4335629999999995,-1.3452256999999999,1.9771467
5.4335629999999995,-1.3452256999999999,1.9771467
8.516571,-2.0824668,1.1250108
8.516571,-2.0824668,1.1250108
8.516571,-2.0824668,1.1250108
8.516571,-2.0824668,1.1250108
14.184710999999998,-3.3941817000000003,1.14416
14.184710999999998,-3.3941817000000003,1.14416
14.184710999999998,-3.3941817000000003,1.14416
14.184710999999998,-3.3941817000000003,1.14416
17.440062,-3.3750327000000007,2.2260852000000004
17.440062,-3.3750327000000007,2.2260852000000004
17.440062,-3.3750327000000007,2.2260852000000004
17.440062,-3.3750327000000007,2.2260852000000004
12.269799,-2.494173,3.0494976
12.269799,-2.494173,3.0494976
12.269799,-2.494173,3.0494976
6.831449,-1.5367169,2.8580062
6.831449,-1.5367169,2.8580062
6.831449,-1.5367169,2.8580062
6.831449,-1.5367169,2.8580062
6.831449,-1.5367169,2.8580062
3.8729098,-1.4601203999999999,2.254809
3.8729098,-1.4601203999999999,2.254809
3.8729098,-1.4601203999999999,2.254809
4.3803616,-1.862252,1.7282081999999999
4.3803616,-1.862252,1.7282081999999999
4.3803616,-1.862252,1.7282081999999999
4.3803616,-1.862252,1.7282081999999999
5.7016506,-1.0196906,1.7377827000000001
5.7016506,-1.0196906,1.7377827000000001
5.7016506,-1.0196906,1.7377827000000001
5.7016506,-1.0196906,1.7377827000000001
10.594251,-1.9388485,1.5654407
10.594251,-1.9388485,1.5654407
10.594251,-1.9388485,1.5654407
10.594251,-1.9388485,1.5654407
16.894312,-3.059072,0.8281995000000001
16.894312,-3.059072,0.8281995000000001
16.894312,-3.059072,0.8281995000000001
16.894312,-3.059072,0.8281995000000001
17.803895999999998,-3.3654580000000003,0.47394073
17.803895999999998,-3.3654580000000003,0.47394073
17.803895999999998,-3.3654580000000003,0.47394073
17.803895999999998,-3.3654580000000003,0.47394073
10.565528,-1.4792696,2.2260852000000004
10.565528,-1.4792696,2.2260852000000004
10.565528,-1.4792696,2.2260852000000004
10.565528,-1.4792696,2.2260852000000004
3.7005677,-1.5941644,1.6707608
3.7005677,-1.5941644,1.6707608
3.7005677,-1.5941644,1.6707608
3.7005677,-1.5941644,1.6707608
4.2271686,-2.0250196,1.7569318999999999
4.2271686,-2.0250196,1.7569318999999999
4.2271686,-2.0250196,1.7569318999999999
5.9218655,-2.0250196,1.3930986
5.9218655,-2.0250196,1.3930986
5.9218655,-2.0250196,1.3930986
5.9218655,-2.0250196,1.3930986
5.9218655,-2.0250196,1.3930986
8.296356,-2.3792782000000003,1.4792696
8.296356,-2.3792782000000003,1.4792696
8.296356,-2.3792782000000003,1.4792696
14.481523000000001,-2.513322,2.015445
14.481523000000001,-2.513322,2.015445
14.481523000000001,-2.513322,2.015445
14.481523000000001,-2.513322,2.015445
15.151742,-2.3026817000000004,1.2973529
15.151742,-2.3026817000000004,1.2973529
15.151742,-2.3026817000000004,1.2973529
15.151742,-2.3026817000000004,1.2973529
14.299605999999999,-2.8101335,1.948423
14.299605999999999,-2.8101335,1.948423
14.299605999999999,-2.8101335,1.948423
14.299605999999999,-2.8101335,1.948423
8.430401,-1.1633091,3.0686467
8.430401,-1.1633091,3.0686467
8.430401,-1.1633091,3.0686467
8.430401,-1.1633091,3.0686467
4.0548263,-1.6899098999999997,1.9005502
4.0548263,-1.6899098999999997,1.9005502
4.0548263,-1.6899098999999997,1.9005502
4.0548263,-1.6899098999999997,1.9005502
4.772918,-2.0920415,1.6899098999999997
4.772918,-2.0920415,1.6899098999999997
4.772918,-2.0920415,1.6899098999999997
4.772918,-2.0920415,1.6899098999999997
5.883567299999999,-1.5079931999999998,1.9292740000000002
5.883567299999999,-1.5079931999999998,1.9292740000000002
5.883567299999999,-1.5079931999999998,1.9292740000000002
5.883567299999999,-1.5079931999999998,1.9292740000000002
8.516571,-2.0920415,1.8143792
8.516571,-2.0920415,1.8143792
8.516571,-2.0920415,1.8143792
8.516571,-2.0920415,1.8143792
8.516571,-2.0920415,1.8143792
8.516571,-2.0920415,1.8143792
8.516571,-2.0920415,1.8143792
17.497509,-3.2888615,0.8952214
17.497509,-3.2888615,0.8952214
17.497509,-3.2888615,0.8952214
17.497509,-3.2888615,0.8952214
14.87408,-2.6090677,0.9526688
14.87408,-2.6090677,0.9526688
14.87408,-2.6090677,0.9526688
14.87408,-2.6090677,0.9526688
8.717637,-1.6707608,1.9579976000000003
8.717637,-1.6707608,1.9579976000000003
8.717637,-1.6707608,1.9579976000000003
8.717637,-1.6707608,1.9579976000000003
4.0261025,-2.2452345,1.469695
4.0261025,-2.2452345,1.469695
4.0261025,-2.2452345,1.469695
4.0261025,-2.2452345,1.469695
4.7920675,-2.5420458,1.5845897
4.7920675,-2.5420458,1.5845897
4.7920675,-2.5420458,1.5845897
4.7920675,-2.5420458,1.5845897
6.7931504,-1.7952299999999999,1.6133133999999998
6.7931504,-1.7952299999999999,1.6133133999999998
6.7931504,-1.7952299999999999,1.6133133999999998
8.143164,-2.2739582,1.5175678999999997
8.143164,-2.2739582,1.5175678999999997
8.143164,-2.2739582,1.5175678999999997
8.143164,-2.2739582,1.5175678999999997
13.7730055,-2.5516202,1.6228879999999999
13.7730055,-2.5516202,1.6228879999999999
13.7730055,-2.5516202,1.6228879999999999
13.7730055,-2.5516202,1.6228879999999999
15.984729000000002,-2.7431116,1.3739493999999999
15.984729000000002,-2.7431116,1.3739493999999999
15.984729000000002,-2.7431116,1.3739493999999999
15.984729000000002,-2.7431116,1.3739493999999999
15.984729000000002,-2.7431116,1.3739493999999999
15.984729000000002,-2.7431116,1.3739493999999999
15.984729000000002,-2.7431116,1.3739493999999999
9.41658,-2.2165107999999996,3.0207740000000003
9.41658,-2.2165107999999996,3.0207740000000003
9.41658,-2.2165107999999996,3.0207740000000003
9.41658,-2.2165107999999996,3.0207740000000003
5.347392,-1.4026731000000001,2.8484317999999997
5.347392,-1.4026731000000001,2.8484317999999997
5.347392,-1.4026731000000001,2.8484317999999997
5.347392,-1.4026731000000001,2.8484317999999997
5.021857,-1.8239537000000001,2.3792782000000003
5.021857,-1.8239537000000001,2.3792782000000003
5.021857,-1.8239537000000001,2.3792782000000003
5.021857,-1.8239537000000001,2.3792782000000003
6.592085000000001,-1.5654407,2.561195
6.592085000000001,-1.5654407,2.561195
6.592085000000001,-1.5654407,2.561195
6.592085000000001,-1.5654407,2.561195
7.137835000000001,-1.862252,1.9388485
7.137835000000001,-1.862252,1.9388485
7.137835000000001,-1.862252,1.9388485
7.137835000000001,-1.862252,1.9388485
10.038927000000001,-2.168638,1.4601203999999999
10.038927000000001,-2.168638,1.4601203999999999
10.038927000000001,-2.168638,1.4601203999999999
14.701737,-2.4367256,1.0101161
14.701737,-2.4367256,1.0101161
14.701737,-2.4367256,1.0101161
14.701737,-2.4367256,1.0101161
14.701737,-2.4367256,1.0101161
17.37304,-3.059072,0.48351530000000004
17.37304,-3.059072,0.48351530000000004
17.37304,-3.059072,0.48351530000000004
12.049584,-2.3122563,1.3356511999999998
12.049584,-2.3122563,1.3356511999999998
12.049584,-2.3122563,1.3356511999999998
12.049584,-2.3122563,1.3356511999999998
7.4154973,-2.5420458,1.6228879999999999
7.4154973,-2.5420458,1.6228879999999999
7.4154973,-2.5420458,1.6228879999999999
7.4154973,-2.5420458,1.6228879999999999
5.031431700000001,-2.8101335,1.7665064
5.031431700000001,-2.8101335,1.7665064
5.031431700000001,-2.8101335,1.7665064
5.031431700000001,-2.8101335,1.7665064
5.6825019999999995,-1.948423,2.2452345
5.6825019999999995,-1.948423,2.2452345
5.6825019999999995,-1.948423,2.2452345
5.6825019999999995,-1.948423,2.2452345
6.946343400000001,-1.9101248,1.6420371999999999
6.946343400000001,-1.9101248,1.6420371999999999
6.946343400000001,-1.9101248,1.6420371999999999
8.296356,-3.2409887000000004,1.3548003
8.296356,-3.2409887000000004,1.3548003
8.296356,-3.2409887000000004,1.3548003
8.296356,-3.2409887000000004,1.3548003
8.296356,-3.2409887000000004,1.3548003
14.998548499999998,-3.7388659,2.7814097
14.998548499999998,-3.7388659,2.7814097
14.998548499999998,-3.7388659,2.7814097
18.387943,-3.5090763999999997,2.2165107999999996
18.387943,-3.5090763999999997,2.2165107999999996
18.387943,-3.5090763999999997,2.2165107999999996
18.387943,-3.5090763999999997,2.2165107999999996
9.761265,-2.6186423,2.6569404999999997
9.761265,-2.6186423,2.6569404999999997
9.761265,-2.6186423,2.6569404999999997
9.761265,-2.6186423,2.6569404999999997
7.846352,-1.5845897,2.5516202
7.846352,-1.5845897,2.5516202
7.846352,-1.5845897,2.5516202
7.846352,-1.5845897,2.5516202
7.626137299999999,-1.1058618,2.321831
7.626137299999999,-1.1058618,2.321831
7.626137299999999,-1.1058618,2.321831
7.626137299999999,-1.1058618,2.321831
9.225089,-0.9622433000000001,2.2931072999999995
9.225089,-0.9622433000000001,2.2931072999999995
9.225089,-0.9622433000000001,2.2931072999999995
9.225089,-0.9622433000000001,2.2931072999999995
10.029352000000001,-1.2494801000000002,2.6282167000000003
10.029352000000001,-1.2494801000000002,2.6282167000000003
10.029352000000001,-1.2494801000000002,2.6282167000000003
10.029352000000001,-1.2494801000000002,2.6282167000000003
9.474028,-1.6324625,2.4845984
9.474028,-1.6324625,2.4845984
9.474028,-1.6324625,2.4845984
9.474028,-1.6324625,2.4845984
10.479357,-1.2973529,2.4845984
10.479357,-1.2973529,2.4845984
10.479357,-1.2973529,2.4845984
10.479357,-1.2973529,2.4845984
8.822957,-0.8856468000000001,1.9867213
8.822957,-0.8856468000000001,1.9867213
8.822957,-0.8856468000000001,1.9867213
8.822957,-0.8856468000000001,1.9867213
8.822957,-0.8856468000000001,1.9867213
10.326163000000001,-1.5079931999999998,1.5845897
10.326163000000001,-1.5079931999999998,1.5845897
10.326163000000001,-1.5079931999999998,1.5845897
9.64637,-1.3643749,1.2877783999999999
9.64637,-1.3643749,1.2877783999999999
9.64637,-1.3643749,1.2877783999999999
9.64637,-1.3643749,1.2877783999999999
9.64637,-1.3643749,1.2877783999999999
9.043172,-1.8814011999999998,1.4218222
9.043172,-1.8814011999999998,1.4218222
9.043172,-1.8814011999999998,1.4218222
9.598496,-2.2356597999999996,2.015445
9.598496,-2.2356597999999996,2.015445
9.598496,-2.2356597999999996,2.015445
9.598496,-2.2356597999999996,2.015445
9.780414,-2.867581,2.0728923999999997
9.780414,-2.867581,2.0728923999999997
9.780414,-2.867581,2.0728923999999997
9.780414,-2.867581,2.0728923999999997
9.780414,-2.867581,2.0728923999999997
9.655944,-2.714388,2.2260852000000004
9.655944,-2.714388,2.2260852000000004
9.655944,-2.714388,2.2260852000000004
9.85701,-2.7048132000000003,2.1399142999999996
9.85701,-2.7048132000000003,2.1399142999999996
9.85701,-2.7048132000000003,2.1399142999999996
9.85701,-2.7048132000000003,2.1399142999999996
10.029352000000001,-2.5994933,2.0058703
10.029352000000001,-2.5994933,2.0058703
10.029352000000001,-2.5994933,2.0058703
10.029352000000001,-2.5994933,2.0058703
9.85701,-2.360129,1.7856555
9.85701,-2.360129,1.7856555
9.85701,-2.360129,1.7856555
9.85701,-2.360129,1.7856555
9.675094,-2.0633178,1.7282081999999999
9.675094,-2.0633178,1.7282081999999999
9.675094,-2.0633178,1.7282081999999999
9.675094,-2.0633178,1.7282081999999999
9.847435,-1.9962958,1.6133133999999998
9.847435,-1.9962958,1.6133133999999998
9.847435,-1.9962958,1.6133133999999998
9.847435,-1.9962958,1.6133133999999998
9.54105,-2.0058703,1.4792696
9.54105,-2.0058703,1.4792696
9.54105,-2.0058703,1.4792696
9.54105,-2.0058703,1.4792696
9.6942425,-1.9867213,1.7186337
9.6942425,-1.9867213,1.7186337
9.6942425,-1.9867213,1.7186337
9.732541000000001,-1.9962958,1.862252
9.732541000000001,-1.9962958,1.862252
9.732541000000001,-1.9962958,1.862252
9.732541000000001,-1.9962958,1.862252
9.5889225,-2.015445,1.9101248
9.5889225,-2.015445,1.9101248
9.5889225,-2.015445,1.9101248
9.5889225,-2.015445,1.9101248
9.54105,-1.9388485,1.948423
9.54105,-1.9388485,1.948423
9.54105,-1.9388485,1.948423
9.54105,-1.9388485,1.948423
9.655944,-2.0058703,1.9292740000000002
9.655944,-2.0058703,1.9292740000000002
9.655944,-2.0058703,1.9292740000000002
9.655944,-2.0058703,1.9292740000000002
9.493176,-2.1303396,1.9579976000000003
9.493176,-2.1303396,1.9579976000000003
9.493176,-2.1303396,1.9579976000000003
9.493176,-2.1303396,1.9579976000000003
9.502751,-2.0920415,1.9196993000000002
9.502751,-2.0920415,1.9196993000000002
9.502751,-2.0920415,1.9196993000000002
9.531475,-2.0824668,1.7473572
9.531475,-2.0824668,1.7473572
9.531475,-2.0824668,1.7473572
9.531475,-2.0824668,1.7473572
9.684667999999999,-2.2260852000000004,1.8431028999999999
9.684667999999999,-2.2260852000000004,1.8431028999999999
9.684667999999999,-2.2260852000000004,1.8431028999999999
9.684667999999999,-2.2260852000000004,1.8431028999999999
9.598496,-2.149489,2.0441686999999997
9.598496,-2.149489,2.0441686999999997
9.598496,-2.149489,2.0441686999999997
9.598496,-2.149489,2.0441686999999997
9.550624000000001,-2.360129,1.8526775000000002
9.550624000000001,-2.360129,1.8526775000000002
9.550624000000001,-2.360129,1.8526775000000002
9.550624000000001,-2.360129,1.8526775000000002
9.665519,-2.1782124,1.9867213
9.665519,-2.1782124,1.9867213
9.665519,-2.1782124,1.9867213
9.665519,-2.1782124,1.9867213
9.617646,-2.1973617,1.9579976000000003
9.617646,-2.1973617,1.9579976000000003
9.617646,-2.1973617,1.9579976000000003
9.617646,-2.1973617,1.9579976000000003
9.64637,-2.2356597999999996,1.862252
9.64637,-2.2356597999999996,1.862252
9.64637,-2.2356597999999996,1.862252
9.742115,-2.1782124,1.9196993000000002
9.742115,-2.1782124,1.9196993000000002
9.742115,-2.1782124,1.9196993000000002
9.742115,-2.1782124,1.9196993000000002
9.742115,-2.1782124,1.9196993000000002
9.64637,-2.0728923999999997,1.862252
9.64637,-2.0728923999999997,1.862252
9.64637,-2.0728923999999997,1.862252
9.617646,-2.0058703,1.5941644
9.617646,-2.0058703,1.5941644
9.617646,-2.0058703,1.5941644
9.617646,-2.0058703,1.5941644
9.684667999999999,-2.015445,1.5654407
9.684667999999999,-2.015445,1.5654407
9.684667999999999,-2.015445,1.5654407
9.684667999999999,-2.015445,1.5654407
9.608071,-1.9962958,1.7952299999999999
9.608071,-1.9962958,1.7952299999999999
9.608071,-1.9962958,1.7952299999999999
9.608071,-1.9962958,1.7952299999999999
9.569773,-2.1590632999999997,1.9962958
9.569773,-2.1590632999999997,1.9962958
9.569773,-2.1590632999999997,1.9962958
9.569773,-2.1590632999999997,1.9962958
9.598496,-2.1973617,1.9771467
9.598496,-2.1973617,1.9771467
9.598496,-2.1973617,1.9771467
9.598496,-2.1973617,1.9771467
9.703816999999999,-2.2452345,1.8909756999999998
9.703816999999999,-2.2452345,1.8909756999999998
9.703816999999999,-2.2452345,1.8909756999999998
9.493176,-2.2069361,1.8048046999999998
