accx,accy,accz
0.26330042,2.1207652,6.831449
0.26330042,2.1207652,6.831449
0.26330042,2.1207652,6.831449
0.26330042,2.1207652,6.831449
-0.2920241,1.7952299999999999,6.218677
-0.2920241,1.7952299999999999,6.218677
-0.2920241,1.7952299999999999,6.218677
-0.2920241,1.7952299999999999,6.218677
-1.6324625,0.45479164,3.8920587999999996
-1.6324625,0.45479164,3.8920587999999996
-1.6324625,0.45479164,3.8920587999999996
-1.6324625,0.45479164,3.8920587999999996
-6.410168,-1.6707608,1.4792696
-6.410168,-1.6707608,1.4792696
-6.410168,-1.6707608,1.4792696
-6.410168,-1.6707608,1.4792696
-17.028357,-7.35805,1.3452256999999999
-17.028357,-7.35805,1.3452256999999999
-17.028357,-7.35805,1.3452256999999999
-17.028357,-7.35805,1.3452256999999999
-18.904970000000002,-3.8154623999999995,-0.36862057
-18.904970000000002,-3.8154623999999995,-0.36862057
-18.904970000000002,-3.8154623999999995,-0.36862057
-18.904970000000002,-3.8154623999999995,-0.36862057
-12.786825,-6.256975,-0.4164934
-12.786825,-6.256975,-0.4164934
-12.786825,-6.256975,-0.4164934
-12.786825,-6.256975,-0.4164934
-13.093211,-5.2133484,-3.1356685
-13.093211,-5.2133484,-3.1356685
-13.093211,-5.2133484,-3.1356685
-13.093211,-5.2133484,-3.1356685
-12.90172,-4.5910015,-1.8718264999999998
-12.90172,-4.5910015,-1.8718264999999998
-12.90172,-4.5910015,-1.8718264999999998
-12.90172,-4.5910015,-1.8718264999999998
-7.5782647,-3.4420545,-0.12925656
-7.5782647,-3.4420545,-0.12925656
-7.5782647,-3.4420545,-0.12925656
-7.5782647,-3.4420545,-0.12925656
-5.146326,-3.4899273,-0.14840569
-5.146326,-3.4899273,-0.14840569
-5.146326,-3.4899273,-0.14840569
-5.146326,-3.4899273,-0.14840569
-6.2378263,-2.9154537,-0.36862057
-6.2378263,-2.9154537,-0.36862057
-6.2378263,-2.9154537,-0.36862057
-6.2378263,-2.9154537,-0.36862057
-8.976150500000001,-2.427151,-0.014361841
-8.976150500000001,-2.427151,-0.014361841
-8.976150500000001,-2.427151,-0.014361841
-8.976150500000001,-2.427151,-0.014361841
-9.971905,-2.5899186000000003,0.5792609000000001
-9.971905,-2.5899186000000003,0.5792609000000001
-9.971905,-2.5899186000000003,0.5792609000000001
-9.971905,-2.5899186000000003,0.5792609000000001
-9.7899885,-2.101616,-0.93351966
-9.7899885,-2.101616,-0.93351966
-9.7899885,-2.101616,-0.93351966
-9.7899885,-2.101616,-0.93351966
-11.7336235,-2.4463003,-2.3888528
-11.7336235,-2.4463003,-2.3888528
-11.7336235,-2.4463003,-2.3888528
-11.7336235,-2.4463003,-2.3888528
-12.011286,-2.034594,-2.168638
-12.011286,-2.034594,-2.168638
-12.011286,-2.034594,-2.168638
-12.011286,-2.034594,-2.168638
-11.226172,-4.08355,1.0196906
-11.226172,-4.08355,1.0196906
-11.226172,-4.08355,1.0196906
-9.598496,-4.4856815,2.0633178
-9.598496,-4.4856815,2.0633178
-9.598496,-4.4856815,2.0633178
-9.598496,-4.4856815,2.0633178
-9.598496,-4.4856815,2.0633178
-8.755936,-6.1420803,2.1303396
-8.755936,-6.1420803,2.1303396
-8.755936,-6.1420803,2.1303396
-8.755936,-6.1420803,2.1303396
-8.047417999999999,-5.4431376,5.6154795
-8.047417999999999,-5.4431376,5.6154795
-8.047417999999999,-5.4431376,5.6154795
-8.047417999999999,-5.4431376,5.6154795
-5.155901,-3.8633351,5.9027166
-5.155901,-3.8633351,5.9027166
-5.155901,-3.8633351,5.9027166
-5.155901,-3.8633351,5.9027166
-3.2409887000000004,0.37819514,5.462287
-3.2409887000000004,0.37819514,5.462287
-3.2409887000000004,0.37819514,5.462287
-3.2409887000000004,0.37819514,5.462287
-2.149489,0.014361841,6.1612295999999995
-2.149489,0.014361841,6.1612295999999995
-2.149489,0.014361841,6.1612295999999995
-2.149489,0.014361841,6.1612295999999995
-2.2260852000000004,0.34947145,6.0176110000000005
-2.2260852000000004,0.34947145,6.0176110000000005
-2.2260852000000004,0.34947145,6.0176110000000005
-2.2260852000000004,0.34947145,6.0176110000000005
-3.2984362000000003,-0.71330476,6.9559183
-3.2984362000000003,-0.71330476,6.9559183
-3.2984362000000003,-0.71330476,6.9559183
-3.2984362000000003,-0.71330476,6.9559183
-3.7388659,0.37819514,7.051664
-3.7388659,0.37819514,7.051664
-3.7388659,0.37819514,7.051664
-3.7388659,0.37819514,7.051664
-2.905879,0.83777404,6.0750585
-2.905879,0.83777404,6.0750585
-2.905879,0.83777404,6.0750585
-2.905879,0.83777404,6.0750585
-4.1601467,-0.8664976999999999,4.4856815
-4.1601467,-0.8664976999999999,4.4856815
-4.1601467,-0.8664976999999999,4.4856815
-4.1601467,-0.8664976999999999,4.4856815
-7.243155000000001,-3.8346114,3.2409887000000004
-7.243155000000001,-3.8346114,3.2409887000000004
-7.243155000000001,-3.8346114,3.2409887000000004
-7.243155000000001,-3.8346114,3.2409887000000004
-11.7049,-5.031431700000001,1.9867213
-11.7049,-5.031431700000001,1.9867213
-11.7049,-5.031431700000001,1.9867213
-11.7049,-5.031431700000001,1.9867213
-12.863422,-5.088879,0.7994758000000001
-12.863422,-5.088879,0.7994758000000001
-12.863422,-5.088879,0.7994758000000001
-12.863422,-5.088879,0.7994758000000001
-11.283619999999999,-4.8878129999999995,-0.69415563
-11.283619999999999,-4.8878129999999995,-0.69415563
-11.283619999999999,-4.8878129999999995,-0.69415563
-11.283619999999999,-4.8878129999999995,-0.69415563
-9.904882,-4.409085299999999,-1.3548003
-9.904882,-4.409085299999999,-1.3548003
-9.904882,-4.409085299999999,-1.3548003
-9.904882,-4.409085299999999,-1.3548003
-9.445304,-3.5952474999999997,-1.2303311000000001
-9.445304,-3.5952474999999997,-1.2303311000000001
-9.445304,-3.5952474999999997,-1.2303311000000001
-9.445304,-3.5952474999999997,-1.2303311000000001
-9.62722,-3.2888615,-1.4218222
-9.62722,-3.2888615,-1.4218222
-9.62722,-3.2888615,-1.4218222
-9.62722,-3.2888615,-1.4218222
-9.20594,-3.039923,-1.0771381000000002
-9.20594,-3.039923,-1.0771381000000002
-9.20594,-3.039923,-1.0771381000000002
-9.119769,-2.254809,-0.83777404
-9.119769,-2.254809,-0.83777404
-9.119769,-2.254809,-0.83777404
-9.119769,-2.254809,-0.83777404
-9.119769,-2.254809,-0.83777404
-9.407005,-2.9250283,-1.3548003
-9.407005,-2.9250283,-1.3548003
-9.407005,-2.9250283,-1.3548003
-9.20594,-2.666515,-1.5367169
-9.20594,-2.666515,-1.5367169
-9.20594,-2.666515,-1.5367169
-9.20594,-2.666515,-1.5367169
-9.196365,-2.6952388,-1.4792696
-9.196365,-2.6952388,-1.4792696
-9.196365,-2.6952388,-1.4792696
-9.196365,-2.6952388,-1.4792696
-9.196365,-2.6952388,-1.4792696
-9.167641999999999,-2.6569404999999997,-1.4888442
-9.167641999999999,-2.6569404999999997,-1.4888442
-9.167641999999999,-2.6569404999999997,-1.4888442
-9.158066999999999,-2.6377914000000002,-1.4026731000000001
-9.158066999999999,-2.6377914000000002,-1.4026731000000001
-9.158066999999999,-2.6377914000000002,-1.4026731000000001
-9.158066999999999,-2.6377914000000002,-1.4026731000000001
-9.062322,-2.4463003,-1.3165021000000001
-9.062322,-2.4463003,-1.3165021000000001
-9.062322,-2.4463003,-1.3165021000000001
-9.062322,-2.4463003,-1.3165021000000001
-9.024023,-2.2260852000000004,-1.1633091
-9.024023,-2.2260852000000004,-1.1633091
-9.024023,-2.2260852000000004,-1.1633091
-9.024023,-2.2260852000000004,-1.1633091
-8.822957,-2.5037475,-1.1920328000000002
-8.822957,-2.5037475,-1.1920328000000002
-8.822957,-2.5037475,-1.1920328000000002
-8.822957,-2.5037475,-1.1920328000000002
-8.7750845,-2.4845984,-1.1250108
-8.7750845,-2.4845984,-1.1250108
-8.7750845,-2.4845984,-1.1250108
-8.7750845,-2.4845984,-1.1250108
-9.052747,-2.5037475,-1.1345854
-9.052747,-2.5037475,-1.1345854
-9.052747,-2.5037475,-1.1345854
-9.052747,-2.5037475,-1.1345854
-9.043172,-2.7431116,-1.1154363
-9.043172,-2.7431116,-1.1154363
-9.043172,-2.7431116,-1.1154363
-9.043172,-2.7431116,-1.1154363
-9.20594,-2.733537,-1.0771381000000002
-9.20594,-2.733537,-1.0771381000000002
-9.20594,-2.733537,-1.0771381000000002
-9.20594,-2.733537,-1.0771381000000002
-9.100619,-2.8771553,-1.2686293
-9.100619,-2.8771553,-1.2686293
-9.100619,-2.8771553,-1.2686293
-9.100619,-2.8771553,-1.2686293
-9.110194,-2.9250283,-1.3739493999999999
-9.110194,-2.9250283,-1.3739493999999999
-9.110194,-2.9250283,-1.3739493999999999
-9.167641999999999,-2.8771553,-1.4313968000000001
-9.167641999999999,-2.8771553,-1.4313968000000001
-9.167641999999999,-2.8771553,-1.4313968000000001
-9.167641999999999,-2.8771553,-1.4313968000000001
-9.196365,-2.8292825,-1.4888442
-9.196365,-2.8292825,-1.4888442
-9.196365,-2.8292825,-1.4888442
-9.196365,-2.8292825,-1.4888442
-9.052747,-2.7909843999999997,-1.3548003
-9.052747,-2.7909843999999997,-1.3548003
-9.052747,-2.7909843999999997,-1.3548003
-9.052747,-2.7909843999999997,-1.3548003
-9.024023,-2.7048132000000003,-1.4601203999999999
-9.024023,-2.7048132000000003,-1.4601203999999999
-9.024023,-2.7048132000000003,-1.4601203999999999
-9.024023,-2.7048132000000003,-1.4601203999999999
-9.129342999999999,-2.714388,-1.4313968000000001
-9.129342999999999,-2.714388,-1.4313968000000001
-9.129342999999999,-2.714388,-1.4313968000000001
-9.129342999999999,-2.714388,-1.4313968000000001
-9.110194,-2.666515,-1.469695
-9.110194,-2.666515,-1.469695
-9.110194,-2.666515,-1.469695
-9.110194,-2.666515,-1.469695
-9.110194,-2.6377914000000002,-1.469695
-9.110194,-2.6377914000000002,-1.469695
-9.110194,-2.6377914000000002,-1.469695
-9.110194,-2.6377914000000002,-1.469695
-9.091045,-2.5899186000000003,-1.4313968000000001
-9.091045,-2.5899186000000003,-1.4313968000000001
-9.091045,-2.5899186000000003,-1.4313968000000001
-9.091045,-2.5899186000000003,-1.4313968000000001
-9.033598,-2.561195,-1.4313968000000001
-9.033598,-2.561195,-1.4313968000000001
-9.033598,-2.561195,-1.4313968000000001
-9.033598,-2.561195,-1.4313968000000001
-9.043172,-2.5516202,-1.4122477
-9.043172,-2.5516202,-1.4122477
-9.043172,-2.5516202,-1.4122477
-9.043172,-2.5516202,-1.4122477
-9.052747,-2.5994933,-1.4026731000000001
-9.052747,-2.5994933,-1.4026731000000001
-9.052747,-2.5994933,-1.4026731000000001
-9.052747,-2.5994933,-1.4026731000000001
-9.004874000000001,-2.5899186000000003,-1.3356511999999998
-9.004874000000001,-2.5899186000000003,-1.3356511999999998
-9.004874000000001,-2.5899186000000003,-1.3356511999999998
-9.119769,-2.6377914000000002,-1.3930986
-9.119769,-2.6377914000000002,-1.3930986
-9.119769,-2.6377914000000002,-1.3930986
-9.119769,-2.6377914000000002,-1.3930986
-9.071896,-2.666515,-1.3739493999999999
-9.071896,-2.666515,-1.3739493999999999
-9.071896,-2.666515,-1.3739493999999999
-9.071896,-2.666515,-1.3739493999999999
-9.071896,-2.647366,-1.4026731000000001
-9.071896,-2.647366,-1.4026731000000001
-9.071896,-2.647366,-1.4026731000000001
-9.071896,-2.647366,-1.4026731000000001
-9.110194,-2.6569404999999997,-1.383524
-9.110194,-2.6569404999999997,-1.383524
-9.110194,-2.6569404999999997,-1.383524
-9.110194,-2.6569404999999997,-1.383524
-9.129342999999999,-2.6377914000000002,-1.4218222
-9.129342999999999,-2.6377914000000002,-1.4218222
-9.129342999999999,-2.6377914000000002,-1.4218222
-9.129342999999999,-2.6377914000000002,-1.4218222
-9.119769,-2.666515,-1.3739493999999999
-9.119769,-2.666515,-1.3739493999999999
-9.119769,-2.666515,-1.3739493999999999
-9.119769,-2.666515,-1.3739493999999999
-9.119769,-2.6377914000000002,-1.3739493999999999
-9.119769,-2.6377914000000002,-1.3739493999999999
-9.119769,-2.6377914000000002,-1.3739493999999999
-9.0814705,-2.6282167000000003,-1.3260766000000002
-9.0814705,-2.6282167000000003,-1.3260766000000002
-9.0814705,-2.6282167000000003,-1.3260766000000002
-9.0814705,-2.6282167000000003,-1.3260766000000002
-9.0814705,-2.6282167000000003,-1.3260766000000002
-9.062322,-2.6090677,-1.2686293
-9.062322,-2.6090677,-1.2686293
-9.062322,-2.6090677,-1.2686293
-9.091045,-2.5899186000000003,-1.3260766000000002
-9.091045,-2.5899186000000003,-1.3260766000000002
-9.091045,-2.5899186000000003,-1.3260766000000002
-9.091045,-2.5899186000000003,-1.3260766000000002
-9.091045,-2.5899186000000003,-1.3643749
-9.091045,-2.5899186000000003,-1.3643749
-9.091045,-2.5899186000000003,-1.3643749
-9.091045,-2.5899186000000003,-1.3643749
-9.043172,-2.561195,-1.3452256999999999
-9.043172,-2.561195,-1.3452256999999999
-9.043172,-2.561195,-1.3452256999999999
-9.043172,-2.561195,-1.3452256999999999
-9.158066999999999,-2.5516202,-1.3260766000000002
-9.158066999999999,-2.5516202,-1.3260766000000002
-9.158066999999999,-2.5516202,-1.3260766000000002
-9.158066999999999,-2.5516202,-1.3260766000000002
-9.043172,-2.5037475,-1.2877783999999999
-9.043172,-2.5037475,-1.2877783999999999
-9.043172,-2.5037475,-1.2877783999999999
-9.043172,-2.5037475,-1.2877783999999999
-9.052747,-2.5037475,-1.2590546999999999
-9.052747,-2.5037475,-1.2590546999999999
-9.052747,-2.5037475,-1.2590546999999999
-9.052747,-2.5037475,-1.2590546999999999
-9.167641999999999,-2.5324712000000003,-1.3643749
-9.167641999999999,-2.5324712000000003,-1.3643749
-9.167641999999999,-2.5324712000000003,-1.3643749
-9.024023,-2.5324712000000003,-1.2399056
-9.024023,-2.5324712000000003,-1.2399056
-9.024023,-2.5324712000000003,-1.2399056
-9.024023,-2.5324712000000003,-1.2399056
-9.0814705,-2.513322,-1.2782038
-9.0814705,-2.513322,-1.2782038
-9.0814705,-2.513322,-1.2782038
-9.0814705,-2.513322,-1.2782038
-9.20594,-2.5803439999999997,-1.3356511999999998
-9.20594,-2.5803439999999997,-1.3356511999999998
-9.20594,-2.5803439999999997,-1.3356511999999998
-9.20594,-2.5803439999999997,-1.3356511999999998
-9.167641999999999,-2.5228968,-1.2877783999999999
-9.167641999999999,-2.5228968,-1.2877783999999999
-9.167641999999999,-2.5228968,-1.2877783999999999
-9.167641999999999,-2.5228968,-1.2877783999999999
-9.167641999999999,-2.5228968,-1.2877783999999999
-9.119769,-2.5420458,-1.3165021000000001
-9.119769,-2.5420458,-1.3165021000000001
-9.119769,-2.5420458,-1.3165021000000001
-9.20594,-2.4750240000000003,-1.2686293
-9.20594,-2.4750240000000003,-1.2686293
-9.20594,-2.4750240000000003,-1.2686293
-9.20594,-2.4750240000000003,-1.2686293
-9.138917999999999,-2.4654493,-1.2973529
-9.138917999999999,-2.4654493,-1.2973529
-9.138917999999999,-2.4654493,-1.2973529
-9.138917999999999,-2.4654493,-1.2973529
-9.119769,-2.408002,-1.2590546999999999
-9.119769,-2.408002,-1.2590546999999999
-9.119769,-2.408002,-1.2590546999999999
-9.119769,-2.408002,-1.2590546999999999
-9.225089,-2.4175766,-1.3643749
-9.225089,-2.4175766,-1.3643749
-9.225089,-2.4175766,-1.3643749
-9.225089,-2.4175766,-1.3643749
-9.062322,-2.4175766,-1.2590546999999999
-9.062322,-2.4175766,-1.2590546999999999
-9.062322,-2.4175766,-1.2590546999999999
-9.158066999999999,-2.4463003,-1.3739493999999999
-9.158066999999999,-2.4463003,-1.3739493999999999
-9.158066999999999,-2.4463003,-1.3739493999999999
-9.158066999999999,-2.4463003,-1.3739493999999999
-9.138917999999999,-2.494173,-1.383524
-9.138917999999999,-2.494173,-1.383524
-9.138917999999999,-2.494173,-1.383524
-9.138917999999999,-2.494173,-1.383524
-9.091045,-2.5228968,-1.3930986
-9.091045,-2.5228968,-1.3930986
-9.091045,-2.5228968,-1.3930986
-9.091045,-2.5228968,-1.3930986
-9.129342999999999,-2.5516202,-1.3930986
-9.129342999999999,-2.5516202,-1.3930986
-9.129342999999999,-2.5516202,-1.3930986
-9.129342999999999,-2.5516202,-1.3930986
-9.119769,-2.561195,-1.3739493999999999
-9.119769,-2.561195,-1.3739493999999999
-9.119769,-2.561195,-1.3739493999999999
-9.119769,-2.561195,-1.3739493999999999
-9.100619,-2.5516202,-1.3452256999999999
-9.100619,-2.5516202,-1.3452256999999999
-9.100619,-2.5516202,-1.3452256999999999
-9.100619,-2.5516202,-1.3452256999999999
-9.148492999999998,-2.561195,-1.3643749
-9.148492999999998,-2.561195,-1.3643749
-9.148492999999998,-2.561195,-1.3643749
-9.148492999999998,-2.561195,-1.3643749
-9.119769,-2.513322,-1.3356511999999998
-9.119769,-2.513322,-1.3356511999999998
-9.119769,-2.513322,-1.3356511999999998
-9.148492999999998,-2.494173,-1.3165021000000001
-9.148492999999998,-2.494173,-1.3165021000000001
-9.148492999999998,-2.494173,-1.3165021000000001
-9.148492999999998,-2.494173,-1.3165021000000001
-9.100619,-2.4463003,-1.2877783999999999
-9.100619,-2.4463003,-1.2877783999999999
-9.100619,-2.4463003,-1.2877783999999999
-9.100619,-2.4463003,-1.2877783999999999
-9.148492999999998,-2.4750240000000003,-1.3643749
-9.148492999999998,-2.4750240000000003,-1.3643749
-9.148492999999998,-2.4750240000000003,-1.3643749
-9.148492999999998,-2.4750240000000003,-1.3643749
-9.100619,-2.4558747000000003,-1.3069274
-9.100619,-2.4558747000000003,-1.3069274
-9.100619,-2.4558747000000003,-1.3069274
-9.100619,-2.4558747000000003,-1.3069274
-9.129342999999999,-2.494173,-1.3548003
-9.129342999999999,-2.494173,-1.3548003
-9.129342999999999,-2.494173,-1.3548003
-9.129342999999999,-2.494173,-1.3548003
-9.100619,-2.513322,-1.3260766000000002
-9.100619,-2.513322,-1.3260766000000002
-9.100619,-2.513322,-1.3260766000000002
-9.100619,-2.513322,-1.3260766000000002
-9.100619,-2.5037475,-1.3548003
-9.100619,-2.5037475,-1.3548003
-9.100619,-2.5037475,-1.3548003
-9.148492999999998,-2.5420458,-1.3739493999999999
-9.148492999999998,-2.5420458,-1.3739493999999999
-9.148492999999998,-2.5420458,-1.3739493999999999
-9.148492999999998,-2.5420458,-1.3739493999999999
-9.148492999999998,-2.5420458,-1.3739493999999999
-9.119769,-2.5228968,-1.2782038
-9.119769,-2.5228968,-1.2782038
-9.119769,-2.5228968,-1.2782038
-9.119769,-2.5037475,-1.2782038
-9.119769,-2.5037475,-1.2782038
-9.119769,-2.5037475,-1.2782038
-9.119769,-2.5037475,-1.2782038
-9.158066999999999,-2.494173,-1.2207563999999997
-9.158066999999999,-2.494173,-1.2207563999999997
-9.158066999999999,-2.494173,-1.2207563999999997
-9.158066999999999,-2.494173,-1.2207563999999997
-9.148492999999998,-2.494173,-1.2782038
-9.148492999999998,-2.494173,-1.2782038
-9.148492999999998,-2.494173,-1.2782038
-9.148492999999998,-2.494173,-1.2782038
-9.100619,-2.5228968,-1.2399056
-9.100619,-2.5228968,-1.2399056
-9.100619,-2.5228968,-1.2399056
-9.100619,-2.5228968,-1.2399056
-9.138917999999999,-2.6186423,-1.2494801000000002
-9.138917999999999,-2.6186423,-1.2494801000000002
-9.138917999999999,-2.6186423,-1.2494801000000002
-9.138917999999999,-2.6186423,-1.2494801000000002
-8.889978999999999,-2.8484317999999997,-1.3452256999999999
-8.889978999999999,-2.8484317999999997,-1.3452256999999999
-8.889978999999999,-2.8484317999999997,-1.3452256999999999
-8.889978999999999,-2.8484317999999997,-1.3452256999999999
-7.9995449999999995,-3.3654580000000003,-0.9718179
-7.9995449999999995,-3.3654580000000003,-0.9718179
-7.9995449999999995,-3.3654580000000003,-0.9718179
-8.957002000000001,-3.9016335,-1.3165021000000001
-8.957002000000001,-3.9016335,-1.3165021000000001
-8.957002000000001,-3.9016335,-1.3165021000000001
-8.957002000000001,-3.9016335,-1.3165021000000001
-8.957002000000001,-3.9016335,-1.3165021000000001
-12.126180999999999,-3.9016335,-1.948423
-12.126180999999999,-3.9016335,-1.948423
-12.126180999999999,-3.9016335,-1.948423
-12.126180999999999,-3.9016335,-1.948423
-8.066567,-3.518651,-0.23457673
-8.066567,-3.518651,-0.23457673
-8.066567,-3.518651,-0.23457673
-7.281453,-3.5282254,-0.92394507
-7.281453,-3.5282254,-0.92394507
-7.281453,-3.5282254,-0.92394507
-7.281453,-3.5282254,-0.92394507
-7.281453,-3.5282254,-0.92394507
-7.635712,-3.3654580000000003,-0.8664976999999999
-7.635712,-3.3654580000000003,-0.8664976999999999
-7.635712,-3.3654580000000003,-0.8664976999999999
-7.635712,-3.3654580000000003,-0.8664976999999999
-8.506997,-3.3558834,-1.14416
-8.506997,-3.3558834,-1.14416
-8.506997,-3.3558834,-1.14416
-10.958084,-3.0303482999999996,-1.1824582000000001
-10.958084,-3.0303482999999996,-1.1824582000000001
-10.958084,-3.0303482999999996,-1.1824582000000001
-10.958084,-3.0303482999999996,-1.1824582000000001
-14.787908999999999,-1.6994845,-2.4750240000000003
-14.787908999999999,-1.6994845,-2.4750240000000003
-14.787908999999999,-1.6994845,-2.4750240000000003
-14.787908999999999,-1.6994845,-2.4750240000000003
-14.787908999999999,-1.6994845,-2.4750240000000003
-14.481523000000001,0.40691882,-2.5803439999999997
-14.481523000000001,0.40691882,-2.5803439999999997
-14.481523000000001,0.40691882,-2.5803439999999997
-14.481523000000001,0.40691882,-2.5803439999999997
-7.1665583,-0.03351096,-0.043085523
-7.1665583,-0.03351096,-0.043085523
-7.1665583,-0.03351096,-0.043085523
-9.991054,0.023936402000000002,-1.3643749
-9.991054,0.023936402000000002,-1.3643749
-9.991054,0.023936402000000002,-1.3643749
-9.991054,0.023936402000000002,-1.3643749
-9.991054,0.023936402000000002,-1.3643749
-10.469782,-2.0250196,-0.85692316
-10.469782,-2.0250196,-0.85692316
-10.469782,-2.0250196,-0.85692316
-10.469782,-2.0250196,-0.85692316
-7.1857076,-1.8239537000000001,0.37819514
-7.1857076,-1.8239537000000001,0.37819514
-7.1857076,-1.8239537000000001,0.37819514
-6.7740016,-1.9196993000000002,-0.110107444
-6.7740016,-1.9196993000000002,-0.110107444
-6.7740016,-1.9196993000000002,-0.110107444
-6.7740016,-1.9196993000000002,-0.110107444
-6.7740016,-1.9196993000000002,-0.110107444
-8.545295,-2.752686,-0.48351530000000004
-8.545295,-2.752686,-0.48351530000000004
-8.545295,-2.752686,-0.48351530000000004
-8.545295,-2.752686,-0.48351530000000004
-8.066567,-2.9250283,0.081383765
-8.066567,-2.9250283,0.081383765
-8.066567,-2.9250283,0.081383765
-8.066567,-2.9250283,0.081383765
-8.066567,-2.9250283,0.081383765
-8.066567,-2.9250283,0.081383765
-8.066567,-2.9250283,0.081383765
-8.066567,-2.9250283,0.081383765
-12.422992,-2.8197080000000003,-2.3505547000000004
-12.422992,-2.8197080000000003,-2.3505547000000004
-12.422992,-2.8197080000000003,-2.3505547000000004
-14.108115,-2.0537431,-2.4367256
-14.108115,-2.0537431,-2.4367256
-14.108115,-2.0537431,-2.4367256
-14.108115,-2.0537431,-2.4367256
-11.168725,-1.1345854,-2.2165107999999996
-11.168725,-1.1345854,-2.2165107999999996
-11.168725,-1.1345854,-2.2165107999999996
-11.168725,-1.1345854,-2.2165107999999996
-11.168725,-1.1345854,-2.2165107999999996
-7.300602400000001,-0.062234644000000006,-1.709059
-7.300602400000001,-0.062234644000000006,-1.709059
-7.300602400000001,-0.062234644000000006,-1.709059
-7.300602400000001,-0.062234644000000006,-1.709059
-6.764427,-1.2016073,-0.83777404
-6.764427,-1.2016073,-0.83777404
-6.764427,-1.2016073,-0.83777404
-9.071896,-0.48351530000000004,-1.2207563999999997
-9.071896,-0.48351530000000004,-1.2207563999999997
-9.071896,-0.48351530000000004,-1.2207563999999997
-9.071896,-0.48351530000000004,-1.2207563999999997
-9.071896,-0.48351530000000004,-1.2207563999999997
-11.781497,-0.6845810999999999,-1.7665064
-11.781497,-0.6845810999999999,-1.7665064
-11.781497,-0.6845810999999999,-1.7665064
-11.781497,-0.6845810999999999,-1.7665064
-12.174053,-2.1303396,-0.9622433000000001
-12.174053,-2.1303396,-0.9622433000000001
-12.174053,-2.1303396,-0.9622433000000001
-9.31126,-1.7665064,-0.25372586
-9.31126,-1.7665064,-0.25372586
-9.31126,-1.7665064,-0.25372586
-9.31126,-1.7665064,-0.25372586
-9.31126,-1.7665064,-0.25372586
-8.755936,-0.50266445,-0.023936402000000002
-8.755936,-0.50266445,-0.023936402000000002
-8.755936,-0.50266445,-0.023936402000000002
-8.755936,-0.50266445,-0.023936402000000002
-12.049584,-1.5462915000000002,-2.5228968
-12.049584,-1.5462915000000002,-2.5228968
-12.049584,-1.5462915000000002,-2.5228968
-8.784659,-2.034594,-0.00478728
-8.784659,-2.034594,-0.00478728
-8.784659,-2.034594,-0.00478728
-8.784659,-2.034594,-0.00478728
-8.784659,-2.034594,-0.00478728
-8.076141,-2.5324712000000003,0.2441513
-8.076141,-2.5324712000000003,0.2441513
-8.076141,-2.5324712000000003,0.2441513
-8.076141,-2.5324712000000003,0.2441513
-10.29744,-3.5473747,-1.6133133999999998
-10.29744,-3.5473747,-1.6133133999999998
-10.29744,-3.5473747,-1.6133133999999998
-10.29744,-3.5473747,-1.6133133999999998
-11.398514,-3.4037561000000003,-1.5750152
-11.398514,-3.4037561000000003,-1.5750152
-11.398514,-3.4037561000000003,-1.5750152
-11.398514,-3.4037561000000003,-1.5750152
-13.390023000000001,-3.0303482999999996,-1.3165021000000001
-13.390023000000001,-3.0303482999999996,-1.3165021000000001
-13.390023000000001,-3.0303482999999996,-1.3165021000000001
-13.390023000000001,-3.0303482999999996,-1.3165021000000001
-9.703816999999999,-2.7622607000000006,-1.0962871
-9.703816999999999,-2.7622607000000006,-1.0962871
-9.703816999999999,-2.7622607000000006,-1.0962871
-9.703816999999999,-2.7622607000000006,-1.0962871
-12.394267999999999,-2.3122563,-3.0016246
-12.394267999999999,-2.3122563,-3.0016246
-12.394267999999999,-2.3122563,-3.0016246
-12.394267999999999,-2.3122563,-3.0016246
-12.624058,-1.3165021000000001,-2.5899186000000003
-12.624058,-1.3165021000000001,-2.5899186000000003
-12.624058,-1.3165021000000001,-2.5899186000000003
-12.624058,-1.3165021000000001,-2.5899186000000003
-8.382527,-0.9526688,-1.0484143
-8.382527,-0.9526688,-1.0484143
-8.382527,-0.9526688,-1.0484143
-8.382527,-0.9526688,-1.0484143
-6.0846334,-1.2399056,-0.8281995000000001
-6.0846334,-1.2399056,-0.8281995000000001
-6.0846334,-1.2399056,-0.8281995000000001
-6.0846334,-1.2399056,-0.8281995000000001
-9.770839,-1.469695,-1.5558661
-9.770839,-1.469695,-1.5558661
-9.770839,-1.469695,-1.5558661
-9.770839,-1.469695,-1.5558661
-12.480439,-0.56011176,-1.8143792
-12.480439,-0.56011176,-1.8143792
-12.480439,-0.56011176,-1.8143792
-12.432567,-1.0005416,-1.2973529
-12.432567,-1.0005416,-1.2973529
-12.432567,-1.0005416,-1.2973529
-12.432567,-1.0005416,-1.2973529
-10.249566999999999,-1.4218222,-0.09095833
-10.249566999999999,-1.4218222,-0.09095833
-10.249566999999999,-1.4218222,-0.09095833
-10.249566999999999,-1.4218222,-0.09095833
-10.249566999999999,-1.4218222,-0.09095833
-10.29744,-0.30159867,-0.4164934
-10.29744,-0.30159867,-0.4164934
-10.29744,-0.30159867,-0.4164934
-10.29744,-0.30159867,-0.4164934
-9.675094,-1.1728836,-1.6420371999999999
-9.675094,-1.1728836,-1.6420371999999999
-9.675094,-1.1728836,-1.6420371999999999
-5.730374299999999,-2.0250196,0.64628285
-5.730374299999999,-2.0250196,0.64628285
-5.730374299999999,-2.0250196,0.64628285
-5.730374299999999,-2.0250196,0.64628285
-5.730374299999999,-2.0250196,0.64628285
-4.801642,-2.561195,0.6845810999999999
-4.801642,-2.561195,0.6845810999999999
-4.801642,-2.561195,0.6845810999999999
-4.801642,-2.561195,0.6845810999999999
-10.259142,-3.1356685,-1.1250108
-10.259142,-3.1356685,-1.1250108
-10.259142,-3.1356685,-1.1250108
-12.2410755,-2.8484317999999997,-0.7228793
-12.2410755,-2.8484317999999997,-0.7228793
-12.2410755,-2.8484317999999997,-0.7228793
-12.2410755,-2.8484317999999997,-0.7228793
-12.2410755,-2.8484317999999997,-0.7228793
-15.055995999999999,-2.3314054,-1.4122477
-15.055995999999999,-2.3314054,-1.4122477
-15.055995999999999,-2.3314054,-1.4122477
-15.055995999999999,-2.3314054,-1.4122477
-10.900637,-2.6377914000000002,-0.8952214
-10.900637,-2.6377914000000002,-0.8952214
-10.900637,-2.6377914000000002,-0.8952214
-10.900637,-2.6377914000000002,-0.8952214
-11.350641,-2.7909843999999997,-1.948423
-11.350641,-2.7909843999999997,-1.948423
-11.350641,-2.7909843999999997,-1.948423
-11.350641,-2.7909843999999997,-1.948423
-11.484685,-1.7665064,-2.321831
-11.484685,-1.7665064,-2.321831
-11.484685,-1.7665064,-2.321831
-5.9697385,-1.469695,-0.5888355
-5.9697385,-1.469695,-0.5888355
-5.9697385,-1.469695,-0.5888355
-5.9697385,-1.469695,-0.5888355
-5.1654754,-1.6516117,-1.1824582000000001
-5.1654754,-1.6516117,-1.1824582000000001
-5.1654754,-1.6516117,-1.1824582000000001
-5.1654754,-1.6516117,-1.1824582000000001
-5.1654754,-1.6516117,-1.1824582000000001
-9.100619,-1.7282081999999999,-1.6994845
-9.100619,-1.7282081999999999,-1.6994845
-9.100619,-1.7282081999999999,-1.6994845
-9.100619,-1.7282081999999999,-1.6994845
-13.715557999999998,-2.1877869999999997,-1.3643749
-13.715557999999998,-2.1877869999999997,-1.3643749
-13.715557999999998,-2.1877869999999997,-1.3643749
-15.08472,-1.3356511999999998,-1.4505458999999998
-15.08472,-1.3356511999999998,-1.4505458999999998
-15.08472,-1.3356511999999998,-1.4505458999999998
-15.08472,-1.3356511999999998,-1.4505458999999998
-10.938935,-0.70373017,-0.42606795
-10.938935,-0.70373017,-0.42606795
-10.938935,-0.70373017,-0.42606795
-10.938935,-0.70373017,-0.42606795
-10.938935,-0.70373017,-0.42606795
-7.434646000000001,-0.110107444,0.56011176
-7.434646000000001,-0.110107444,0.56011176
-7.434646000000001,-0.110107444,0.56011176
-9.512326,-1.3356511999999998,-1.5367169
-9.512326,-1.3356511999999998,-1.5367169
-9.512326,-1.3356511999999998,-1.5367169
-9.512326,-1.3356511999999998,-1.5367169
-9.512326,-1.3356511999999998,-1.5367169
-8.018694,-2.0250196,0.043085523
-8.018694,-2.0250196,0.043085523
-8.018694,-2.0250196,0.043085523
-8.018694,-2.0250196,0.043085523
-5.6825019999999995,-2.015445,0.78032666
-5.6825019999999995,-2.015445,0.78032666
-5.6825019999999995,-2.015445,0.78032666
-5.6825019999999995,-2.015445,0.78032666
-7.0133657000000005,-2.2835326,0.71330476
-7.0133657000000005,-2.2835326,0.71330476
-7.0133657000000005,-2.2835326,0.71330476
-7.0133657000000005,-2.2835326,0.71330476
-10.670848,-3.1643922000000004,-0.5792609000000001
-10.670848,-3.1643922000000004,-0.5792609000000001
-10.670848,-3.1643922000000004,-0.5792609000000001
-10.670848,-3.1643922000000004,-0.5792609000000001
-11.695326,-2.3792782000000003,-0.36862057
-11.695326,-2.3792782000000003,-0.36862057
-11.695326,-2.3792782000000003,-0.36862057
-11.695326,-2.3792782000000003,-0.36862057
-13.983645000000001,-2.254809,-1.4313968000000001
-13.983645000000001,-2.254809,-1.4313968000000001
-13.983645000000001,-2.254809,-1.4313968000000001
-13.983645000000001,-2.254809,-1.4313968000000001
-10.431483,-2.2739582,-1.6037389
-10.431483,-2.2739582,-1.6037389
-10.431483,-2.2739582,-1.6037389
-10.431483,-2.2739582,-1.6037389
-11.59958,-2.513322,-2.254809
-11.59958,-2.513322,-2.254809
-11.59958,-2.513322,-2.254809
-11.59958,-2.513322,-2.254809
-9.75169,-1.9962958,-1.4984187
-9.75169,-1.9962958,-1.4984187
-9.75169,-1.9962958,-1.4984187
-9.75169,-1.9962958,-1.4984187
-7.137835000000001,-2.101616,-1.5750152
-7.137835000000001,-2.101616,-1.5750152
-7.137835000000001,-2.101616,-1.5750152
-7.137835000000001,-2.101616,-1.5750152
-8.23891,-2.6090677,-1.9962958
-8.23891,-2.6090677,-1.9962958
-8.23891,-2.6090677,-1.9962958
-8.23891,-2.6090677,-1.9962958
-11.05383,-3.212265,-2.360129
-11.05383,-3.212265,-2.360129
-11.05383,-3.212265,-2.360129
-11.05383,-3.212265,-2.360129
-12.67193,-4.342063,-1.8526775000000002
-12.67193,-4.342063,-1.8526775000000002
-12.67193,-4.342063,-1.8526775000000002
-12.67193,-4.342063,-1.8526775000000002
-12.432567,-4.2175937,-1.1345854
-12.432567,-4.2175937,-1.1345854
-12.432567,-4.2175937,-1.1345854
-7.5303917,-3.9782297999999994,1.4026731000000001
-7.5303917,-3.9782297999999994,1.4026731000000001
-7.5303917,-3.9782297999999994,1.4026731000000001
-7.5303917,-3.9782297999999994,1.4026731000000001
-7.5303917,-3.9782297999999994,1.4026731000000001
-7.4729443,-3.7580150000000003,0.5888355
-7.4729443,-3.7580150000000003,0.5888355
-7.4729443,-3.7580150000000003,0.5888355
-4.8878129999999995,-4.9835587,0.6271336999999999
-4.8878129999999995,-4.9835587,0.6271336999999999
-4.8878129999999995,-4.9835587,0.6271336999999999
-4.8878129999999995,-4.9835587,0.6271336999999999
-3.1165195,-5.2037735000000005,0.665432
-3.1165195,-5.2037735000000005,0.665432
-3.1165195,-5.2037735000000005,0.665432
-3.1165195,-5.2037735000000005,0.665432
-3.3941817000000003,-5.242071599999999,0.45479164
-3.3941817000000003,-5.242071599999999,0.45479164
-3.3941817000000003,-5.242071599999999,0.45479164
-3.3941817000000003,-5.242071599999999,0.45479164
-3.3941817000000003,-5.242071599999999,0.45479164
-3.2505634,-8.353804,-2.0728923999999997
-3.2505634,-8.353804,-2.0728923999999997
-3.2505634,-8.353804,-2.0728923999999997
-3.930357,-7.463369999999999,-4.102699299999999
-3.930357,-7.463369999999999,-4.102699299999999
-3.930357,-7.463369999999999,-4.102699299999999
-3.930357,-7.463369999999999,-4.102699299999999
-6.525062999999999,-10.651698,-6.0463347
-6.525062999999999,-10.651698,-6.0463347
-6.525062999999999,-10.651698,-6.0463347
-6.525062999999999,-10.651698,-6.0463347
-6.1229315,-8.372953,-3.8729098
-6.1229315,-8.372953,-3.8729098
-6.1229315,-8.372953,-3.8729098
-6.1229315,-8.372953,-3.8729098
-5.002708,-6.0559096,-2.360129
-5.002708,-6.0559096,-2.360129
-5.002708,-6.0559096,-2.360129
-5.002708,-6.0559096,-2.360129
-6.333572,-4.284616000000001,-1.0388398
-6.333572,-4.284616000000001,-1.0388398
-6.333572,-4.284616000000001,-1.0388398
-6.333572,-4.284616000000001,-1.0388398
-7.1091112999999995,-3.4420545,0.4164934
-7.1091112999999995,-3.4420545,0.4164934
-7.1091112999999995,-3.4420545,0.4164934
-7.1091112999999995,-3.4420545,0.4164934
-6.7740016,-2.9920502,-0.05266008
-6.7740016,-2.9920502,-0.05266008
-6.7740016,-2.9920502,-0.05266008
-6.7740016,-2.9920502,-0.05266008
-7.9325233,-2.494173,-1.0484143
-7.9325233,-2.494173,-1.0484143
-7.9325233,-2.494173,-1.0484143
-7.9325233,-2.494173,-1.0484143
-13.227255,-1.5750152,-3.7292912000000005
-13.227255,-1.5750152,-3.7292912000000005
-13.227255,-1.5750152,-3.7292912000000005
-13.227255,-1.5750152,-3.7292912000000005
-15.84111,1.3548003,-4.96441
-15.84111,1.3548003,-4.96441
-15.84111,1.3548003,-4.96441
-15.84111,1.3548003,-4.96441
-11.944264,-0.36862057,-5.328243
-11.944264,-0.36862057,-5.328243
-11.944264,-0.36862057,-5.328243
-11.944264,-0.36862057,-5.328243
-8.918703,0.19627848,-1.3930986
-8.918703,0.19627848,-1.3930986
-8.918703,0.19627848,-1.3930986
-8.918703,0.19627848,-1.3930986
-10.938935,-0.46436617,-2.9537517999999996
-10.938935,-0.46436617,-2.9537517999999996
-10.938935,-0.46436617,-2.9537517999999996
-10.938935,-0.46436617,-2.9537517999999996
-6.592085000000001,-2.513322,-0.78032666
-6.592085000000001,-2.513322,-0.78032666
-6.592085000000001,-2.513322,-0.78032666
-6.592085000000001,-2.513322,-0.78032666
-3.9207826,-1.5079931999999998,0.25372586
-3.9207826,-1.5079931999999998,0.25372586
-3.9207826,-1.5079931999999998,0.25372586
-3.9207826,-1.5079931999999998,0.25372586
-5.634629,-1.6324625,-0.39734426
-5.634629,-1.6324625,-0.39734426
-5.634629,-1.6324625,-0.39734426
-5.634629,-1.6324625,-0.39734426
-8.018694,-2.2260852000000004,-1.1728836
-8.018694,-2.2260852000000004,-1.1728836
-8.018694,-2.2260852000000004,-1.1728836
-8.018694,-2.2260852000000004,-1.1728836
-8.11444,-3.2026904,-1.0867126
-8.11444,-3.2026904,-1.0867126
-8.11444,-3.2026904,-1.0867126
-8.11444,-3.2026904,-1.0867126
-10.163396,-4.763344,-0.512239
-10.163396,-4.763344,-0.512239
-10.163396,-4.763344,-0.512239
-10.163396,-4.763344,-0.512239
-13.418745999999999,-5.088879,-0.50266445
-13.418745999999999,-5.088879,-0.50266445
-13.418745999999999,-5.088879,-0.50266445
-13.418745999999999,-5.088879,-0.50266445
-10.900637,-3.7197167999999996,0.6558574
-10.900637,-3.7197167999999996,0.6558574
-10.900637,-3.7197167999999996,0.6558574
-10.900637,-3.7197167999999996,0.6558574
-16.099623,-3.6431203,-0.56968635
-16.099623,-3.6431203,-0.56968635
-16.099623,-3.6431203,-0.56968635
-16.099623,-3.6431203,-0.56968635
-10.622974000000001,-1.9196993000000002,1.9771467
-10.622974000000001,-1.9196993000000002,1.9771467
-10.622974000000001,-1.9196993000000002,1.9771467
-10.622974000000001,-1.9196993000000002,1.9771467
-8.784659,-0.70373017,0.5313880999999999
-8.784659,-0.70373017,0.5313880999999999
-8.784659,-0.70373017,0.5313880999999999
-8.784659,-0.70373017,0.5313880999999999
-6.8601727,-0.9526688,0.3877697
-6.8601727,-0.9526688,0.3877697
-6.8601727,-0.9526688,0.3877697
-6.8601727,-0.9526688,0.3877697
-4.811217,-1.0388398,0.2441513
-4.811217,-1.0388398,0.2441513
-4.811217,-1.0388398,0.2441513
-4.811217,-1.0388398,0.2441513
-6.400593799999999,-1.5845897,-0.014361841
-6.400593799999999,-1.5845897,-0.014361841
-6.400593799999999,-1.5845897,-0.014361841
-6.400593799999999,-1.5845897,-0.014361841
-10.153821,-1.7569318999999999,-1.14416
-10.153821,-1.7569318999999999,-1.14416
-10.153821,-1.7569318999999999,-1.14416
-10.153821,-1.7569318999999999,-1.14416
-13.380448000000001,-2.1590632999999997,-2.2356597999999996
-13.380448000000001,-2.1590632999999997,-2.2356597999999996
-13.380448000000001,-2.1590632999999997,-2.2356597999999996
-13.380448000000001,-2.1590632999999997,-2.2356597999999996
-15.266637,-2.1590632999999997,-2.752686
-15.266637,-2.1590632999999997,-2.752686
-15.266637,-2.1590632999999997,-2.752686
-15.266637,-2.1590632999999997,-2.752686
-12.269799,-1.3452256999999999,-2.3697037999999995
-12.269799,-1.3452256999999999,-2.3697037999999995
-12.269799,-1.3452256999999999,-2.3697037999999995
-12.269799,-1.3452256999999999,-2.3697037999999995
-8.028269,-1.6516117,-1.5271424
-8.028269,-1.6516117,-1.5271424
-8.028269,-1.6516117,-1.5271424
-7.7984796,-2.5899186000000003,-2.321831
-7.7984796,-2.5899186000000003,-2.321831
-7.7984796,-2.5899186000000003,-2.321831
-7.7984796,-2.5899186000000003,-2.321831
-7.7984796,-2.5899186000000003,-2.321831
-8.363379,-3.0207740000000003,-2.321831
-8.363379,-3.0207740000000003,-2.321831
-8.363379,-3.0207740000000003,-2.321831
-8.363379,-3.0207740000000003,-2.321831
-9.991054,-3.6335455999999997,-2.3888528
-9.991054,-3.6335455999999997,-2.3888528
-9.991054,-3.6335455999999997,-2.3888528
-11.666602000000001,-4.4856815,-1.8239537000000001
-11.666602000000001,-4.4856815,-1.8239537000000001
-11.666602000000001,-4.4856815,-1.8239537000000001
-11.666602000000001,-4.4856815,-1.8239537000000001
-11.666602000000001,-4.4856815,-1.8239537000000001
-13.610238,-4.868664,-2.3697037999999995
-13.610238,-4.868664,-2.3697037999999995
-13.610238,-4.868664,-2.3697037999999995
-13.610238,-4.868664,-2.3697037999999995
-11.082554,-3.5952474999999997,-1.5367169
-11.082554,-3.5952474999999997,-1.5367169
-11.082554,-3.5952474999999997,-1.5367169
-11.082554,-3.5952474999999997,-1.5367169
-15.458128,-2.5707695,-2.4463003
-15.458128,-2.5707695,-2.4463003
-15.458128,-2.5707695,-2.4463003
-15.458128,-2.5707695,-2.4463003
-13.974070999999999,-1.6420371999999999,-0.39734426
-13.974070999999999,-1.6420371999999999,-0.39734426
-13.974070999999999,-1.6420371999999999,-0.39734426
-13.974070999999999,-1.6420371999999999,-0.39734426
-9.809137,-1.383524,-0.32074776
-9.809137,-1.383524,-0.32074776
-9.809137,-1.383524,-0.32074776
-9.809137,-1.383524,-0.32074776
-8.315506,-1.0771381000000002,-0.15798025
-8.315506,-1.0771381000000002,-0.15798025
-8.315506,-1.0771381000000002,-0.15798025
-8.315506,-1.0771381000000002,-0.15798025
-7.8176284,-0.25372586,0.12925656
-7.8176284,-0.25372586,0.12925656
-7.8176284,-0.25372586,0.12925656
-7.8176284,-0.25372586,0.12925656
-8.593167999999999,0.09095833,-0.28244954
-8.593167999999999,0.09095833,-0.28244954
-8.593167999999999,0.09095833,-0.28244954
-8.593167999999999,0.09095833,-0.28244954
-8.889978999999999,-0.8664976999999999,-0.56011176
-8.889978999999999,-0.8664976999999999,-0.56011176
-8.889978999999999,-0.8664976999999999,-0.56011176
-8.889978999999999,-0.8664976999999999,-0.56011176
-9.196365,-1.948423,0.98139244
-9.196365,-1.948423,0.98139244
-9.196365,-1.948423,0.98139244
-9.196365,-1.948423,0.98139244
-11.341067,-1.9292740000000002,-0.8186249
-11.341067,-1.9292740000000002,-0.8186249
-11.341067,-1.9292740000000002,-0.8186249
-11.341067,-1.9292740000000002,-0.8186249
-10.06765,-2.3122563,-1.1154363
-10.06765,-2.3122563,-1.1154363
-10.06765,-2.3122563,-1.1154363
-10.06765,-2.3122563,-1.1154363
-8.755936,-2.5899186000000003,-0.8281995000000001
-8.755936,-2.5899186000000003,-0.8281995000000001
-8.755936,-2.5899186000000003,-0.8281995000000001
-8.755936,-2.5899186000000003,-0.8281995000000001
-11.015532,-3.2697124,-1.1728836
-11.015532,-3.2697124,-1.1728836
-11.015532,-3.2697124,-1.1728836
-11.015532,-3.2697124,-1.1728836
-11.446387,-3.8729098,-1.2111819
-11.446387,-3.8729098,-1.2111819
-11.446387,-3.8729098,-1.2111819
-11.446387,-3.8729098,-1.2111819
-14.395351000000002,-3.9686553,-2.5516202
-14.395351000000002,-3.9686553,-2.5516202
-14.395351000000002,-3.9686553,-2.5516202
-14.395351000000002,-3.9686553,-2.5516202
-10.115523,-4.1601467,-1.8335283
-10.115523,-4.1601467,-1.8335283
-10.115523,-4.1601467,-1.8335283
-10.115523,-4.1601467,-1.8335283
-12.5474615,-3.3941817000000003,-3.212265
-12.5474615,-3.3941817000000003,-3.212265
-12.5474615,-3.3941817000000003,-3.212265
-12.5474615,-3.3941817000000003,-3.212265
-10.441058,-2.5228968,-2.1207652
-10.441058,-2.5228968,-2.1207652
-10.441058,-2.5228968,-2.1207652
-10.441058,-2.5228968,-2.1207652
-10.441058,-2.5228968,-2.1207652
-6.4484663,-2.494173,-1.1633091
-6.4484663,-2.494173,-1.1633091
-6.4484663,-2.494173,-1.1633091
-7.070812700000001,-2.2835326,-1.5367169
-7.070812700000001,-2.2835326,-1.5367169
-7.070812700000001,-2.2835326,-1.5367169
-7.070812700000001,-2.2835326,-1.5367169
-12.528313,-1.776081,-1.4313968000000001
-12.528313,-1.776081,-1.4313968000000001
-12.528313,-1.776081,-1.4313968000000001
-12.528313,-1.776081,-1.4313968000000001
-12.528313,-1.776081,-1.4313968000000001
-17.018782,-0.26330042,-2.254809
-17.018782,-0.26330042,-2.254809
-17.018782,-0.26330042,-2.254809
-10.804892,0.9526688,-1.5367169
-10.804892,0.9526688,-1.5367169
-10.804892,0.9526688,-1.5367169
-10.804892,0.9526688,-1.5367169
-10.804892,0.9526688,-1.5367169
-5.845269,-0.5792609000000001,1.0867126
-5.845269,-0.5792609000000001,1.0867126
-5.845269,-0.5792609000000001,1.0867126
-9.215514,-0.48351530000000004,-0.751603
-9.215514,-0.48351530000000004,-0.751603
-9.215514,-0.48351530000000004,-0.751603
-9.215514,-0.48351530000000004,-0.751603
-8.641041,-1.8335283,-0.3877697
-8.641041,-1.8335283,-0.3877697
-8.641041,-1.8335283,-0.3877697
-8.641041,-1.8335283,-0.3877697
-8.641041,-1.8335283,-0.3877697
-6.639958,-3.0207740000000003,0.5505372
-6.639958,-3.0207740000000003,0.5505372
-6.639958,-3.0207740000000003,0.5505372
-10.680422,-3.4037561000000003,-0.36862057
-10.680422,-3.4037561000000003,-0.36862057
-10.680422,-3.4037561000000003,-0.36862057
-10.680422,-3.4037561000000003,-0.36862057
-10.680422,-3.4037561000000003,-0.36862057
-13.581514000000002,-4.7920675,-0.5888355
-13.581514000000002,-4.7920675,-0.5888355
-13.581514000000002,-4.7920675,-0.5888355
-13.792154,-3.930357,-1.6707608
-13.792154,-3.930357,-1.6707608
-13.792154,-3.930357,-1.6707608
-13.792154,-3.930357,-1.6707608
-12.940019,-2.666515,-1.6611862000000002
-12.940019,-2.666515,-1.6611862000000002
-12.940019,-2.666515,-1.6611862000000002
-12.940019,-2.666515,-1.6611862000000002
-9.110194,-4.1601467,-1.4984187
-9.110194,-4.1601467,-1.4984187
-9.110194,-4.1601467,-1.4984187
-9.110194,-4.1601467,-1.4984187
-12.537887,-2.6377914000000002,-3.039923
-12.537887,-2.6377914000000002,-3.039923
-12.537887,-2.6377914000000002,-3.039923
-12.537887,-2.6377914000000002,-3.039923
-8.5740185,-2.2643836,-1.383524
-8.5740185,-2.2643836,-1.383524
-8.5740185,-2.2643836,-1.383524
-8.5740185,-2.2643836,-1.383524
-6.151655,-2.3314054,-1.1058618
-6.151655,-2.3314054,-1.1058618
-6.151655,-2.3314054,-1.1058618
-6.151655,-2.3314054,-1.1058618
-8.736787,-1.8909756999999998,-1.5558661
-8.736787,-1.8909756999999998,-1.5558661
-8.736787,-1.8909756999999998,-1.5558661
-8.736787,-1.8909756999999998,-1.5558661
-15.400681,-1.2494801000000002,-1.5654407
-15.400681,-1.2494801000000002,-1.5654407
-15.400681,-1.2494801000000002,-1.5654407
-15.400681,-1.2494801000000002,-1.5654407
-14.366628,-0.023936402000000002,-2.1111906000000005
-14.366628,-0.023936402000000002,-2.1111906000000005
-14.366628,-0.023936402000000002,-2.1111906000000005
-14.366628,-0.023936402000000002,-2.1111906000000005
-7.9899707,-0.30159867,0.014361841
-7.9899707,-0.30159867,0.014361841
-7.9899707,-0.30159867,0.014361841
-7.9899707,-0.30159867,0.014361841
-7.8367777,-1.1250108,0.4164934
-7.8367777,-1.1250108,0.4164934
-7.8367777,-1.1250108,0.4164934
-7.8367777,-1.1250108,0.4164934
-7.8367777,-1.1250108,0.4164934
-10.077225,-0.90479594,-2.5803439999999997
-10.077225,-0.90479594,-2.5803439999999997
-10.077225,-0.90479594,-2.5803439999999997
-7.855927,-2.494173,0.10053288
-7.855927,-2.494173,0.10053288
-7.855927,-2.494173,0.10053288
-7.855927,-2.494173,0.10053288
-6.2474008,-2.88673,0.63670826
-6.2474008,-2.88673,0.63670826
-6.2474008,-2.88673,0.63670826
-6.2474008,-2.88673,0.63670826
-6.2474008,-2.88673,0.63670826
-9.924032,-3.3175852,-0.45479164
-9.924032,-3.3175852,-0.45479164
-9.924032,-3.3175852,-0.45479164
-15.209189000000002,-3.4324798999999997,-1.3643749
-15.209189000000002,-3.4324798999999997,-1.3643749
-15.209189000000002,-3.4324798999999997,-1.3643749
-15.209189000000002,-3.4324798999999997,-1.3643749
-15.209189000000002,-3.4324798999999997,-1.3643749
-13.380448000000001,-3.7867386,-0.64628285
-13.380448000000001,-3.7867386,-0.64628285
-13.380448000000001,-3.7867386,-0.64628285
-11.829369999999999,-3.4324798999999997,-1.2782038
-11.829369999999999,-3.4324798999999997,-1.2782038
-11.829369999999999,-3.4324798999999997,-1.2782038
-11.829369999999999,-3.4324798999999997,-1.2782038
-11.379365,-2.4558747000000003,-2.561195
-11.379365,-2.4558747000000003,-2.561195
-11.379365,-2.4558747000000003,-2.561195
-11.379365,-2.4558747000000003,-2.561195
-11.350641,-2.2452345,-1.9292740000000002
-11.350641,-2.2452345,-1.9292740000000002
-11.350641,-2.2452345,-1.9292740000000002
-11.350641,-2.2452345,-1.9292740000000002
-7.252729400000001,-2.1207652,-1.0292653
-7.252729400000001,-2.1207652,-1.0292653
-7.252729400000001,-2.1207652,-1.0292653
-7.252729400000001,-2.1207652,-1.0292653
-6.103782,-1.9579976000000003,-1.2877783999999999
-6.103782,-1.9579976000000003,-1.2877783999999999
-6.103782,-1.9579976000000003,-1.2877783999999999
-6.103782,-1.9579976000000003,-1.2877783999999999
-9.493176,-1.6994845,-1.4313968000000001
-9.493176,-1.6994845,-1.4313968000000001
-9.493176,-1.6994845,-1.4313968000000001
-9.493176,-1.6994845,-1.4313968000000001
-15.170891000000001,-0.93351966,-2.0058703
-15.170891000000001,-0.93351966,-2.0058703
-15.170891000000001,-0.93351966,-2.0058703
-15.170891000000001,-0.93351966,-2.0058703
-12.67193,-0.70373017,-0.9718179
-12.67193,-0.70373017,-0.9718179
-12.67193,-0.70373017,-0.9718179
-12.67193,-0.70373017,-0.9718179
-9.244238000000001,-0.8281995000000001,-0.15798025
-9.244238000000001,-0.8281995000000001,-0.15798025
-9.244238000000001,-0.8281995000000001,-0.15798025
-9.244238000000001,-0.8281995000000001,-0.15798025
-8.1623125,-0.6558574,-0.6845810999999999
-8.1623125,-0.6558574,-0.6845810999999999
-8.1623125,-0.6558574,-0.6845810999999999
-8.1623125,-0.6558574,-0.6845810999999999
-9.971905,-2.0920415,-0.8664976999999999
-9.971905,-2.0920415,-0.8664976999999999
-9.971905,-2.0920415,-0.8664976999999999
-9.971905,-2.0920415,-0.8664976999999999
-7.377198700000001,-1.9771467,-0.062234644000000006
-7.377198700000001,-1.9771467,-0.062234644000000006
-7.377198700000001,-1.9771467,-0.062234644000000006
-7.377198700000001,-1.9771467,-0.062234644000000006
-6.323997,-3.5282254,0.8856468000000001
-6.323997,-3.5282254,0.8856468000000001
-6.323997,-3.5282254,0.8856468000000001
-6.323997,-3.5282254,0.8856468000000001
-10.259142,-3.7388659,0.37819514
-10.259142,-3.7388659,0.37819514
-10.259142,-3.7388659,0.37819514
-10.259142,-3.7388659,0.37819514
-14.64429,-3.518651,-0.9718179
-14.64429,-3.518651,-0.9718179
-14.64429,-3.518651,-0.9718179
-14.64429,-3.518651,-0.9718179
-15.123018,-2.6760897999999997,-1.9292740000000002
-15.123018,-2.6760897999999997,-1.9292740000000002
-15.123018,-2.6760897999999997,-1.9292740000000002
-15.123018,-2.6760897999999997,-1.9292740000000002
-12.135756,-3.451629,-1.2016073
-12.135756,-3.451629,-1.2016073
-12.135756,-3.451629,-1.2016073
-12.135756,-3.451629,-1.2016073
-10.239991999999999,-2.8101335,-2.4750240000000003
-10.239991999999999,-2.8101335,-2.4750240000000003
-10.239991999999999,-2.8101335,-2.4750240000000003
-10.239991999999999,-2.8101335,-2.4750240000000003
-12.365545,-2.4367256,-2.254809
-12.365545,-2.4367256,-2.254809
-12.365545,-2.4367256,-2.254809
-12.365545,-2.4367256,-2.254809
-9.339984,-1.8718264999999998,-1.2399056
-9.339984,-1.8718264999999998,-1.2399056
-9.339984,-1.8718264999999998,-1.2399056
-9.339984,-1.8718264999999998,-1.2399056
-7.3389006,-1.6611862000000002,-0.91437054
-7.3389006,-1.6611862000000002,-0.91437054
-7.3389006,-1.6611862000000002,-0.91437054
-7.3389006,-1.6611862000000002,-0.91437054
-9.20594,-1.3548003,-0.93351966
-9.20594,-1.3548003,-0.93351966
-9.20594,-1.3548003,-0.93351966
-9.20594,-1.3548003,-0.93351966
-11.130426,-0.8856468000000001,-0.7324539000000001
-11.130426,-0.8856468000000001,-0.7324539000000001
-11.130426,-0.8856468000000001,-0.7324539000000001
-11.130426,-0.8856468000000001,-0.7324539000000001
-10.488931,-0.64628285,0.11968201
-10.488931,-0.64628285,0.11968201
-10.488931,-0.64628285,0.11968201
-10.488931,-0.64628285,0.11968201
-9.64637,-0.69415563,0.6558574
-9.64637,-0.69415563,0.6558574
-9.64637,-0.69415563,0.6558574
-9.64637,-0.69415563,0.6558574
-9.780414,-0.8281995000000001,-0.18670394
-9.780414,-0.8281995000000001,-0.18670394
-9.780414,-0.8281995000000001,-0.18670394
-9.780414,-0.8281995000000001,-0.18670394
-13.0549135,-2.015445,-2.015445
-13.0549135,-2.015445,-2.015445
-13.0549135,-2.015445,-2.015445
-13.0549135,-2.015445,-2.015445
-9.866585,-2.8963046,-1.7473572
-9.866585,-2.8963046,-1.7473572
-9.866585,-2.8963046,-1.7473572
-9.866585,-2.8963046,-1.7473572
-9.866585,-2.8963046,-1.7473572
-6.505913700000001,-3.690993,-0.48351530000000004
-6.505913700000001,-3.690993,-0.48351530000000004
-6.505913700000001,-3.690993,-0.48351530000000004
-7.463369999999999,-3.777164,-1.6994845
-7.463369999999999,-3.777164,-1.6994845
-7.463369999999999,-3.777164,-1.6994845
-7.463369999999999,-3.777164,-1.6994845
-12.35597,-3.451629,-2.360129
-12.35597,-3.451629,-2.360129
-12.35597,-3.451629,-2.360129
-12.35597,-3.451629,-2.360129
-13.00704,-3.4037561000000003,-1.6228879999999999
-13.00704,-3.4037561000000003,-1.6228879999999999
-13.00704,-3.4037561000000003,-1.6228879999999999
-13.00704,-3.4037561000000003,-1.6228879999999999
-11.082554,-3.3175852,0.023936402000000002
-11.082554,-3.3175852,0.023936402000000002
-11.082554,-3.3175852,0.023936402000000002
-11.082554,-3.3175852,0.023936402000000002
-11.082554,-3.3175852,0.023936402000000002
-11.446387,-2.7431116,-0.6271336999999999
-11.446387,-2.7431116,-0.6271336999999999
-11.446387,-2.7431116,-0.6271336999999999
-17.238997,-1.0867126,0.11968201
-17.238997,-1.0867126,0.11968201
-17.238997,-1.0867126,0.11968201
-17.238997,-1.0867126,0.11968201
-13.533641000000001,1.2782038,0.9430941999999999
-13.533641000000001,1.2782038,0.9430941999999999
-13.533641000000001,1.2782038,0.9430941999999999
-13.533641000000001,1.2782038,0.9430941999999999
-13.533641000000001,1.2782038,0.9430941999999999
-2.9154537,-5.605905,-1.2494801000000002
-2.9154537,-5.605905,-1.2494801000000002
-2.9154537,-5.605905,-1.2494801000000002
-6.984642,0.8473485999999999,1.4888442
-6.984642,0.8473485999999999,1.4888442
-6.984642,0.8473485999999999,1.4888442
-6.984642,0.8473485999999999,1.4888442
-6.984642,0.8473485999999999,1.4888442
-4.236743,-1.6994845,1.4792696
-4.236743,-1.6994845,1.4792696
-4.236743,-1.6994845,1.4792696
-4.236743,-1.6994845,1.4792696
-4.6005764000000005,-3.1452432,-0.27287498
-4.6005764000000005,-3.1452432,-0.27287498
-4.6005764000000005,-3.1452432,-0.27287498
-4.6005764000000005,-3.1452432,-0.27287498
-4.6005764000000005,-3.1452432,-0.27287498
-4.6005764000000005,-3.1452432,-0.27287498
-4.6005764000000005,-3.1452432,-0.27287498
-10.728295,-4.0069537,-2.3026817000000004
-10.728295,-4.0069537,-2.3026817000000004
-10.728295,-4.0069537,-2.3026817000000004
-10.728295,-4.0069537,-2.3026817000000004
-11.781497,-2.9537517999999996,-1.8143792
-11.781497,-2.9537517999999996,-1.8143792
-11.781497,-2.9537517999999996,-1.8143792
-11.781497,-2.9537517999999996,-1.8143792
-15.180466000000001,-3.4133307999999998,-3.2888615
-15.180466000000001,-3.4133307999999998,-3.2888615
-15.180466000000001,-3.4133307999999998,-3.2888615
-15.180466000000001,-3.4133307999999998,-3.2888615
-7.4442205,-2.8388572,-2.2165107999999996
-7.4442205,-2.8388572,-2.2165107999999996
-7.4442205,-2.8388572,-2.2165107999999996
-7.4442205,-2.8388572,-2.2165107999999996
-7.4442205,-2.8388572,-2.2165107999999996
-6.4484663,-2.733537,-1.4792696
-6.4484663,-2.733537,-1.4792696
-6.4484663,-2.733537,-1.4792696
-8.842107,-2.733537,-1.7952299999999999
-8.842107,-2.733537,-1.7952299999999999
-8.842107,-2.733537,-1.7952299999999999
-8.842107,-2.733537,-1.7952299999999999
-10.077225,-3.8346114,-2.4463003
-10.077225,-3.8346114,-2.4463003
-10.077225,-3.8346114,-2.4463003
-10.077225,-3.8346114,-2.4463003
-10.077225,-3.8346114,-2.4463003
-10.594251,-4.428234,-1.8909756999999998
-10.594251,-4.428234,-1.8909756999999998
-10.594251,-4.428234,-1.8909756999999998
-12.384694,-5.395264599999999,-1.8431028999999999
-12.384694,-5.395264599999999,-1.8431028999999999
-12.384694,-5.395264599999999,-1.8431028999999999
-12.384694,-5.395264599999999,-1.8431028999999999
-12.384694,-5.395264599999999,-1.8431028999999999
-11.293194,-4.610151,-1.1920328000000002
-11.293194,-4.610151,-1.1920328000000002
-11.293194,-4.610151,-1.1920328000000002
-17.37304,-2.168638,-1.3452256999999999
-17.37304,-2.168638,-1.3452256999999999
-17.37304,-2.168638,-1.3452256999999999
-17.37304,-2.168638,-1.3452256999999999
-11.7336235,-2.2452345,0.5218136
-11.7336235,-2.2452345,0.5218136
-11.7336235,-2.2452345,0.5218136
-11.7336235,-2.2452345,0.5218136
-9.445304,-1.709059,0.03351096
-9.445304,-1.709059,0.03351096
-9.445304,-1.709059,0.03351096
-9.445304,-1.709059,0.03351096
-7.9325233,-0.54096264,0.3398969
-7.9325233,-0.54096264,0.3398969
-7.9325233,-0.54096264,0.3398969
-7.9325233,-0.54096264,0.3398969
-8.650616000000001,-0.751603,-0.40691882
-8.650616000000001,-0.751603,-0.40691882
-8.650616000000001,-0.751603,-0.40691882
-8.650616000000001,-0.751603,-0.40691882
-9.904882,-1.9101248,-0.56968635
-9.904882,-1.9101248,-0.56968635
-9.904882,-1.9101248,-0.56968635
-9.904882,-1.9101248,-0.56968635
-12.260224000000001,-1.9579976000000003,-2.3026817000000004
-12.260224000000001,-1.9579976000000003,-2.3026817000000004
-12.260224000000001,-1.9579976000000003,-2.3026817000000004
-12.260224000000001,-1.9579976000000003,-2.3026817000000004
-11.867668,-1.709059,-3.039923
-11.867668,-1.709059,-3.039923
-11.867668,-1.709059,-3.039923
-11.867668,-1.709059,-3.039923
-14.347479000000002,-3.1739669999999998,-4.121848
-14.347479000000002,-3.1739669999999998,-4.121848
-14.347479000000002,-3.1739669999999998,-4.121848
-14.347479000000002,-3.1739669999999998,-4.121848
-9.98148,-3.3271596,-1.6420371999999999
-9.98148,-3.3271596,-1.6420371999999999
-9.98148,-3.3271596,-1.6420371999999999
-9.98148,-3.3271596,-1.6420371999999999
-7.396348,-3.0686467,0.13883112
-7.396348,-3.0686467,0.13883112
-7.396348,-3.0686467,0.13883112
-7.396348,-3.0686467,0.13883112
-8.842107,-3.5665237999999997,-0.91437054
-8.842107,-3.5665237999999997,-0.91437054
-8.842107,-3.5665237999999997,-0.91437054
-8.842107,-3.5665237999999997,-0.91437054
-10.833615,-4.696322,-1.0484143
-10.833615,-4.696322,-1.0484143
-10.833615,-4.696322,-1.0484143
-10.833615,-4.696322,-1.0484143
-10.287866000000001,-4.8973875,-1.14416
-10.287866000000001,-4.8973875,-1.14416
-10.287866000000001,-4.8973875,-1.14416
-10.287866000000001,-4.8973875,-1.14416
-12.844273,-4.131423000000001,-1.7952299999999999
-12.844273,-4.131423000000001,-1.7952299999999999
-12.844273,-4.131423000000001,-1.7952299999999999
-12.844273,-4.131423000000001,-1.7952299999999999
-13.188957,-3.2026904,-2.5707695
-13.188957,-3.2026904,-2.5707695
-13.188957,-3.2026904,-2.5707695
-13.188957,-3.2026904,-2.5707695
-13.188957,-3.2026904,-2.5707695
-16.587927,-2.3697037999999995,-3.6335455999999997
-16.587927,-2.3697037999999995,-3.6335455999999997
-16.587927,-2.3697037999999995,-3.6335455999999997
-10.82404,-1.8909756999999998,-1.5654407
-10.82404,-1.8909756999999998,-1.5654407
-10.82404,-1.8909756999999998,-1.5654407
-10.82404,-1.8909756999999998,-1.5654407
-8.047417999999999,-1.776081,-1.3548003
-8.047417999999999,-1.776081,-1.3548003
-8.047417999999999,-1.776081,-1.3548003
-8.047417999999999,-1.776081,-1.3548003
-8.047417999999999,-1.776081,-1.3548003
-10.374036,-1.2686293,-1.4792696
-10.374036,-1.2686293,-1.4792696
-10.374036,-1.2686293,-1.4792696
-12.394267999999999,-0.27287498,-1.8814011999999998
-12.394267999999999,-0.27287498,-1.8814011999999998
-12.394267999999999,-0.27287498,-1.8814011999999998
-12.394267999999999,-0.27287498,-1.8814011999999998
-12.394267999999999,-0.27287498,-1.8814011999999998
-10.125097,-0.014361841,-1.4026731000000001
-10.125097,-0.014361841,-1.4026731000000001
-10.125097,-0.014361841,-1.4026731000000001
-10.125097,-0.014361841,-1.4026731000000001
-7.7793303,-1.5462915000000002,-0.023936402000000002
-7.7793303,-1.5462915000000002,-0.023936402000000002
-7.7793303,-1.5462915000000002,-0.023936402000000002
-7.7793303,-1.5462915000000002,-0.023936402000000002
-9.847435,-1.5654407,-0.76117754
-9.847435,-1.5654407,-0.76117754
-9.847435,-1.5654407,-0.76117754
-9.847435,-1.5654407,-0.76117754
-9.713391,-1.8718264999999998,-0.69415563
-9.713391,-1.8718264999999998,-0.69415563
-9.713391,-1.8718264999999998,-0.69415563
-9.713391,-1.8718264999999998,-0.69415563
-9.292110000000001,-2.8197080000000003,-0.14840569
-9.292110000000001,-2.8197080000000003,-0.14840569
-9.292110000000001,-2.8197080000000003,-0.14840569
-9.292110000000001,-2.8197080000000003,-0.14840569
-13.265553,-4.543129,-0.17712937
-13.265553,-4.543129,-0.17712937
-13.265553,-4.543129,-0.17712937
-13.265553,-4.543129,-0.17712937
-14.031518,-6.3527207,-0.34947145
-14.031518,-6.3527207,-0.34947145
-14.031518,-6.3527207,-0.34947145
-14.031518,-6.3527207,-0.34947145
-13.457045,-1.2686293,-0.8952214
-13.457045,-1.2686293,-0.8952214
-13.457045,-1.2686293,-0.8952214
-13.457045,-1.2686293,-0.8952214
-12.183628,-5.06973,-1.3356511999999998
-12.183628,-5.06973,-1.3356511999999998
-12.183628,-5.06973,-1.3356511999999998
-12.183628,-5.06973,-1.3356511999999998
-10.307014,-3.8729098,-2.6090677
-10.307014,-3.8729098,-2.6090677
-10.307014,-3.8729098,-2.6090677
-10.307014,-3.8729098,-2.6090677
-10.910212,-3.0494976,-2.34098
-10.910212,-3.0494976,-2.34098
-10.910212,-3.0494976,-2.34098
-10.910212,-3.0494976,-2.34098
-8.535721,-2.2260852000000004,-1.5558661
-8.535721,-2.2260852000000004,-1.5558661
-8.535721,-2.2260852000000004,-1.5558661
-8.535721,-2.2260852000000004,-1.5558661
-8.296356,-1.9196993000000002,-1.6228879999999999
-8.296356,-1.9196993000000002,-1.6228879999999999
-8.296356,-1.9196993000000002,-1.6228879999999999
-11.293194,-1.8814011999999998,-1.4984187
-11.293194,-1.8814011999999998,-1.4984187
-11.293194,-1.8814011999999998,-1.4984187
-11.293194,-1.8814011999999998,-1.4984187
-11.293194,-1.8814011999999998,-1.4984187
-15.438979000000002,-1.2686293,-1.709059
-15.438979000000002,-1.2686293,-1.709059
-15.438979000000002,-1.2686293,-1.709059
-12.375119,-0.8952214,-1.1058618
-12.375119,-0.8952214,-1.1058618
-12.375119,-0.8952214,-1.1058618
-12.375119,-0.8952214,-1.1058618
-6.764427,-0.6271336999999999,0.36862057
-6.764427,-0.6271336999999999,0.36862057
-6.764427,-0.6271336999999999,0.36862057
-6.764427,-0.6271336999999999,0.36862057
-6.764427,-0.6271336999999999,0.36862057
-7.9995449999999995,-1.4026731000000001,-0.3398969
-7.9995449999999995,-1.4026731000000001,-0.3398969
-7.9995449999999995,-1.4026731000000001,-0.3398969
-8.822957,-2.1590632999999997,-1.3260766000000002
-8.822957,-2.1590632999999997,-1.3260766000000002
-8.822957,-2.1590632999999997,-1.3260766000000002
-8.822957,-2.1590632999999997,-1.3260766000000002
-7.080387599999999,-2.3505547000000004,0.40691882
-7.080387599999999,-2.3505547000000004,0.40691882
-7.080387599999999,-2.3505547000000004,0.40691882
-7.080387599999999,-2.3505547000000004,0.40691882
-9.904882,-3.6335455999999997,0.44521707
-9.904882,-3.6335455999999997,0.44521707
-9.904882,-3.6335455999999997,0.44521707
-9.904882,-3.6335455999999997,0.44521707
-15.754939000000002,-4.504830999999999,-0.76117754
-15.754939000000002,-4.504830999999999,-0.76117754
-15.754939000000002,-4.504830999999999,-0.76117754
-15.754939000000002,-4.504830999999999,-0.76117754
-12.892146,-4.2080193,-0.6558574
-12.892146,-4.2080193,-0.6558574
-12.892146,-4.2080193,-0.6558574
-12.892146,-4.2080193,-0.6558574
-12.624058,-3.0973704,-0.90479594
-12.624058,-3.0973704,-0.90479594
-12.624058,-3.0973704,-0.90479594
-12.624058,-3.0973704,-0.90479594
-9.62722,-4.7920675,-1.6324625
-9.62722,-4.7920675,-1.6324625
-9.62722,-4.7920675,-1.6324625
-9.62722,-4.7920675,-1.6324625
-13.792154,-2.9537517999999996,-3.4899273
-13.792154,-2.9537517999999996,-3.4899273
-13.792154,-2.9537517999999996,-3.4899273
-13.792154,-2.9537517999999996,-3.4899273
-11.925115,-2.5899186000000003,-1.9101248
-11.925115,-2.5899186000000003,-1.9101248
-11.925115,-2.5899186000000003,-1.9101248
-11.925115,-2.5899186000000003,-1.9101248
-8.889978999999999,-1.9292740000000002,-1.3643749
-8.889978999999999,-1.9292740000000002,-1.3643749
-8.889978999999999,-1.9292740000000002,-1.3643749
-8.889978999999999,-1.9292740000000002,-1.3643749
-9.31126,-1.5271424,-1.5462915000000002
-9.31126,-1.5271424,-1.5462915000000002
-9.31126,-1.5271424,-1.5462915000000002
-9.31126,-1.5271424,-1.5462915000000002
-13.275128,-0.5218136,-1.5175678999999997
-13.275128,-0.5218136,-1.5175678999999997
-13.275128,-0.5218136,-1.5175678999999997
-13.275128,-0.5218136,-1.5175678999999997
-11.829369999999999,-0.56968635,-1.3356511999999998
-11.829369999999999,-0.56968635,-1.3356511999999998
-11.829369999999999,-0.56968635,-1.3356511999999998
-11.829369999999999,-0.56968635,-1.3356511999999998
-7.587839,-0.5888355,-0.42606795
-7.587839,-0.5888355,-0.42606795
-7.587839,-0.5888355,-0.42606795
-7.587839,-0.5888355,-0.42606795
-8.066567,-1.0388398,-0.8856468000000001
-8.066567,-1.0388398,-0.8856468000000001
-8.066567,-1.0388398,-0.8856468000000001
-8.066567,-1.0388398,-0.8856468000000001
-10.814466,-1.9101248,-1.3548003
-10.814466,-1.9101248,-1.3548003
-10.814466,-1.9101248,-1.3548003
-10.814466,-1.9101248,-1.3548003
-10.374036,-2.0633178,-0.85692316
-10.374036,-2.0633178,-0.85692316
-10.374036,-2.0633178,-0.85692316
-10.374036,-2.0633178,-0.85692316
-9.780414,-3.518651,-0.54096264
-9.780414,-3.518651,-0.54096264
-9.780414,-3.518651,-0.54096264
-9.780414,-3.518651,-0.54096264
-12.662355999999999,-4.6675982000000005,-0.47394073
-12.662355999999999,-4.6675982000000005,-0.47394073
-12.662355999999999,-4.6675982000000005,-0.47394073
-12.662355999999999,-4.6675982000000005,-0.47394073
-12.518738,-4.6867475999999995,-0.512239
-12.518738,-4.6867475999999995,-0.512239
-12.518738,-4.6867475999999995,-0.512239
-12.518738,-4.6867475999999995,-0.512239
-14.194285,-3.212265,-1.469695
-14.194285,-3.212265,-1.469695
-14.194285,-3.212265,-1.469695
-14.194285,-3.212265,-1.469695
-10.843189,-4.5527034,-1.3548003
-10.843189,-4.5527034,-1.3548003
-10.843189,-4.5527034,-1.3548003
-14.213435,-3.1643922000000004,-3.0686467
-14.213435,-3.1643922000000004,-3.0686467
-14.213435,-3.1643922000000004,-3.0686467
-14.213435,-3.1643922000000004,-3.0686467
-14.213435,-3.1643922000000004,-3.0686467
-12.394267999999999,-2.1590632999999997,-2.2452345
-12.394267999999999,-2.1590632999999997,-2.2452345
-12.394267999999999,-2.1590632999999997,-2.2452345
-12.394267999999999,-2.1590632999999997,-2.2452345
-8.430401,-1.7952299999999999,-1.2686293
-8.430401,-1.7952299999999999,-1.2686293
-8.430401,-1.7952299999999999,-1.2686293
-9.876159,-1.1058618,-1.5175678999999997
-9.876159,-1.1058618,-1.5175678999999997
-9.876159,-1.1058618,-1.5175678999999997
-9.876159,-1.1058618,-1.5175678999999997
-9.876159,-1.1058618,-1.5175678999999997
-11.781497,-0.512239,-1.4888442
-11.781497,-0.512239,-1.4888442
-11.781497,-0.512239,-1.4888442
-11.781497,-0.512239,-1.4888442
-10.546378,-0.56011176,-0.9430941999999999
-10.546378,-0.56011176,-0.9430941999999999
-10.546378,-0.56011176,-0.9430941999999999
-10.546378,-0.56011176,-0.9430941999999999
-9.54105,-0.90479594,-0.39734426
-9.54105,-0.90479594,-0.39734426
-9.54105,-0.90479594,-0.39734426
-9.54105,-0.90479594,-0.39734426
-9.167641999999999,-1.2782038,-0.3877697
-9.167641999999999,-1.2782038,-0.3877697
-9.167641999999999,-1.2782038,-0.3877697
-11.532558,-1.8143792,-1.6228879999999999
-11.532558,-1.8143792,-1.6228879999999999
-11.532558,-1.8143792,-1.6228879999999999
-11.532558,-1.8143792,-1.6228879999999999
-10.230417999999998,-2.34098,-1.4601203999999999
-10.230417999999998,-2.34098,-1.4601203999999999
-10.230417999999998,-2.34098,-1.4601203999999999
-10.230417999999998,-2.34098,-1.4601203999999999
-8.813383,-3.9399316,-0.26330042
-8.813383,-3.9399316,-0.26330042
-8.813383,-3.9399316,-0.26330042
-8.813383,-3.9399316,-0.26330042
-10.642124,-4.3995104000000005,-0.9430941999999999
-10.642124,-4.3995104000000005,-0.9430941999999999
-10.642124,-4.3995104000000005,-0.9430941999999999
-10.642124,-4.3995104000000005,-0.9430941999999999
-12.882571,-4.3803616,-1.5845897
-12.882571,-4.3803616,-1.5845897
-12.882571,-4.3803616,-1.5845897
-12.882571,-4.3803616,-1.5845897
-13.208105999999999,-3.212265,-1.862252
-13.208105999999999,-3.212265,-1.862252
-13.208105999999999,-3.212265,-1.862252
-13.208105999999999,-3.212265,-1.862252
-12.068733,-4.648448999999999,-1.1250108
-12.068733,-4.648448999999999,-1.1250108
-12.068733,-4.648448999999999,-1.1250108
-10.058076,-3.4803526,-1.9292740000000002
-10.058076,-3.4803526,-1.9292740000000002
-10.058076,-3.4803526,-1.9292740000000002
-10.058076,-3.4803526,-1.9292740000000002
-10.058076,-3.4803526,-1.9292740000000002
-15.142167,-2.647366,-2.7622607000000006
-15.142167,-2.647366,-2.7622607000000006
-15.142167,-2.647366,-2.7622607000000006
-15.142167,-2.647366,-2.7622607000000006
-14.079391500000002,-1.8718264999999998,-1.2782038
-14.079391500000002,-1.8718264999999998,-1.2782038
-14.079391500000002,-1.8718264999999998,-1.2782038
-14.079391500000002,-1.8718264999999998,-1.2782038
-9.531475,-1.3069274,-0.33032233
-9.531475,-1.3069274,-0.33032233
-9.531475,-1.3069274,-0.33032233
-5.7208,0.5888355,-0.2154276
-5.7208,0.5888355,-0.2154276
-5.7208,0.5888355,-0.2154276
-5.7208,0.5888355,-0.2154276
-6.3622955999999995,-0.751603,0.56011176
-6.3622955999999995,-0.751603,0.56011176
-6.3622955999999995,-0.751603,0.56011176
-6.3622955999999995,-0.751603,0.56011176
-10.077225,-0.42606795,-0.6079846
-10.077225,-0.42606795,-0.6079846
-10.077225,-0.42606795,-0.6079846
-10.077225,-0.42606795,-0.6079846
-11.532558,-1.3930986,-0.44521707
-11.532558,-1.3930986,-0.44521707
-11.532558,-1.3930986,-0.44521707
-11.532558,-1.3930986,-0.44521707
-11.532558,-1.3930986,-0.44521707
-12.863422,-1.8526775000000002,-1.3165021000000001
-12.863422,-1.8526775000000002,-1.3165021000000001
-12.863422,-1.8526775000000002,-1.3165021000000001
-12.719804,-2.015445,-2.1399142999999996
-12.719804,-2.015445,-2.1399142999999996
-12.719804,-2.015445,-2.1399142999999996
-12.719804,-2.015445,-2.1399142999999996
-13.246405,-2.5707695,-3.1835412999999995
-13.246405,-2.5707695,-3.1835412999999995
-13.246405,-2.5707695,-3.1835412999999995
-13.246405,-2.5707695,-3.1835412999999995
-9.991054,-2.9633265,-3.0973704
-9.991054,-2.9633265,-3.0973704
-9.991054,-2.9633265,-3.0973704
-9.991054,-2.9633265,-3.0973704
-5.634629,-3.3175852,-1.1728836
-5.634629,-3.3175852,-1.1728836
-5.634629,-3.3175852,-1.1728836
-5.634629,-3.3175852,-1.1728836
-5.6825019999999995,-2.8580062,-1.8526775000000002
-5.6825019999999995,-2.8580062,-1.8526775000000002
-5.6825019999999995,-2.8580062,-1.8526775000000002
-5.6825019999999995,-2.8580062,-1.8526775000000002
-7.405922400000001,-2.7622607000000006,-1.7377827000000001
-7.405922400000001,-2.7622607000000006,-1.7377827000000001
-7.405922400000001,-2.7622607000000006,-1.7377827000000001
-7.405922400000001,-2.7622607000000006,-1.7377827000000001
-8.411251,-2.8771553,-1.5175678999999997
-8.411251,-2.8771553,-1.5175678999999997
-8.411251,-2.8771553,-1.5175678999999997
-8.411251,-2.8771553,-1.5175678999999997
-9.426155,-3.6239712,-1.2877783999999999
-9.426155,-3.6239712,-1.2877783999999999
-9.426155,-3.6239712,-1.2877783999999999
-9.426155,-3.6239712,-1.2877783999999999
-13.418745999999999,-4.08355,-0.8186249
-13.418745999999999,-4.08355,-0.8186249
-13.418745999999999,-4.08355,-0.8186249
-13.418745999999999,-4.08355,-0.8186249
-11.484685,-3.059072,-0.37819514
-11.484685,-3.059072,-0.37819514
-11.484685,-3.059072,-0.37819514
-11.484685,-3.059072,-0.37819514
-16.233667,-2.9537517999999996,-0.05266008
-16.233667,-2.9537517999999996,-0.05266008
-16.233667,-2.9537517999999996,-0.05266008
-16.233667,-2.9537517999999996,-0.05266008
-16.233667,-2.9537517999999996,-0.05266008
-11.7049,-2.168638,2.0824668
-11.7049,-2.168638,2.0824668
-11.7049,-2.168638,2.0824668
-10.287866000000001,-2.0058703,0.5888355
-10.287866000000001,-2.0058703,0.5888355
-10.287866000000001,-2.0058703,0.5888355
-10.287866000000001,-2.0058703,0.5888355
-10.038927000000001,-0.6271336999999999,1.0484143
-10.038927000000001,-0.6271336999999999,1.0484143
-10.038927000000001,-0.6271336999999999,1.0484143
-10.038927000000001,-0.6271336999999999,1.0484143
-10.038927000000001,-0.6271336999999999,1.0484143
-6.869747,-0.34947145,0.34947145
-6.869747,-0.34947145,0.34947145
-6.869747,-0.34947145,0.34947145
-5.328243,-1.6899098999999997,0.3877697
-5.328243,-1.6899098999999997,0.3877697
-5.328243,-1.6899098999999997,0.3877697
-5.328243,-1.6899098999999997,0.3877697
-7.319751299999999,-1.9962958,-0.19627848
-7.319751299999999,-1.9962958,-0.19627848
-7.319751299999999,-1.9962958,-0.19627848
-7.319751299999999,-1.9962958,-0.19627848
-7.319751299999999,-1.9962958,-0.19627848
-12.394267999999999,-2.1399142999999996,-2.7909843999999997
-12.394267999999999,-2.1399142999999996,-2.7909843999999997
-12.394267999999999,-2.1399142999999996,-2.7909843999999997
-16.013453,-2.8963046,-3.2984362000000003
-16.013453,-2.8963046,-3.2984362000000003
-16.013453,-2.8963046,-3.2984362000000003
-16.013453,-2.8963046,-3.2984362000000003
-12.422992,-2.5803439999999997,-3.1452432
-12.422992,-2.5803439999999997,-3.1452432
-12.422992,-2.5803439999999997,-3.1452432
-12.422992,-2.5803439999999997,-3.1452432
-12.422992,-2.5803439999999997,-3.1452432
-7.846352,-3.0111992,-1.2399056
-7.846352,-3.0111992,-1.2399056
-7.846352,-3.0111992,-1.2399056
-7.846352,-3.0111992,-1.2399056
-7.3389006,-2.9920502,-0.83777404
-7.3389006,-2.9920502,-0.83777404
-7.3389006,-2.9920502,-0.83777404
-9.024023,-3.4612036,-1.5175678999999997
-9.024023,-3.4612036,-1.5175678999999997
-9.024023,-3.4612036,-1.5175678999999997
-9.024023,-3.4612036,-1.5175678999999997
-11.982562,-3.9495062999999995,-1.7952299999999999
-11.982562,-3.9495062999999995,-1.7952299999999999
-11.982562,-3.9495062999999995,-1.7952299999999999
-11.982562,-3.9495062999999995,-1.7952299999999999
-11.982562,-3.9495062999999995,-1.7952299999999999
-14.64429,-4.08355,-1.9196993000000002
-14.64429,-4.08355,-1.9196993000000002
-14.64429,-4.08355,-1.9196993000000002
-10.278291000000001,-4.389936,-1.1250108
-10.278291000000001,-4.389936,-1.1250108
-10.278291000000001,-4.389936,-1.1250108
-10.278291000000001,-4.389936,-1.1250108
-10.278291000000001,-4.389936,-1.1250108
-14.041093,-3.8250370000000005,-2.2643836
-14.041093,-3.8250370000000005,-2.2643836
-14.041093,-3.8250370000000005,-2.2643836
-14.041093,-3.8250370000000005,-2.2643836
-12.710229,-2.3888528,-1.1537346000000002
-12.710229,-2.3888528,-1.1537346000000002
-12.710229,-2.3888528,-1.1537346000000002
-12.710229,-2.3888528,-1.1537346000000002
-8.181462,-1.7952299999999999,0.30159867
-8.181462,-1.7952299999999999,0.30159867
-8.181462,-1.7952299999999999,0.30159867
-7.022939999999999,-1.3643749,-0.37819514
-7.022939999999999,-1.3643749,-0.37819514
-7.022939999999999,-1.3643749,-0.37819514
-7.022939999999999,-1.3643749,-0.37819514
-7.022939999999999,-1.3643749,-0.37819514
-9.550624000000001,-1.5750152,-0.56011176
-9.550624000000001,-1.5750152,-0.56011176
-9.550624000000001,-1.5750152,-0.56011176
-9.550624000000001,-1.5750152,-0.56011176
-11.695326,-1.0962871,-0.8760723
-11.695326,-1.0962871,-0.8760723
-11.695326,-1.0962871,-0.8760723
-10.938935,-0.98139244,-0.8473485999999999
-10.938935,-0.98139244,-0.8473485999999999
-10.938935,-0.98139244,-0.8473485999999999
-10.938935,-0.98139244,-0.8473485999999999
-10.938935,-0.98139244,-0.8473485999999999
-8.066567,-1.7569318999999999,-0.28244954
-8.066567,-1.7569318999999999,-0.28244954
-8.066567,-1.7569318999999999,-0.28244954
-8.066567,-1.7569318999999999,-0.28244954
-10.527229,-2.1207652,-1.1633091
-10.527229,-2.1207652,-1.1633091
-10.527229,-2.1207652,-1.1633091
-8.439975,-2.5803439999999997,-0.6079846
-8.439975,-2.5803439999999997,-0.6079846
-8.439975,-2.5803439999999997,-0.6079846
-8.439975,-2.5803439999999997,-0.6079846
-8.439975,-2.5803439999999997,-0.6079846
-6.132505999999999,-3.231414,0.9430941999999999
-6.132505999999999,-3.231414,0.9430941999999999
-6.132505999999999,-3.231414,0.9430941999999999
-6.132505999999999,-3.231414,0.9430941999999999
-10.096374,-3.3271596,0.00478728
-10.096374,-3.3271596,0.00478728
-10.096374,-3.3271596,0.00478728
-10.096374,-3.3271596,0.00478728
-14.864505,-3.9878044000000004,-1.1633091
-14.864505,-3.9878044000000004,-1.1633091
-14.864505,-3.9878044000000004,-1.1633091
-14.864505,-3.9878044000000004,-1.1633091
-12.107032,-4.08355,-0.50266445
-12.107032,-4.08355,-0.50266445
-12.107032,-4.08355,-0.50266445
-12.107032,-4.08355,-0.50266445
-11.379365,-4.0069537,-1.1154363
-11.379365,-4.0069537,-1.1154363
-11.379365,-4.0069537,-1.1154363
-11.379365,-4.0069537,-1.1154363
-11.245321,-3.7580150000000003,-2.2931072999999995
-11.245321,-3.7580150000000003,-2.2931072999999995
-11.245321,-3.7580150000000003,-2.2931072999999995
-11.245321,-3.7580150000000003,-2.2931072999999995
-12.384694,-3.0494976,-2.3122563
-12.384694,-3.0494976,-2.3122563
-12.384694,-3.0494976,-2.3122563
-12.384694,-3.0494976,-2.3122563
-7.894225,-2.4463003,-0.8090504
-7.894225,-2.4463003,-0.8090504
-7.894225,-2.4463003,-0.8090504
-7.894225,-2.4463003,-0.8090504
-7.597413499999999,-2.101616,-1.2303311000000001
-7.597413499999999,-2.101616,-1.2303311000000001
-7.597413499999999,-2.101616,-1.2303311000000001
-7.597413499999999,-2.101616,-1.2303311000000001
-7.597413499999999,-2.101616,-1.2303311000000001
-10.795316999999999,-1.7186337,-1.1824582000000001
-10.795316999999999,-1.7186337,-1.1824582000000001
-10.795316999999999,-1.7186337,-1.1824582000000001
-13.705982999999998,-0.47394073,-1.3643749
-13.705982999999998,-0.47394073,-1.3643749
-13.705982999999998,-0.47394073,-1.3643749
-13.705982999999998,-0.47394073,-1.3643749
-11.005958,-0.18670394,-0.7994758000000001
-11.005958,-0.18670394,-0.7994758000000001
-11.005958,-0.18670394,-0.7994758000000001
-11.005958,-0.18670394,-0.7994758000000001
-11.005958,-0.18670394,-0.7994758000000001
-7.9037995,-1.0962871,0.26330042
-7.9037995,-1.0962871,0.26330042
-7.9037995,-1.0962871,0.26330042
-10.029352000000001,-1.0867126,-0.85692316
-10.029352000000001,-1.0867126,-0.85692316
-10.029352000000001,-1.0867126,-0.85692316
-10.029352000000001,-1.0867126,-0.85692316
-9.062322,-2.2452345,-0.50266445
-9.062322,-2.2452345,-0.50266445
-9.062322,-2.2452345,-0.50266445
-9.062322,-2.2452345,-0.50266445
-9.062322,-2.2452345,-0.50266445
-7.5112429999999994,-3.1452432,1.0675635
-7.5112429999999994,-3.1452432,1.0675635
-7.5112429999999994,-3.1452432,1.0675635
-10.249566999999999,-3.6526947,0.18670394
-10.249566999999999,-3.6526947,0.18670394
-10.249566999999999,-3.6526947,0.18670394
-10.249566999999999,-3.6526947,0.18670394
-11.762347,-3.3367343000000003,-1.1058618
-11.762347,-3.3367343000000003,-1.1058618
-11.762347,-3.3367343000000003,-1.1058618
-11.762347,-3.3367343000000003,-1.1058618
-11.762347,-3.3367343000000003,-1.1058618
-12.480439,-3.231414,-1.0101161
-12.480439,-3.231414,-1.0101161
-12.480439,-3.231414,-1.0101161
-12.480439,-3.231414,-1.0101161
-12.183628,-3.9016335,-1.5175678999999997
-12.183628,-3.9016335,-1.5175678999999997
-12.183628,-3.9016335,-1.5175678999999997
-11.7049,-3.9495062999999995,-2.254809
-11.7049,-3.9495062999999995,-2.254809
-11.7049,-3.9495062999999995,-2.254809
-11.7049,-3.9495062999999995,-2.254809
-11.7049,-3.9495062999999995,-2.254809
-11.274045,-2.9346027,-2.1207652
-11.274045,-2.9346027,-2.1207652
-11.274045,-2.9346027,-2.1207652
-11.274045,-2.9346027,-2.1207652
-7.0037910000000005,-2.2069361,-0.7324539000000001
-7.0037910000000005,-2.2069361,-0.7324539000000001
-7.0037910000000005,-2.2069361,-0.7324539000000001
-5.979312999999999,-2.0250196,-1.0579889
-5.979312999999999,-2.0250196,-1.0579889
-5.979312999999999,-2.0250196,-1.0579889
-5.979312999999999,-2.0250196,-1.0579889
-9.349558,-2.015445,-0.9718179
-9.349558,-2.015445,-0.9718179
-9.349558,-2.015445,-0.9718179
-9.349558,-2.015445,-0.9718179
-9.349558,-2.015445,-0.9718179
-15.151742,-1.2877783999999999,-1.8909756999999998
-15.151742,-1.2877783999999999,-1.8909756999999998
-15.151742,-1.2877783999999999,-1.8909756999999998
-15.151742,-1.2877783999999999,-1.8909756999999998
-13.820878,-0.54096264,-1.776081
-13.820878,-0.54096264,-1.776081
-13.820878,-0.54096264,-1.776081
-7.5495410000000005,-0.85692316,0.03351096
-7.5495410000000005,-0.85692316,0.03351096
-7.5495410000000005,-0.85692316,0.03351096
-7.5495410000000005,-0.85692316,0.03351096
-7.5495410000000005,-0.85692316,0.03351096
-9.138917999999999,-1.2686293,-0.78032666
-9.138917999999999,-1.2686293,-0.78032666
-9.138917999999999,-1.2686293,-0.78032666
-9.138917999999999,-1.2686293,-0.78032666
-8.210186,-1.7569318999999999,-0.54096264
-8.210186,-1.7569318999999999,-0.54096264
-8.210186,-1.7569318999999999,-0.54096264
-6.103782,-2.3314054,0.512239
-6.103782,-2.3314054,0.512239
-6.103782,-2.3314054,0.512239
-6.103782,-2.3314054,0.512239
-6.103782,-2.3314054,0.512239
-7.5112429999999994,-3.2888615,0.9526688
-7.5112429999999994,-3.2888615,0.9526688
-7.5112429999999994,-3.2888615,0.9526688
-7.5112429999999994,-3.2888615,0.9526688
-12.3463955,-3.3750327000000007,0.03351096
-12.3463955,-3.3750327000000007,0.03351096
-12.3463955,-3.3750327000000007,0.03351096
-14.318755,-3.5856729,-1.1728836
-14.318755,-3.5856729,-1.1728836
-14.318755,-3.5856729,-1.1728836
-14.318755,-3.5856729,-1.1728836
-14.318755,-3.5856729,-1.1728836
-13.734707,-3.6143966,-1.0101161
-13.734707,-3.6143966,-1.0101161
-13.734707,-3.6143966,-1.0101161
-10.19212,-3.6239712,-1.0962871
-10.19212,-3.6239712,-1.0962871
-10.19212,-3.6239712,-1.0962871
-10.19212,-3.6239712,-1.0962871
-13.035764,-2.972901,-2.7048132000000003
-13.035764,-2.972901,-2.7048132000000003
-13.035764,-2.972901,-2.7048132000000003
-13.035764,-2.972901,-2.7048132000000003
-10.383611,-2.2356597999999996,-1.6516117
-10.383611,-2.2356597999999996,-1.6516117
-10.383611,-2.2356597999999996,-1.6516117
-10.383611,-2.2356597999999996,-1.6516117
-6.6591067,-1.9675721999999998,-0.5218136
-6.6591067,-1.9675721999999998,-0.5218136
-6.6591067,-1.9675721999999998,-0.5218136
-6.6591067,-1.9675721999999998,-0.5218136
-7.2335806,-1.8239537000000001,-0.98139244
-7.2335806,-1.8239537000000001,-0.98139244
-7.2335806,-1.8239537000000001,-0.98139244
-7.2335806,-1.8239537000000001,-0.98139244
-11.628304,-1.3548003,-1.2303311000000001
-11.628304,-1.3548003,-1.2303311000000001
-11.628304,-1.3548003,-1.2303311000000001
-11.628304,-1.3548003,-1.2303311000000001
-13.208105999999999,-1.0579889,-1.0196906
-13.208105999999999,-1.0579889,-1.0196906
-13.208105999999999,-1.0579889,-1.0196906
-13.208105999999999,-1.0579889,-1.0196906
-10.689997,-1.2207563999999997,-0.34947145
-10.689997,-1.2207563999999997,-0.34947145
-10.689997,-1.2207563999999997,-0.34947145
-10.689997,-1.2207563999999997,-0.34947145
-10.689997,-1.2207563999999997,-0.34947145
-7.731457700000001,-1.4218222,-0.062234644000000006
-7.731457700000001,-1.4218222,-0.062234644000000006
-7.731457700000001,-1.4218222,-0.062234644000000006
-9.617646,-2.2069361,-1.0771381000000002
-9.617646,-2.2069361,-1.0771381000000002
-9.617646,-2.2069361,-1.0771381000000002
-9.617646,-2.2069361,-1.0771381000000002
-7.271878699999999,-2.1303396,-0.2920241
-7.271878699999999,-2.1303396,-0.2920241
-7.271878699999999,-2.1303396,-0.2920241
-7.271878699999999,-2.1303396,-0.2920241
-6.8888964999999995,-3.0016246,0.5313880999999999
-6.8888964999999995,-3.0016246,0.5313880999999999
-6.8888964999999995,-3.0016246,0.5313880999999999
-6.8888964999999995,-3.0016246,0.5313880999999999
-10.5080805,-3.1069447999999995,-0.32074776
-10.5080805,-3.1069447999999995,-0.32074776
-10.5080805,-3.1069447999999995,-0.32074776
-10.5080805,-3.1069447999999995,-0.32074776
-14.09854,-3.1260939999999997,-0.9430941999999999
-14.09854,-3.1260939999999997,-0.9430941999999999
-14.09854,-3.1260939999999997,-0.9430941999999999
-14.09854,-3.1260939999999997,-0.9430941999999999
-12.068733,-3.777164,-0.5792609000000001
-12.068733,-3.777164,-0.5792609000000001
-12.068733,-3.777164,-0.5792609000000001
-12.068733,-3.777164,-0.5792609000000001
-12.068733,-4.1984449999999995,-1.0484143
-12.068733,-4.1984449999999995,-1.0484143
-12.068733,-4.1984449999999995,-1.0484143
-12.068733,-4.1984449999999995,-1.0484143
-10.2016945,-3.5090763999999997,-1.14416
-10.2016945,-3.5090763999999997,-1.14416
-10.2016945,-3.5090763999999997,-1.14416
-10.2016945,-3.5090763999999997,-1.14416
-12.949593,-2.905879,-1.709059
-12.949593,-2.905879,-1.709059
-12.949593,-2.905879,-1.709059
-12.949593,-2.905879,-1.709059
-12.949593,-2.905879,-1.709059
-10.249566999999999,-2.0633178,-1.0675635
-10.249566999999999,-2.0633178,-1.0675635
-10.249566999999999,-2.0633178,-1.0675635
-7.808053999999999,-1.8526775000000002,-0.71330476
-7.808053999999999,-1.8526775000000002,-0.71330476
-7.808053999999999,-1.8526775000000002,-0.71330476
-7.808053999999999,-1.8526775000000002,-0.71330476
-8.669764500000001,-1.4505458999999998,-0.7324539000000001
-8.669764500000001,-1.4505458999999998,-0.7324539000000001
-8.669764500000001,-1.4505458999999998,-0.7324539000000001
-8.669764500000001,-1.4505458999999998,-0.7324539000000001
-8.669764500000001,-1.4505458999999998,-0.7324539000000001
-10.230417999999998,-0.5792609000000001,-0.90479594
-10.230417999999998,-0.5792609000000001,-0.90479594
-10.230417999999998,-0.5792609000000001,-0.90479594
-11.36979,-0.9526688,-0.78990126
-11.36979,-0.9526688,-0.78990126
-11.36979,-0.9526688,-0.78990126
-11.36979,-0.9526688,-0.78990126
-10.536804,-0.92394507,-0.93351966
-10.536804,-0.92394507,-0.93351966
-10.536804,-0.92394507,-0.93351966
-10.536804,-0.92394507,-0.93351966
-10.536804,-0.92394507,-0.93351966
-10.2016945,-1.4792696,-0.4164934
-10.2016945,-1.4792696,-0.4164934
-10.2016945,-1.4792696,-0.4164934
-10.2016945,-1.4792696,-0.4164934
-10.335738000000001,-2.1782124,-1.6037389
-10.335738000000001,-2.1782124,-1.6037389
-10.335738000000001,-2.1782124,-1.6037389
-7.4729443,-2.5899186000000003,-0.56011176
-7.4729443,-2.5899186000000003,-0.56011176
-7.4729443,-2.5899186000000003,-0.56011176
-7.4729443,-2.5899186000000003,-0.56011176
-7.4729443,-2.5899186000000003,-0.56011176
-6.1612295999999995,-3.3175852,-0.10053288
-6.1612295999999995,-3.3175852,-0.10053288
-6.1612295999999995,-3.3175852,-0.10053288
-6.1612295999999995,-3.3175852,-0.10053288
-8.095291,-3.4420545,-0.9526688
-8.095291,-3.4420545,-0.9526688
-8.095291,-3.4420545,-0.9526688
-12.298523,-3.4995019999999997,-1.4601203999999999
-12.298523,-3.4995019999999997,-1.4601203999999999
-12.298523,-3.4995019999999997,-1.4601203999999999
-12.298523,-3.4995019999999997,-1.4601203999999999
-12.298523,-3.4995019999999997,-1.4601203999999999
-13.638962,-3.5569491,-1.4888442
-13.638962,-3.5569491,-1.4888442
-13.638962,-3.5569491,-1.4888442
-13.638962,-3.5569491,-1.4888442
-12.872996,-3.4899273,-1.1345854
-12.872996,-3.4899273,-1.1345854
-12.872996,-3.4899273,-1.1345854
-8.708063000000001,-3.1548176,-0.40691882
-8.708063000000001,-3.1548176,-0.40691882
-8.708063000000001,-3.1548176,-0.40691882
-8.708063000000001,-3.1548176,-0.40691882
-8.708063000000001,-3.1548176,-0.40691882
-13.600663,-2.752686,-0.61755913
-13.600663,-2.752686,-0.61755913
-13.600663,-2.752686,-0.61755913
-13.600663,-2.752686,-0.61755913
-12.911294999999999,-1.5654407,0.5792609000000001
-12.911294999999999,-1.5654407,0.5792609000000001
-12.911294999999999,-1.5654407,0.5792609000000001
-12.911294999999999,-1.5654407,0.5792609000000001
-9.943181,-0.7228793,0.14840569
-9.943181,-0.7228793,0.14840569
-9.943181,-0.7228793,0.14840569
-9.943181,-0.7228793,0.14840569
-6.47719,-1.1633091,0.9622433000000001
-6.47719,-1.1633091,0.9622433000000001
-6.47719,-1.1633091,0.9622433000000001
-6.47719,-1.1633091,0.9622433000000001
-5.3569665,-1.0484143,1.2111819
-5.3569665,-1.0484143,1.2111819
-5.3569665,-1.0484143,1.2111819
-5.3569665,-1.0484143,1.2111819
-5.653778,-0.76117754,0.8473485999999999
-5.653778,-0.76117754,0.8473485999999999
-5.653778,-0.76117754,0.8473485999999999
-5.653778,-0.76117754,0.8473485999999999
-7.5399666,-1.5079931999999998,0.49308985
-7.5399666,-1.5079931999999998,0.49308985
-7.5399666,-1.5079931999999998,0.49308985
-7.5399666,-1.5079931999999998,0.49308985
-10.555953,-2.360129,0.16755481
-10.555953,-2.360129,0.16755481
-10.555953,-2.360129,0.16755481
-10.555953,-2.360129,0.16755481
-10.469782,-2.1590632999999997,-0.8760723
-10.469782,-2.1590632999999997,-0.8760723
-10.469782,-2.1590632999999997,-0.8760723
-10.469782,-2.1590632999999997,-0.8760723
-15.96558,-2.1399142999999996,-2.9920502
-15.96558,-2.1399142999999996,-2.9920502
-15.96558,-2.1399142999999996,-2.9920502
-15.96558,-2.1399142999999996,-2.9920502
-11.522984,-3.4612036,-1.6420371999999999
-11.522984,-3.4612036,-1.6420371999999999
-11.522984,-3.4612036,-1.6420371999999999
-11.522984,-3.4612036,-1.6420371999999999
-6.946343400000001,-2.6090677,-1.2590546999999999
-6.946343400000001,-2.6090677,-1.2590546999999999
-6.946343400000001,-2.6090677,-1.2590546999999999
-6.946343400000001,-2.6090677,-1.2590546999999999
-7.329325999999999,-2.7622607000000006,-1.6994845
-7.329325999999999,-2.7622607000000006,-1.6994845
-7.329325999999999,-2.7622607000000006,-1.6994845
-7.329325999999999,-2.7622607000000006,-1.6994845
-7.501668,-3.451629,-1.6994845
-7.501668,-3.451629,-1.6994845
-7.501668,-3.451629,-1.6994845
-7.501668,-3.451629,-1.6994845
-8.698488000000001,-3.7197167999999996,-1.383524
-8.698488000000001,-3.7197167999999996,-1.383524
-8.698488000000001,-3.7197167999999996,-1.383524
-8.698488000000001,-3.7197167999999996,-1.383524
-12.049584,-4.016528,-2.2356597999999996
-12.049584,-4.016528,-2.2356597999999996
-12.049584,-4.016528,-2.2356597999999996
-12.049584,-4.016528,-2.2356597999999996
-12.288948,-4.1409974,-2.2452345
-12.288948,-4.1409974,-2.2452345
-12.288948,-4.1409974,-2.2452345
-12.288948,-4.1409974,-2.2452345
-6.7740016,-3.9878044000000004,-0.359046
-6.7740016,-3.9878044000000004,-0.359046
-6.7740016,-3.9878044000000004,-0.359046
-6.7740016,-3.9878044000000004,-0.359046
-15.199615,-2.647366,-2.4175766
-15.199615,-2.647366,-2.4175766
-15.199615,-2.647366,-2.4175766
-15.199615,-2.647366,-2.4175766
-15.199615,-2.647366,-2.4175766
-12.6527815,-0.78032666,1.6899098999999997
-12.6527815,-0.78032666,1.6899098999999997
-12.6527815,-0.78032666,1.6899098999999997
-11.293194,-1.7569318999999999,0.8856468000000001
-11.293194,-1.7569318999999999,0.8856468000000001
-11.293194,-1.7569318999999999,0.8856468000000001
-11.293194,-1.7569318999999999,0.8856468000000001
-10.383611,-1.2686293,1.2111819
-10.383611,-1.2686293,1.2111819
-10.383611,-1.2686293,1.2111819
-10.383611,-1.2686293,1.2111819
-10.383611,-1.2686293,1.2111819
-10.058076,-1.3643749,1.2303311000000001
-10.058076,-1.3643749,1.2303311000000001
-10.058076,-1.3643749,1.2303311000000001
-11.398514,-1.5654407,0.081383765
-11.398514,-1.5654407,0.081383765
-11.398514,-1.5654407,0.081383765
-11.398514,-1.5654407,0.081383765
-10.843189,-1.6324625,-0.8090504
-10.843189,-1.6324625,-0.8090504
-10.843189,-1.6324625,-0.8090504
-10.843189,-1.6324625,-0.8090504
-10.843189,-1.6324625,-0.8090504
-10.575102000000001,-1.9962958,-2.2069361
-10.575102000000001,-1.9962958,-2.2069361
-10.575102000000001,-1.9962958,-2.2069361
-10.575102000000001,-1.9962958,-2.2069361
-9.991054,-2.168638,-1.8431028999999999
-9.991054,-2.168638,-1.8431028999999999
-9.991054,-2.168638,-1.8431028999999999
-9.54105,-2.800559,-2.321831
-9.54105,-2.800559,-2.321831
-9.54105,-2.800559,-2.321831
-9.54105,-2.800559,-2.321831
-9.54105,-2.800559,-2.321831
-6.9176197,-2.7622607000000006,-1.3548003
-6.9176197,-2.7622607000000006,-1.3548003
-6.9176197,-2.7622607000000006,-1.3548003
-6.9176197,-2.7622607000000006,-1.3548003
-7.310177,-3.1356685,-0.54096264
-7.310177,-3.1356685,-0.54096264
-7.310177,-3.1356685,-0.54096264
-8.928278,-3.5282254,-0.63670826
-8.928278,-3.5282254,-0.63670826
-8.928278,-3.5282254,-0.63670826
-8.928278,-3.5282254,-0.63670826
-8.928278,-3.5282254,-0.63670826
-11.26447,-3.7867386,-0.83777404
-11.26447,-3.7867386,-0.83777404
-11.26447,-3.7867386,-0.83777404
-11.26447,-3.7867386,-0.83777404
-13.562365,-4.1601467,-1.0579889
-13.562365,-4.1601467,-1.0579889
-13.562365,-4.1601467,-1.0579889
-10.996383,-3.6622693999999996,-1.1728836
-10.996383,-3.6622693999999996,-1.1728836
-10.996383,-3.6622693999999996,-1.1728836
-10.996383,-3.6622693999999996,-1.1728836
-10.996383,-3.6622693999999996,-1.1728836
-13.217680999999999,-3.231414,-1.9101248
-13.217680999999999,-3.231414,-1.9101248
-13.217680999999999,-3.231414,-1.9101248
-13.217680999999999,-3.231414,-1.9101248
-10.2016945,-2.3888528,-0.7324539000000001
-10.2016945,-2.3888528,-0.7324539000000001
-10.2016945,-2.3888528,-0.7324539000000001
-10.2016945,-2.3888528,-0.7324539000000001
-6.946343400000001,-2.254809,-0.40691882
-6.946343400000001,-2.254809,-0.40691882
-6.946343400000001,-2.254809,-0.40691882
-6.946343400000001,-2.254809,-0.40691882
-7.3676243,-1.862252,-0.8281995000000001
-7.3676243,-1.862252,-0.8281995000000001
-7.3676243,-1.862252,-0.8281995000000001
-7.3676243,-1.862252,-0.8281995000000001
-12.011286,-1.4888442,-1.2782038
-12.011286,-1.4888442,-1.2782038
-12.011286,-1.4888442,-1.2782038
-12.011286,-1.4888442,-1.2782038
-12.815549,-1.0388398,-1.1920328000000002
-12.815549,-1.0388398,-1.1920328000000002
-12.815549,-1.0388398,-1.1920328000000002
-12.815549,-1.0388398,-1.1920328000000002
-9.742115,-0.99096704,-0.665432
-9.742115,-0.99096704,-0.665432
-9.742115,-0.99096704,-0.665432
-9.742115,-0.99096704,-0.665432
-7.846352,-1.5750152,-0.32074776
-7.846352,-1.5750152,-0.32074776
-7.846352,-1.5750152,-0.32074776
-7.846352,-1.5750152,-0.32074776
-10.230417999999998,-2.3505547000000004,-0.83777404
-10.230417999999998,-2.3505547000000004,-0.83777404
-10.230417999999998,-2.3505547000000004,-0.83777404
-10.230417999999998,-2.3505547000000004,-0.83777404
-7.300602400000001,-2.4367256,0.27287498
-7.300602400000001,-2.4367256,0.27287498
-7.300602400000001,-2.4367256,0.27287498
-7.300602400000001,-2.4367256,0.27287498
-7.070812700000001,-3.1165195,0.8281995000000001
-7.070812700000001,-3.1165195,0.8281995000000001
-7.070812700000001,-3.1165195,0.8281995000000001
-7.070812700000001,-3.1165195,0.8281995000000001
-10.919786,-3.1260939999999997,-0.043085523
-10.919786,-3.1260939999999997,-0.043085523
-10.919786,-3.1260939999999997,-0.043085523
-10.919786,-3.1260939999999997,-0.043085523
-13.093211,-3.1548176,-0.83777404
-13.093211,-3.1548176,-0.83777404
-13.093211,-3.1548176,-0.83777404
-13.093211,-3.1548176,-0.83777404
-11.7336235,-3.4420545,-0.5313880999999999
-11.7336235,-3.4420545,-0.5313880999999999
-11.7336235,-3.4420545,-0.5313880999999999
-11.7336235,-3.4420545,-0.5313880999999999
-11.446387,-3.9207826,-0.99096704
-11.446387,-3.9207826,-0.99096704
-11.446387,-3.9207826,-0.99096704
-11.446387,-3.9207826,-0.99096704
-11.140001,-3.3750327000000007,-1.776081
-11.140001,-3.3750327000000007,-1.776081
-11.140001,-3.3750327000000007,-1.776081
-11.140001,-3.3750327000000007,-1.776081
-13.323001000000001,-2.905879,-2.5228968
-13.323001000000001,-2.905879,-2.5228968
-13.323001000000001,-2.905879,-2.5228968
-13.323001000000001,-2.905879,-2.5228968
-8.832532,-2.4750240000000003,-0.9622433000000001
-8.832532,-2.4750240000000003,-0.9622433000000001
-8.832532,-2.4750240000000003,-0.9622433000000001
-8.832532,-2.4750240000000003,-0.9622433000000001
-6.1420803,-2.0920415,-0.78990126
-6.1420803,-2.0920415,-0.78990126
-6.1420803,-2.0920415,-0.78990126
-6.1420803,-2.0920415,-0.78990126
-7.664436,-1.7952299999999999,-0.8473485999999999
-7.664436,-1.7952299999999999,-0.8473485999999999
-7.664436,-1.7952299999999999,-0.8473485999999999
-7.664436,-1.7952299999999999,-0.8473485999999999
-12.844273,-1.3452256999999999,-1.2877783999999999
-12.844273,-1.3452256999999999,-1.2877783999999999
-12.844273,-1.3452256999999999,-1.2877783999999999
-12.844273,-1.3452256999999999,-1.2877783999999999
-12.719804,-1.1154363,-1.1345854
-12.719804,-1.1154363,-1.1345854
-12.719804,-1.1154363,-1.1345854
-12.719804,-1.1154363,-1.1345854
-8.5740185,-1.3165021000000001,0.081383765
-8.5740185,-1.3165021000000001,0.081383765
-8.5740185,-1.3165021000000001,0.081383765
-8.5740185,-1.3165021000000001,0.081383765
-9.780414,-1.5845897,-0.63670826
-9.780414,-1.5845897,-0.63670826
-9.780414,-1.5845897,-0.63670826
-9.780414,-1.5845897,-0.63670826
-9.397431,-2.1111906000000005,-0.8856468000000001
-9.397431,-2.1111906000000005,-0.8856468000000001
-9.397431,-2.1111906000000005,-0.8856468000000001
-9.397431,-2.1111906000000005,-0.8856468000000001
-5.17505,-2.7718353,1.2399056
-5.17505,-2.7718353,1.2399056
-5.17505,-2.7718353,1.2399056
-5.17505,-2.7718353,1.2399056
-6.3622955999999995,-2.9920502,0.8186249
-6.3622955999999995,-2.9920502,0.8186249
-6.3622955999999995,-2.9920502,0.8186249
-6.3622955999999995,-2.9920502,0.8186249
-11.465536,-2.8771553,-0.26330042
-11.465536,-2.8771553,-0.26330042
-11.465536,-2.8771553,-0.26330042
-11.465536,-2.8771553,-0.26330042
-14.692163,-3.3654580000000003,-1.4218222
-14.692163,-3.3654580000000003,-1.4218222
-14.692163,-3.3654580000000003,-1.4218222
-14.692163,-3.3654580000000003,-1.4218222
-14.09854,-3.9495062999999995,-1.1633091
-14.09854,-3.9495062999999995,-1.1633091
-14.09854,-3.9495062999999995,-1.1633091
-14.09854,-3.9495062999999995,-1.1633091
-9.5889225,-3.8154623999999995,-0.59841
-9.5889225,-3.8154623999999995,-0.59841
-9.5889225,-3.8154623999999995,-0.59841
-9.5889225,-3.8154623999999995,-0.59841
-11.800646,-2.9154537,-2.2069361
-11.800646,-2.9154537,-2.2069361
-11.800646,-2.9154537,-2.2069361
-11.800646,-2.9154537,-2.2069361
-10.814466,-2.2835326,-1.3165021000000001
-10.814466,-2.2835326,-1.3165021000000001
-10.814466,-2.2835326,-1.3165021000000001
-6.975067,-2.1782124,-0.39734426
-6.975067,-2.1782124,-0.39734426
-6.975067,-2.1782124,-0.39734426
-6.975067,-2.1782124,-0.39734426
-6.975067,-2.1782124,-0.39734426
-7.243155000000001,-1.862252,-0.83777404
-7.243155000000001,-1.862252,-0.83777404
-7.243155000000001,-1.862252,-0.83777404
-7.243155000000001,-1.862252,-0.83777404
-11.005958,-0.93351966,-1.0867126
-11.005958,-0.93351966,-1.0867126
-11.005958,-0.93351966,-1.0867126
-11.005958,-0.93351966,-1.0867126
-11.781497,-1.0292653,-1.1728836
-11.781497,-1.0292653,-1.1728836
-11.781497,-1.0292653,-1.1728836
-11.781497,-1.0292653,-1.1728836
-10.804892,-1.4505458999999998,-1.0962871
-10.804892,-1.4505458999999998,-1.0962871
-10.804892,-1.4505458999999998,-1.0962871
-10.804892,-1.4505458999999998,-1.0962871
-9.0814705,-1.5271424,-0.751603
-9.0814705,-1.5271424,-0.751603
-9.0814705,-1.5271424,-0.751603
-9.0814705,-1.5271424,-0.751603
-10.5080805,-2.360129,-0.8473485999999999
-10.5080805,-2.360129,-0.8473485999999999
-10.5080805,-2.360129,-0.8473485999999999
-10.5080805,-2.360129,-0.8473485999999999
-7.386773599999999,-2.4750240000000003,0.14840569
-7.386773599999999,-2.4750240000000003,0.14840569
-7.386773599999999,-2.4750240000000003,0.14840569
-7.386773599999999,-2.4750240000000003,0.14840569
-6.7357035000000005,-3.0207740000000003,0.91437054
-6.7357035000000005,-3.0207740000000003,0.91437054
-6.7357035000000005,-3.0207740000000003,0.91437054
-6.7357035000000005,-3.0207740000000003,0.91437054
-10.019777000000001,-2.867581,0.30159867
-10.019777000000001,-2.867581,0.30159867
-10.019777000000001,-2.867581,0.30159867
-10.019777000000001,-2.867581,0.30159867
-11.59958,-3.1260939999999997,-0.13883112
-11.59958,-3.1260939999999997,-0.13883112
-11.59958,-3.1260939999999997,-0.13883112
-11.59958,-3.1260939999999997,-0.13883112
-12.269799,-3.8824842000000004,-0.85692316
-12.269799,-3.8824842000000004,-0.85692316
-12.269799,-3.8824842000000004,-0.85692316
-12.269799,-3.8824842000000004,-0.85692316
-11.484685,-3.7484405,-1.5367169
-11.484685,-3.7484405,-1.5367169
-11.484685,-3.7484405,-1.5367169
-11.484685,-3.7484405,-1.5367169
-12.087883,-3.1260939999999997,-1.862252
-12.087883,-3.1260939999999997,-1.862252
-12.087883,-3.1260939999999997,-1.862252
-12.087883,-3.1260939999999997,-1.862252
-11.781497,-2.4654493,-1.7569318999999999
-11.781497,-2.4654493,-1.7569318999999999
-11.781497,-2.4654493,-1.7569318999999999
-11.781497,-2.4654493,-1.7569318999999999
-7.980396300000001,-2.0250196,-0.8952214
-7.980396300000001,-2.0250196,-0.8952214
-7.980396300000001,-2.0250196,-0.8952214
-7.980396300000001,-2.0250196,-0.8952214
-6.4197426,-1.862252,-0.7994758000000001
-6.4197426,-1.862252,-0.7994758000000001
-6.4197426,-1.862252,-0.7994758000000001
-6.4197426,-1.862252,-0.7994758000000001
-7.9133744,-1.6611862000000002,-0.3398969
-7.9133744,-1.6611862000000002,-0.3398969
-7.9133744,-1.6611862000000002,-0.3398969
-7.9133744,-1.6611862000000002,-0.3398969
-11.819795,-1.3643749,-0.8952214
-11.819795,-1.3643749,-0.8952214
-11.819795,-1.3643749,-0.8952214
-11.819795,-1.3643749,-0.8952214
-11.49426,-1.0292653,-0.5792609000000001
-11.49426,-1.0292653,-0.5792609000000001
-11.49426,-1.0292653,-0.5792609000000001
-11.49426,-1.0292653,-0.5792609000000001
-8.459125,-1.4409714,0.110107444
-8.459125,-1.4409714,0.110107444
-8.459125,-1.4409714,0.110107444
-8.459125,-1.4409714,0.110107444
-11.417664,-1.9962958,-0.90479594
-11.417664,-1.9962958,-0.90479594
-11.417664,-1.9962958,-0.90479594
-9.742115,-2.1590632999999997,-0.5505372
-9.742115,-2.1590632999999997,-0.5505372
-9.742115,-2.1590632999999997,-0.5505372
-9.742115,-2.1590632999999997,-0.5505372
-9.742115,-2.1590632999999997,-0.5505372
-6.9942164,-2.8292825,0.5792609000000001
-6.9942164,-2.8292825,0.5792609000000001
-6.9942164,-2.8292825,0.5792609000000001
-6.2378263,-3.1643922000000004,0.7994758000000001
-6.2378263,-3.1643922000000004,0.7994758000000001
-6.2378263,-3.1643922000000004,0.7994758000000001
-6.2378263,-3.1643922000000004,0.7994758000000001
-9.866585,-2.972901,0.5505372
-9.866585,-2.972901,0.5505372
-9.866585,-2.972901,0.5505372
-9.866585,-2.972901,0.5505372
-12.624058,-3.212265,-0.8664976999999999
-12.624058,-3.212265,-0.8664976999999999
-12.624058,-3.212265,-0.8664976999999999
-12.624058,-3.212265,-0.8664976999999999
-12.624058,-3.212265,-0.8664976999999999
-13.619812,-3.7484405,-1.1728836
-13.619812,-3.7484405,-1.1728836
-13.619812,-3.7484405,-1.1728836
-10.986808,-3.5665237999999997,-0.7420284
-10.986808,-3.5665237999999997,-0.7420284
-10.986808,-3.5665237999999997,-0.7420284
-10.986808,-3.5665237999999997,-0.7420284
-11.111278,-2.9346027,-1.5079931999999998
-11.111278,-2.9346027,-1.5079931999999998
-11.111278,-2.9346027,-1.5079931999999998
-11.111278,-2.9346027,-1.5079931999999998
-11.111278,-2.9346027,-1.5079931999999998
-13.016615,-2.1207652,-1.3356511999999998
-13.016615,-2.1207652,-1.3356511999999998
-13.016615,-2.1207652,-1.3356511999999998
-9.043172,-1.6611862000000002,-0.25372586
-9.043172,-1.6611862000000002,-0.25372586
-9.043172,-1.6611862000000002,-0.25372586
-9.043172,-1.6611862000000002,-0.25372586
-9.043172,-1.6611862000000002,-0.25372586
-6.170804,-1.1250108,-0.081383765
-6.170804,-1.1250108,-0.081383765
-6.170804,-1.1250108,-0.081383765
-6.170804,-1.1250108,-0.081383765
-6.438892,-1.2016073,0.043085523
-6.438892,-1.2016073,0.043085523
-6.438892,-1.2016073,0.043085523
-8.372953,-1.0579889,-0.043085523
-8.372953,-1.0579889,-0.043085523
-8.372953,-1.0579889,-0.043085523
-8.372953,-1.0579889,-0.043085523
-8.372953,-1.0579889,-0.043085523
-10.747444,-1.3165021000000001,-0.30159867
-10.747444,-1.3165021000000001,-0.30159867
-10.747444,-1.3165021000000001,-0.30159867
-10.747444,-1.3165021000000001,-0.30159867
-12.231501,-2.1111906000000005,-0.56011176
-12.231501,-2.1111906000000005,-0.56011176
-12.231501,-2.1111906000000005,-0.56011176
-12.231501,-2.1111906000000005,-0.56011176
-11.398514,-2.0920415,-0.78990126
-11.398514,-2.0920415,-0.78990126
-11.398514,-2.0920415,-0.78990126
-11.398514,-2.0920415,-0.78990126
-12.193203,-1.9962958,-1.6133133999999998
-12.193203,-1.9962958,-1.6133133999999998
-12.193203,-1.9962958,-1.6133133999999998
-12.193203,-1.9962958,-1.6133133999999998
-10.278291000000001,-2.7909843999999997,-1.6899098999999997
-10.278291000000001,-2.7909843999999997,-1.6899098999999997
-10.278291000000001,-2.7909843999999997,-1.6899098999999997
-10.278291000000001,-2.7909843999999997,-1.6899098999999997
-5.5101595,-2.9920502,-0.37819514
-5.5101595,-2.9920502,-0.37819514
-5.5101595,-2.9920502,-0.37819514
-5.5101595,-2.9920502,-0.37819514
-4.648448999999999,-3.1548176,-0.9526688
-4.648448999999999,-3.1548176,-0.9526688
-4.648448999999999,-3.1548176,-0.9526688
-4.648448999999999,-3.1548176,-0.9526688
-7.1091112999999995,-3.3367343000000003,-1.9101248
-7.1091112999999995,-3.3367343000000003,-1.9101248
-7.1091112999999995,-3.3367343000000003,-1.9101248
-7.1091112999999995,-3.3367343000000003,-1.9101248
-8.7750845,-3.3271596,-1.383524
-8.7750845,-3.3271596,-1.383524
-8.7750845,-3.3271596,-1.383524
-8.7750845,-3.3271596,-1.383524
-9.991054,-3.5282254,-1.3548003
-9.991054,-3.5282254,-1.3548003
-9.991054,-3.5282254,-1.3548003
-9.991054,-3.5282254,-1.3548003
-13.504917,-3.7292912000000005,-1.383524
-13.504917,-3.7292912000000005,-1.383524
-13.504917,-3.7292912000000005,-1.383524
-13.504917,-3.7292912000000005,-1.383524
-8.66019,-3.3271596,0.56968635
-8.66019,-3.3271596,0.56968635
-8.66019,-3.3271596,0.56968635
-8.66019,-3.3271596,0.56968635
-15.649619,-2.2452345,-1.0867126
-15.649619,-2.2452345,-1.0867126
-15.649619,-2.2452345,-1.0867126
-15.649619,-2.2452345,-1.0867126
-10.383611,-1.3452256999999999,1.7665064
-10.383611,-1.3452256999999999,1.7665064
-10.383611,-1.3452256999999999,1.7665064
-10.383611,-1.3452256999999999,1.7665064
-9.091045,-1.469695,1.1824582000000001
-9.091045,-1.469695,1.1824582000000001
-9.091045,-1.469695,1.1824582000000001
-9.091045,-1.469695,1.1824582000000001
-9.004874000000001,-1.1824582000000001,1.0196906
-9.004874000000001,-1.1824582000000001,1.0196906
-9.004874000000001,-1.1824582000000001,1.0196906
-9.004874000000001,-1.1824582000000001,1.0196906
-7.386773599999999,-1.0484143,0.71330476
-7.386773599999999,-1.0484143,0.71330476
-7.386773599999999,-1.0484143,0.71330476
-7.386773599999999,-1.0484143,0.71330476
-7.6452865999999995,-1.8718264999999998,0.23457673
-7.6452865999999995,-1.8718264999999998,0.23457673
-7.6452865999999995,-1.8718264999999998,0.23457673
-7.6452865999999995,-1.8718264999999998,0.23457673
-9.138917999999999,-2.1782124,0.0
-9.138917999999999,-2.1782124,0.0
-9.138917999999999,-2.1782124,0.0
-9.138917999999999,-2.1782124,0.0
-11.341067,-1.6324625,-1.7569318999999999
-11.341067,-1.6324625,-1.7569318999999999
-11.341067,-1.6324625,-1.7569318999999999
-11.341067,-1.6324625,-1.7569318999999999
-10.843189,-2.2356597999999996,-2.5324712000000003
-10.843189,-2.2356597999999996,-2.5324712000000003
-10.843189,-2.2356597999999996,-2.5324712000000003
-10.843189,-2.2356597999999996,-2.5324712000000003
-13.141085,-2.3697037999999995,-2.6377914000000002
-13.141085,-2.3697037999999995,-2.6377914000000002
-13.141085,-2.3697037999999995,-2.6377914000000002
-13.141085,-2.3697037999999995,-2.6377914000000002
-9.2825365,-2.2739582,-2.2452345
-9.2825365,-2.2739582,-2.2452345
-9.2825365,-2.2739582,-2.2452345
-9.2825365,-2.2739582,-2.2452345
-7.8272033,-2.1590632999999997,-1.5750152
-7.8272033,-2.1590632999999997,-1.5750152
-7.8272033,-2.1590632999999997,-1.5750152
-7.8272033,-2.1590632999999997,-1.5750152
-7.4250717,-2.6377914000000002,-1.3739493999999999
-7.4250717,-2.6377914000000002,-1.3739493999999999
-7.4250717,-2.6377914000000002,-1.3739493999999999
-7.4250717,-2.6377914000000002,-1.3739493999999999
-9.837861,-3.3463089999999998,-1.4505458999999998
-9.837861,-3.3463089999999998,-1.4505458999999998
-9.837861,-3.3463089999999998,-1.4505458999999998
-9.837861,-3.3463089999999998,-1.4505458999999998
-9.837861,-3.3463089999999998,-1.4505458999999998
-11.36979,-4.0548263,-1.0867126
-11.36979,-4.0548263,-1.0867126
-11.36979,-4.0548263,-1.0867126
-13.983645000000001,-4.5527034,-1.4601203999999999
-13.983645000000001,-4.5527034,-1.4601203999999999
-13.983645000000001,-4.5527034,-1.4601203999999999
-13.983645000000001,-4.5527034,-1.4601203999999999
-9.569773,-4.437809,0.25372586
-9.569773,-4.437809,0.25372586
-9.569773,-4.437809,0.25372586
-9.569773,-4.437809,0.25372586
-9.569773,-4.437809,0.25372586
-11.800646,-3.9112080000000002,-1.2686293
-11.800646,-3.9112080000000002,-1.2686293
-11.800646,-3.9112080000000002,-1.2686293
-13.964497,-2.0250196,-1.0388398
-13.964497,-2.0250196,-1.0388398
-13.964497,-2.0250196,-1.0388398
-13.964497,-2.0250196,-1.0388398
-13.964497,-2.0250196,-1.0388398
-11.4272375,-1.8431028999999999,0.023936402000000002
-11.4272375,-1.8431028999999999,0.023936402000000002
-11.4272375,-1.8431028999999999,0.023936402000000002
-11.4272375,-1.8431028999999999,0.023936402000000002
-9.091045,-1.7856555,-0.751603
-9.091045,-1.7856555,-0.751603
-9.091045,-1.7856555,-0.751603
-7.7601814,-1.7856555,-0.11968201
-7.7601814,-1.7856555,-0.11968201
-7.7601814,-1.7856555,-0.11968201
-7.7601814,-1.7856555,-0.11968201
-7.7601814,-1.7856555,-0.11968201
-9.904882,-1.4313968000000001,-0.13883112
-9.904882,-1.4313968000000001,-0.13883112
-9.904882,-1.4313968000000001,-0.13883112
-9.904882,-1.4313968000000001,-0.13883112
-11.867668,-0.56011176,-0.59841
-11.867668,-0.56011176,-0.59841
-11.867668,-0.56011176,-0.59841
-11.867668,-0.56011176,-0.59841
-8.487848,-0.70373017,0.50266445
-8.487848,-0.70373017,0.50266445
-8.487848,-0.70373017,0.50266445
-8.487848,-0.70373017,0.50266445
-10.757019,-1.383524,-0.90479594
-10.757019,-1.383524,-0.90479594
-10.757019,-1.383524,-0.90479594
-9.148492999999998,-1.8239537000000001,-1.1728836
-9.148492999999998,-1.8239537000000001,-1.1728836
-9.148492999999998,-1.8239537000000001,-1.1728836
-9.148492999999998,-1.8239537000000001,-1.1728836
-9.148492999999998,-1.8239537000000001,-1.1728836
-7.5782647,-2.867581,-0.49308985
-7.5782647,-2.867581,-0.49308985
-7.5782647,-2.867581,-0.49308985
-7.5782647,-2.867581,-0.49308985
-8.564445,-2.9537517999999996,-0.85692316
-8.564445,-2.9537517999999996,-0.85692316
-8.564445,-2.9537517999999996,-0.85692316
-8.564445,-2.9537517999999996,-0.85692316
-9.550624000000001,-3.2505634,-0.18670394
-9.550624000000001,-3.2505634,-0.18670394
-9.550624000000001,-3.2505634,-0.18670394
-9.550624000000001,-3.2505634,-0.18670394
-13.907048999999999,-4.3133397,-1.2111819
-13.907048999999999,-4.3133397,-1.2111819
-13.907048999999999,-4.3133397,-1.2111819
-13.907048999999999,-4.3133397,-1.2111819
-13.964497,-5.519734,-1.6037389
-13.964497,-5.519734,-1.6037389
-13.964497,-5.519734,-1.6037389
-13.964497,-5.519734,-1.6037389
-11.005958,-3.5569491,-1.0579889
-11.005958,-3.5569491,-1.0579889
-11.005958,-3.5569491,-1.0579889
-11.005958,-3.5569491,-1.0579889
-9.876159,-3.7197167999999996,-1.5175678999999997
-9.876159,-3.7197167999999996,-1.5175678999999997
-9.876159,-3.7197167999999996,-1.5175678999999997
-9.876159,-3.7197167999999996,-1.5175678999999997
-14.740035999999998,-1.776081,-3.2697124
-14.740035999999998,-1.776081,-3.2697124
-14.740035999999998,-1.776081,-3.2697124
-14.740035999999998,-1.776081,-3.2697124
-11.609155,-1.4888442,-1.6324625
-11.609155,-1.4888442,-1.6324625
-11.609155,-1.4888442,-1.6324625
-11.609155,-1.4888442,-1.6324625
-9.0814705,-1.4984187,-1.776081
-9.0814705,-1.4984187,-1.776081
-9.0814705,-1.4984187,-1.776081
-9.0814705,-1.4984187,-1.776081
-7.855927,-1.4888442,-1.709059
-7.855927,-1.4888442,-1.709059
-7.855927,-1.4888442,-1.709059
-7.855927,-1.4888442,-1.709059
-8.200611,-1.0196906,-1.3739493999999999
-8.200611,-1.0196906,-1.3739493999999999
-8.200611,-1.0196906,-1.3739493999999999
-8.200611,-1.0196906,-1.3739493999999999
-9.8953085,-0.9718179,-1.3165021000000001
-9.8953085,-0.9718179,-1.3165021000000001
-9.8953085,-0.9718179,-1.3165021000000001
-9.8953085,-0.9718179,-1.3165021000000001
-12.001712,-0.9622433000000001,-0.78032666
-12.001712,-0.9622433000000001,-0.78032666
-12.001712,-0.9622433000000001,-0.78032666
-12.001712,-0.9622433000000001,-0.78032666
-10.565528,-1.2973529,0.7228793
-10.565528,-1.2973529,0.7228793
-10.565528,-1.2973529,0.7228793
-10.565528,-1.2973529,0.7228793
-10.728295,-1.1633091,-0.5218136
-10.728295,-1.1633091,-0.5218136
-10.728295,-1.1633091,-0.5218136
-10.728295,-1.1633091,-0.5218136
-7.865501400000001,-2.34098,0.2154276
-7.865501400000001,-2.34098,0.2154276
-7.865501400000001,-2.34098,0.2154276
-7.865501400000001,-2.34098,0.2154276
-6.218677,-2.647366,0.8473485999999999
-6.218677,-2.647366,0.8473485999999999
-6.218677,-2.647366,0.8473485999999999
-6.218677,-2.647366,0.8473485999999999
-7.137835000000001,-2.4750240000000003,0.6271336999999999
-7.137835000000001,-2.4750240000000003,0.6271336999999999
-7.137835000000001,-2.4750240000000003,0.6271336999999999
-7.137835000000001,-2.4750240000000003,0.6271336999999999
-10.852764,-2.5899186000000003,0.062234644000000006
-10.852764,-2.5899186000000003,0.062234644000000006
-10.852764,-2.5899186000000003,0.062234644000000006
-10.852764,-2.5899186000000003,0.062234644000000006
-12.7964,-3.5090763999999997,-0.6558574
-12.7964,-3.5090763999999997,-0.6558574
-12.7964,-3.5090763999999997,-0.6558574
-12.7964,-3.5090763999999997,-0.6558574
-14.031518,-4.409085299999999,-1.4601203999999999
-14.031518,-4.409085299999999,-1.4601203999999999
-14.031518,-4.409085299999999,-1.4601203999999999
-14.031518,-4.409085299999999,-1.4601203999999999
-9.722966,-3.6143966,-0.92394507
-9.722966,-3.6143966,-0.92394507
-9.722966,-3.6143966,-0.92394507
-9.722966,-3.6143966,-0.92394507
-12.700654,-3.0303482999999996,-2.0250196
-12.700654,-3.0303482999999996,-2.0250196
-12.700654,-3.0303482999999996,-2.0250196
-12.700654,-3.0303482999999996,-2.0250196
-12.700654,-3.0303482999999996,-2.0250196
-12.509163000000001,-2.5420458,-2.0920415
-12.509163000000001,-2.5420458,-2.0920415
-12.509163000000001,-2.5420458,-2.0920415
-9.474028,-2.1303396,-1.6037389
-9.474028,-2.1303396,-1.6037389
-9.474028,-2.1303396,-1.6037389
-9.474028,-2.1303396,-1.6037389
-9.474028,-2.1303396,-1.6037389
-7.683584700000001,-1.6133133999999998,-1.4792696
-7.683584700000001,-1.6133133999999998,-1.4792696
-7.683584700000001,-1.6133133999999998,-1.4792696
-7.7027339999999995,-1.1154363,-1.4888442
-7.7027339999999995,-1.1154363,-1.4888442
-7.7027339999999995,-1.1154363,-1.4888442
-7.7027339999999995,-1.1154363,-1.4888442
-8.985725,-1.4505458999999998,-1.2303311000000001
-8.985725,-1.4505458999999998,-1.2303311000000001
-8.985725,-1.4505458999999998,-1.2303311000000001
-8.985725,-1.4505458999999998,-1.2303311000000001
-8.985725,-1.4505458999999998,-1.2303311000000001
-11.187874,-1.1633091,-0.8473485999999999
-11.187874,-1.1633091,-0.8473485999999999
-11.187874,-1.1633091,-0.8473485999999999
-13.045339,-0.8281995000000001,-1.0101161
-13.045339,-0.8281995000000001,-1.0101161
-13.045339,-0.8281995000000001,-1.0101161
-13.045339,-0.8281995000000001,-1.0101161
-13.045339,-0.8281995000000001,-1.0101161
-9.024023,-0.92394507,0.665432
-9.024023,-0.92394507,0.665432
-9.024023,-0.92394507,0.665432
-9.024023,-0.92394507,0.665432
-10.144247,-1.4888442,-0.33032233
-10.144247,-1.4888442,-0.33032233
-10.144247,-1.4888442,-0.33032233
-9.41658,-2.168638,-0.2154276
-9.41658,-2.168638,-0.2154276
-9.41658,-2.168638,-0.2154276
-9.41658,-2.168638,-0.2154276
-9.41658,-2.168638,-0.2154276
-7.434646000000001,-2.5228968,0.4164934
-7.434646000000001,-2.5228968,0.4164934
-7.434646000000001,-2.5228968,0.4164934
-7.434646000000001,-2.5228968,0.4164934
-8.258059,-3.039923,-0.110107444
-8.258059,-3.039923,-0.110107444
-8.258059,-3.039923,-0.110107444
-8.258059,-3.039923,-0.110107444
-9.885734,-3.384607,-0.110107444
-9.885734,-3.384607,-0.110107444
-9.885734,-3.384607,-0.110107444
-9.885734,-3.384607,-0.110107444
-11.274045,-3.4229053999999994,-0.512239
-11.274045,-3.4229053999999994,-0.512239
-11.274045,-3.4229053999999994,-0.512239
-11.274045,-3.4229053999999994,-0.512239
-12.020861,-4.169721,-1.14416
-12.020861,-4.169721,-1.14416
-12.020861,-4.169721,-1.14416
-12.020861,-4.169721,-1.14416
-11.063405,-3.8729098,-1.0196906
-11.063405,-3.8729098,-1.0196906
-11.063405,-3.8729098,-1.0196906
-11.752773,-3.1165195,-1.469695
-11.752773,-3.1165195,-1.469695
-11.752773,-3.1165195,-1.469695
-11.752773,-3.1165195,-1.469695
-11.752773,-3.1165195,-1.469695
-13.619812,-2.2165107999999996,-2.408002
-13.619812,-2.2165107999999996,-2.408002
-13.619812,-2.2165107999999996,-2.408002
-10.412334,-2.0633178,-1.6324625
-10.412334,-2.0633178,-1.6324625
-10.412334,-2.0633178,-1.6324625
-10.412334,-2.0633178,-1.6324625
-10.412334,-2.0633178,-1.6324625
-8.191036,-1.8909756999999998,-1.5175678999999997
-8.191036,-1.8909756999999998,-1.5175678999999997
-8.191036,-1.8909756999999998,-1.5175678999999997
-8.191036,-1.8909756999999998,-1.5175678999999997
-8.018694,-1.4792696,-1.4505458999999998
-8.018694,-1.4792696,-1.4505458999999998
-8.018694,-1.4792696,-1.4505458999999998
-9.368708,-1.5654407,-1.1824582000000001
-9.368708,-1.5654407,-1.1824582000000001
-9.368708,-1.5654407,-1.1824582000000001
-9.368708,-1.5654407,-1.1824582000000001
-9.368708,-1.5654407,-1.1824582000000001
-10.307014,-1.5462915000000002,-0.61755913
-10.307014,-1.5462915000000002,-0.61755913
-10.307014,-1.5462915000000002,-0.61755913
-10.307014,-1.5462915000000002,-0.61755913
-11.465536,-1.1920328000000002,-0.32074776
-11.465536,-1.1920328000000002,-0.32074776
-11.465536,-1.1920328000000002,-0.32074776
-11.465536,-1.1920328000000002,-0.32074776
-9.138917999999999,-1.3165021000000001,0.8281995000000001
-9.138917999999999,-1.3165021000000001,0.8281995000000001
-9.138917999999999,-1.3165021000000001,0.8281995000000001
-9.138917999999999,-1.3165021000000001,0.8281995000000001
-9.2825365,-1.3356511999999998,-0.33032233
-9.2825365,-1.3356511999999998,-0.33032233
-9.2825365,-1.3356511999999998,-0.33032233
-9.2825365,-1.3356511999999998,-0.33032233
-9.675094,-2.1782124,-0.8281995000000001
-9.675094,-2.1782124,-0.8281995000000001
-9.675094,-2.1782124,-0.8281995000000001
-9.675094,-2.1782124,-0.8281995000000001
-7.4920936000000005,-2.6377914000000002,-0.23457673
-7.4920936000000005,-2.6377914000000002,-0.23457673
-7.4920936000000005,-2.6377914000000002,-0.23457673
-7.693159,-3.2792869,-0.3111732
-7.693159,-3.2792869,-0.3111732
-7.693159,-3.2792869,-0.3111732
-7.693159,-3.2792869,-0.3111732
-7.693159,-3.2792869,-0.3111732
-10.40276,-3.4420545,-0.18670394
-10.40276,-3.4420545,-0.18670394
-10.40276,-3.4420545,-0.18670394
-10.40276,-3.4420545,-0.18670394
-12.681505,-3.518651,-0.19627848
-12.681505,-3.518651,-0.19627848
-12.681505,-3.518651,-0.19627848
-12.681505,-3.518651,-0.19627848
-12.681505,-3.518651,-0.19627848
-12.681505,-3.518651,-0.19627848
-12.681505,-3.518651,-0.19627848
-12.384694,-3.9399316,-0.9718179
-12.384694,-3.9399316,-0.9718179
-12.384694,-3.9399316,-0.9718179
-12.384694,-3.9399316,-0.9718179
-9.550624000000001,-3.2505634,-0.69415563
-9.550624000000001,-3.2505634,-0.69415563
-9.550624000000001,-3.2505634,-0.69415563
-9.550624000000001,-3.2505634,-0.69415563
-11.771922,-2.9920502,-1.862252
-11.771922,-2.9920502,-1.862252
-11.771922,-2.9920502,-1.862252
-11.771922,-2.9920502,-1.862252
-12.375119,-2.2260852000000004,-2.2356597999999996
-12.375119,-2.2260852000000004,-2.2356597999999996
-12.375119,-2.2260852000000004,-2.2356597999999996
-12.375119,-2.2260852000000004,-2.2356597999999996
-12.375119,-2.2260852000000004,-2.2356597999999996
-10.182545,-2.034594,-1.9005502
-10.182545,-2.034594,-1.9005502
-10.182545,-2.034594,-1.9005502
-7.8846507,-1.9292740000000002,-1.4984187
-7.8846507,-1.9292740000000002,-1.4984187
-7.8846507,-1.9292740000000002,-1.4984187
-7.8846507,-1.9292740000000002,-1.4984187
-7.1474094,-1.6899098999999997,-1.14416
-7.1474094,-1.6899098999999997,-1.14416
-7.1474094,-1.6899098999999997,-1.14416
-7.1474094,-1.6899098999999997,-1.14416
-7.1474094,-1.6899098999999997,-1.14416
-8.104865,-1.6611862000000002,-0.9526688
-8.104865,-1.6611862000000002,-0.9526688
-8.104865,-1.6611862000000002,-0.9526688
-9.924032,-1.8335283,-0.2920241
-9.924032,-1.8335283,-0.2920241
-9.924032,-1.8335283,-0.2920241
-9.924032,-1.8335283,-0.2920241
-9.924032,-1.8335283,-0.2920241
-12.078308,-1.862252,-0.2441513
-12.078308,-1.862252,-0.2441513
-12.078308,-1.862252,-0.2441513
-12.078308,-1.862252,-0.2441513
-8.66019,-1.9771467,1.6037389
-8.66019,-1.9771467,1.6037389
-8.66019,-1.9771467,1.6037389
-9.100619,-1.9101248,0.2441513
-9.100619,-1.9101248,0.2441513
-9.100619,-1.9101248,0.2441513
-9.100619,-1.9101248,0.2441513
-9.100619,-1.9101248,0.2441513
-9.6942425,-2.513322,-0.10053288
-9.6942425,-2.513322,-0.10053288
-9.6942425,-2.513322,-0.10053288
-9.6942425,-2.513322,-0.10053288
-8.076141,-2.714388,0.665432
-8.076141,-2.714388,0.665432
-8.076141,-2.714388,0.665432
-8.076141,-2.714388,0.665432
-7.654861,-3.231414,-0.014361841
-7.654861,-3.231414,-0.014361841
-7.654861,-3.231414,-0.014361841
-7.654861,-3.231414,-0.014361841
-8.143164,-3.604822,-0.023936402000000002
-8.143164,-3.604822,-0.023936402000000002
-8.143164,-3.604822,-0.023936402000000002
-8.143164,-3.604822,-0.023936402000000002
-9.636795,-3.1643922000000004,0.22500217
-9.636795,-3.1643922000000004,0.22500217
-9.636795,-3.1643922000000004,0.22500217
-9.636795,-3.1643922000000004,0.22500217
-11.140001,-3.5378,-0.54096264
-11.140001,-3.5378,-0.54096264
-11.140001,-3.5378,-0.54096264
-11.140001,-3.5378,-0.54096264
-11.685751,-3.7197167999999996,-1.0962871
-11.685751,-3.7197167999999996,-1.0962871
-11.685751,-3.7197167999999996,-1.0962871
-11.685751,-3.7197167999999996,-1.0962871
-13.897473999999999,-3.2026904,-1.5558661
-13.897473999999999,-3.2026904,-1.5558661
-13.897473999999999,-3.2026904,-1.5558661
-13.897473999999999,-3.2026904,-1.5558661
-9.407005,-1.0675635,-0.8664976999999999
-9.407005,-1.0675635,-0.8664976999999999
-9.407005,-1.0675635,-0.8664976999999999
-9.407005,-1.0675635,-0.8664976999999999
-9.301685,-0.18670394,-1.2686293
-9.301685,-0.18670394,-1.2686293
-9.301685,-0.18670394,-1.2686293
-9.301685,-0.18670394,-1.2686293
-11.408089,-0.56968635,-1.9675721999999998
-11.408089,-0.56968635,-1.9675721999999998
-11.408089,-0.56968635,-1.9675721999999998
-11.408089,-0.56968635,-1.9675721999999998
-10.239991999999999,-0.2441513,-1.6420371999999999
-10.239991999999999,-0.2441513,-1.6420371999999999
-10.239991999999999,-0.2441513,-1.6420371999999999
-10.239991999999999,-0.2441513,-1.6420371999999999
-8.832532,-0.18670394,-1.6133133999999998
-8.832532,-0.18670394,-1.6133133999999998
-8.832532,-0.18670394,-1.6133133999999998
-8.832532,-0.18670394,-1.6133133999999998
-8.028269,-1.0196906,-1.3069274
-8.028269,-1.0196906,-1.3069274
-8.028269,-1.0196906,-1.3069274
-8.028269,-1.0196906,-1.3069274
-8.526146,-1.5654407,-1.2590546999999999
-8.526146,-1.5654407,-1.2590546999999999
-8.526146,-1.5654407,-1.2590546999999999
-8.526146,-1.5654407,-1.2590546999999999
-7.741032000000001,-1.6899098999999997,-1.0675635
-7.741032000000001,-1.6899098999999997,-1.0675635
-7.741032000000001,-1.6899098999999997,-1.0675635
-7.741032000000001,-1.6899098999999997,-1.0675635
-8.478273,-2.34098,-0.9526688
-8.478273,-2.34098,-0.9526688
-8.478273,-2.34098,-0.9526688
-8.478273,-2.34098,-0.9526688
-9.598496,-2.5516202,-1.1250108
-9.598496,-2.5516202,-1.1250108
-9.598496,-2.5516202,-1.1250108
-9.598496,-2.5516202,-1.1250108
-8.191036,-2.8197080000000003,-0.5505372
-8.191036,-2.8197080000000003,-0.5505372
-8.191036,-2.8197080000000003,-0.5505372
-8.191036,-2.8197080000000003,-0.5505372
-7.5399666,-3.212265,-0.11968201
-7.5399666,-3.212265,-0.11968201
-7.5399666,-3.212265,-0.11968201
-7.5399666,-3.212265,-0.11968201
-8.880403999999999,-3.2218397000000003,-0.19627848
-8.880403999999999,-3.2218397000000003,-0.19627848
-8.880403999999999,-3.2218397000000003,-0.19627848
-8.880403999999999,-3.2218397000000003,-0.19627848
-9.713391,-3.2218397000000003,0.014361841
-9.713391,-3.2218397000000003,0.014361841
-9.713391,-3.2218397000000003,0.014361841
-9.713391,-3.2218397000000003,0.014361841
-9.54105,-3.5282254,-0.40691882
-9.54105,-3.5282254,-0.40691882
-9.54105,-3.5282254,-0.40691882
-9.54105,-3.5282254,-0.40691882
-8.736787,-3.4899273,-0.5218136
-8.736787,-3.4899273,-0.5218136
-8.736787,-3.4899273,-0.5218136
-8.736787,-3.4899273,-0.5218136
-9.7899885,-3.2984362000000003,-0.61755913
-9.7899885,-3.2984362000000003,-0.61755913
-9.7899885,-3.2984362000000003,-0.61755913
-9.7899885,-3.2984362000000003,-0.61755913
-9.64637,-3.231414,-0.8090504
-9.64637,-3.231414,-0.8090504
