accx,accy,accz
-9.598496,-3.7675896,1.9005502
-9.598496,-3.7675896,1.9005502
-9.598496,-3.7675896,1.9005502
-9.598496,-3.7675896,1.9005502
-9.0814705,-4.131423000000001,1.6324625
-9.0814705,-4.131423000000001,1.6324625
-9.0814705,-4.131423000000001,1.6324625
-9.20594,-3.6335455999999997,1.6133133999999998
-9.20594,-3.6335455999999997,1.6133133999999998
-9.20594,-3.6335455999999997,1.6133133999999998
-9.20594,-3.6335455999999997,1.6133133999999998
-9.20594,-3.6335455999999997,1.6133133999999998
-9.579348,-2.8388572,1.709059
-9.579348,-2.8388572,1.709059
-9.579348,-2.8388572,1.709059
-9.579348,-2.8388572,1.709059
-9.244238000000001,-2.2643836,1.7952299999999999
-9.244238000000001,-2.2643836,1.7952299999999999
-9.244238000000001,-2.2643836,1.7952299999999999
-9.359133,-2.2165107999999996,1.5558661
-9.359133,-2.2165107999999996,1.5558661
-9.359133,-2.2165107999999996,1.5558661
-9.359133,-2.2165107999999996,1.5558661
-9.359133,-2.2165107999999996,1.5558661
-9.85701,-2.5803439999999997,1.0962871
-9.85701,-2.5803439999999997,1.0962871
-9.85701,-2.5803439999999997,1.0962871
-10.259142,-2.513322,1.0675635
-10.259142,-2.513322,1.0675635
-10.259142,-2.513322,1.0675635
-10.259142,-2.513322,1.0675635
-8.286782,-2.1111906000000005,1.4792696
-8.286782,-2.1111906000000005,1.4792696
-8.286782,-2.1111906000000005,1.4792696
-8.286782,-2.1111906000000005,1.4792696
-8.21976,-1.3260766000000002,1.8814011999999998
-8.21976,-1.3260766000000002,1.8814011999999998
-8.21976,-1.3260766000000002,1.8814011999999998
-8.21976,-1.3260766000000002,1.8814011999999998
-8.736787,-1.6899098999999997,1.776081
-8.736787,-1.6899098999999997,1.776081
-8.736787,-1.6899098999999997,1.776081
-8.736787,-1.6899098999999997,1.776081
-9.196365,-2.3888528,1.7473572
-9.196365,-2.3888528,1.7473572
-9.196365,-2.3888528,1.7473572
-9.196365,-2.3888528,1.7473572
-9.138917999999999,-2.4654493,1.7186337
-9.138917999999999,-2.4654493,1.7186337
-9.138917999999999,-2.4654493,1.7186337
-9.138917999999999,-2.4654493,1.7186337
-9.138917999999999,-2.4654493,1.7186337
-9.062322,-1.9196993000000002,2.1111906000000005
-9.062322,-1.9196993000000002,2.1111906000000005
-9.062322,-1.9196993000000002,2.1111906000000005
-8.937852000000001,-1.709059,2.2260852000000004
-8.937852000000001,-1.709059,2.2260852000000004
-8.937852000000001,-1.709059,2.2260852000000004
-8.937852000000001,-1.709059,2.2260852000000004
-8.880403999999999,-2.254809,1.8909756999999998
-8.880403999999999,-2.254809,1.8909756999999998
-8.880403999999999,-2.254809,1.8909756999999998
-8.880403999999999,-2.254809,1.8909756999999998
-8.880403999999999,-2.254809,1.8909756999999998
-9.024023,-2.6090677,1.6133133999999998
-9.024023,-2.6090677,1.6133133999999998
-9.024023,-2.6090677,1.6133133999999998
-9.138917999999999,-2.5899186000000003,1.6611862000000002
-9.138917999999999,-2.5899186000000003,1.6611862000000002
-9.138917999999999,-2.5899186000000003,1.6611862000000002
-9.138917999999999,-2.5899186000000003,1.6611862000000002
-9.158066999999999,-2.4750240000000003,1.7377827000000001
-9.158066999999999,-2.4750240000000003,1.7377827000000001
-9.158066999999999,-2.4750240000000003,1.7377827000000001
-9.158066999999999,-2.4750240000000003,1.7377827000000001
-9.158066999999999,-2.4750240000000003,1.7377827000000001
-9.320834,-2.4463003,1.7282081999999999
-9.320834,-2.4463003,1.7282081999999999
-9.320834,-2.4463003,1.7282081999999999
-9.263388,-2.7622607000000006,1.5941644
-9.263388,-2.7622607000000006,1.5941644
-9.263388,-2.7622607000000006,1.5941644
-9.263388,-2.7622607000000006,1.5941644
-9.215514,-2.561195,1.6803354
-9.215514,-2.561195,1.6803354
-9.215514,-2.561195,1.6803354
-9.215514,-2.561195,1.6803354
-9.215514,-2.561195,1.6803354
-9.263388,-2.427151,1.8143792
-9.263388,-2.427151,1.8143792
-9.263388,-2.427151,1.8143792
-9.263388,-2.427151,1.8143792
-9.20594,-2.427151,1.8143792
-9.20594,-2.427151,1.8143792
-9.20594,-2.427151,1.8143792
-9.0814705,-2.2931072999999995,1.9292740000000002
-9.0814705,-2.2931072999999995,1.9292740000000002
-9.0814705,-2.2931072999999995,1.9292740000000002
-9.0814705,-2.2931072999999995,1.9292740000000002
-9.0814705,-2.2931072999999995,1.9292740000000002
-9.129342999999999,-2.2643836,1.8909756999999998
-9.129342999999999,-2.2643836,1.8909756999999998
-9.129342999999999,-2.2643836,1.8909756999999998
-9.215514,-2.2165107999999996,1.8718264999999998
-9.215514,-2.2165107999999996,1.8718264999999998
-9.215514,-2.2165107999999996,1.8718264999999998
-9.215514,-2.2165107999999996,1.8718264999999998
-9.110194,-2.149489,1.8239537000000001
-9.110194,-2.149489,1.8239537000000001
-9.110194,-2.149489,1.8239537000000001
-9.110194,-2.149489,1.8239537000000001
-9.110194,-2.149489,1.8239537000000001
-8.928278,-2.1111906000000005,1.7952299999999999
-8.928278,-2.1111906000000005,1.7952299999999999
-8.928278,-2.1111906000000005,1.7952299999999999
-8.803808,-2.1399142999999996,1.6899098999999997
-8.803808,-2.1399142999999996,1.6899098999999997
-8.803808,-2.1399142999999996,1.6899098999999997
-8.803808,-2.1399142999999996,1.6899098999999997
-8.861256,-2.2643836,1.6611862000000002
-8.861256,-2.2643836,1.6611862000000002
-8.861256,-2.2643836,1.6611862000000002
-8.861256,-2.2643836,1.6611862000000002
-8.861256,-2.2643836,1.6611862000000002
-8.918703,-2.2260852000000004,1.7569318999999999
-8.918703,-2.2260852000000004,1.7569318999999999
-8.918703,-2.2260852000000004,1.7569318999999999
-9.024023,-2.2739582,1.8814011999999998
-9.024023,-2.2739582,1.8814011999999998
-9.024023,-2.2739582,1.8814011999999998
-9.024023,-2.2739582,1.8814011999999998
-9.100619,-2.3122563,1.9388485
-9.100619,-2.3122563,1.9388485
-9.100619,-2.3122563,1.9388485
-9.100619,-2.3122563,1.9388485
-9.100619,-2.3122563,1.9388485
-9.091045,-2.3888528,1.948423
-9.091045,-2.3888528,1.948423
-9.091045,-2.3888528,1.948423
-9.091045,-2.3888528,1.948423
-9.0814705,-2.360129,1.9867213
-9.0814705,-2.360129,1.9867213
-9.0814705,-2.360129,1.9867213
-9.033598,-2.360129,1.9771467
-9.033598,-2.360129,1.9771467
-9.033598,-2.360129,1.9771467
-9.033598,-2.360129,1.9771467
-9.033598,-2.360129,1.9771467
-9.091045,-2.2739582,1.9962958
-9.091045,-2.2739582,1.9962958
-9.091045,-2.2739582,1.9962958
-9.091045,-2.2739582,1.9962958
-9.158066999999999,-2.321831,1.9292740000000002
-9.158066999999999,-2.321831,1.9292740000000002
-9.158066999999999,-2.321831,1.9292740000000002
-9.148492999999998,-2.2643836,1.9101248
-9.148492999999998,-2.2643836,1.9101248
-9.148492999999998,-2.2643836,1.9101248
-9.148492999999998,-2.2643836,1.9101248
-9.043172,-2.1973617,1.9292740000000002
-9.043172,-2.1973617,1.9292740000000002
-9.043172,-2.1973617,1.9292740000000002
-9.043172,-2.1973617,1.9292740000000002
-9.033598,-2.168638,1.9292740000000002
-9.033598,-2.168638,1.9292740000000002
-9.033598,-2.168638,1.9292740000000002
-9.033598,-2.168638,1.9292740000000002
-9.043172,-2.149489,1.9005502
-9.043172,-2.149489,1.9005502
-9.043172,-2.149489,1.9005502
-9.043172,-2.149489,1.9005502
-8.976150500000001,-2.1590632999999997,1.8814011999999998
-8.976150500000001,-2.1590632999999997,1.8814011999999998
-8.976150500000001,-2.1590632999999997,1.8814011999999998
-8.976150500000001,-2.1590632999999997,1.8814011999999998
-8.937852000000001,-2.1973617,1.8718264999999998
-8.937852000000001,-2.1973617,1.8718264999999998
-8.937852000000001,-2.1973617,1.8718264999999998
-8.937852000000001,-2.1973617,1.8718264999999998
-8.976150500000001,-2.2165107999999996,1.9196993000000002
-8.976150500000001,-2.2165107999999996,1.9196993000000002
-8.976150500000001,-2.2165107999999996,1.9196993000000002
-8.976150500000001,-2.2165107999999996,1.9196993000000002
-9.148492999999998,-2.2069361,1.9292740000000002
-9.148492999999998,-2.2069361,1.9292740000000002
-9.148492999999998,-2.2069361,1.9292740000000002
-9.148492999999998,-2.2069361,1.9292740000000002
-9.148492999999998,-2.2069361,1.9292740000000002
-9.158066999999999,-2.254809,1.9196993000000002
-9.158066999999999,-2.254809,1.9196993000000002
-9.158066999999999,-2.254809,1.9196993000000002
-9.052747,-2.321831,1.9292740000000002
-9.052747,-2.321831,1.9292740000000002
-9.052747,-2.321831,1.9292740000000002
-9.052747,-2.321831,1.9292740000000002
-8.957002000000001,-2.2931072999999995,1.9962958
-8.957002000000001,-2.2931072999999995,1.9962958
-8.957002000000001,-2.2931072999999995,1.9962958
-8.957002000000001,-2.2931072999999995,1.9962958
-8.957002000000001,-2.2931072999999995,1.9962958
-9.033598,-2.3314054,1.9962958
-9.033598,-2.3314054,1.9962958
-9.033598,-2.3314054,1.9962958
-9.110194,-2.2931072999999995,2.0633178
-9.110194,-2.2931072999999995,2.0633178
-9.110194,-2.2931072999999995,2.0633178
-9.110194,-2.2931072999999995,2.0633178
-9.0814705,-2.2452345,2.0920415
-9.0814705,-2.2452345,2.0920415
-9.0814705,-2.2452345,2.0920415
-9.0814705,-2.2452345,2.0920415
-9.0814705,-2.2452345,2.0920415
-9.052747,-2.2165107999999996,2.0824668
-9.052747,-2.2165107999999996,2.0824668
-9.052747,-2.2165107999999996,2.0824668
-8.985725,-2.2260852000000004,2.0633178
-8.985725,-2.2260852000000004,2.0633178
-8.985725,-2.2260852000000004,2.0633178
-8.985725,-2.2260852000000004,2.0633178
-8.880403999999999,-2.1973617,2.0728923999999997
-8.880403999999999,-2.1973617,2.0728923999999997
-8.880403999999999,-2.1973617,2.0728923999999997
-8.880403999999999,-2.1973617,2.0728923999999997
-8.880403999999999,-2.1973617,2.0728923999999997
-8.957002000000001,-2.2069361,2.0537431
-8.957002000000001,-2.2069361,2.0537431
-8.957002000000001,-2.2069361,2.0537431
-8.957002000000001,-2.2069361,2.0537431
-9.004874000000001,-2.2739582,2.0250196
-9.004874000000001,-2.2739582,2.0250196
-9.004874000000001,-2.2739582,2.0250196
-8.966576,-2.3122563,2.0441686999999997
-8.966576,-2.3122563,2.0441686999999997
-8.966576,-2.3122563,2.0441686999999997
-8.966576,-2.3122563,2.0441686999999997
-8.966576,-2.3122563,2.0441686999999997
-8.909127999999999,-2.3792782000000003,2.0633178
-8.909127999999999,-2.3792782000000003,2.0633178
-8.909127999999999,-2.3792782000000003,2.0633178
-8.909127999999999,-2.3792782000000003,2.0633178
-9.014449,-2.360129,2.1111906000000005
-9.014449,-2.360129,2.1111906000000005
-9.014449,-2.360129,2.1111906000000005
-9.024023,-2.3697037999999995,2.1303396
-9.024023,-2.3697037999999995,2.1303396
-9.024023,-2.3697037999999995,2.1303396
-9.024023,-2.3697037999999995,2.1303396
-9.024023,-2.3697037999999995,2.1303396
-8.995299000000001,-2.34098,2.0824668
-8.995299000000001,-2.34098,2.0824668
-8.995299000000001,-2.34098,2.0824668
-8.995299000000001,-2.34098,2.0824668
-8.957002000000001,-2.3505547000000004,2.034594
-8.957002000000001,-2.3505547000000004,2.034594
-8.957002000000001,-2.3505547000000004,2.034594
-8.957002000000001,-2.3505547000000004,2.034594
-8.937852000000001,-2.360129,1.948423
-8.937852000000001,-2.360129,1.948423
-8.937852000000001,-2.360129,1.948423
-8.937852000000001,-2.360129,1.948423
-8.832532,-2.3697037999999995,1.8239537000000001
-8.832532,-2.3697037999999995,1.8239537000000001
-8.832532,-2.3697037999999995,1.8239537000000001
-8.803808,-2.408002,1.7473572
-8.803808,-2.408002,1.7473572
-8.803808,-2.408002,1.7473572
-8.803808,-2.408002,1.7473572
-8.842107,-2.2931072999999995,1.8335283
-8.842107,-2.2931072999999995,1.8335283
-8.842107,-2.2931072999999995,1.8335283
-8.842107,-2.2931072999999995,1.8335283
-8.822957,-2.0824668,1.9292740000000002
-8.822957,-2.0824668,1.9292740000000002
-8.822957,-2.0824668,1.9292740000000002
-8.822957,-2.0824668,1.9292740000000002
-8.822957,-2.0824668,1.9292740000000002
-8.985725,-1.8431028999999999,1.9867213
-8.985725,-1.8431028999999999,1.9867213
-8.985725,-1.8431028999999999,1.9867213
-9.320834,-2.427151,1.9867213
-9.320834,-2.427151,1.9867213
-9.320834,-2.427151,1.9867213
-9.320834,-2.427151,1.9867213
-9.215514,-2.0633178,3.3750327000000007
-9.215514,-2.0633178,3.3750327000000007
-9.215514,-2.0633178,3.3750327000000007
-9.215514,-2.0633178,3.3750327000000007
-9.215514,-2.0633178,3.3750327000000007
-8.1623125,-3.451629,2.3314054
-8.1623125,-3.451629,2.3314054
-8.1623125,-3.451629,2.3314054
-7.7506065,-4.08355,0.7994758000000001
-7.7506065,-4.08355,0.7994758000000001
-7.7506065,-4.08355,0.7994758000000001
-7.7506065,-4.08355,0.7994758000000001
-8.55487,-2.5037475,1.6899098999999997
-8.55487,-2.5037475,1.6899098999999997
-8.55487,-2.5037475,1.6899098999999997
-8.55487,-2.5037475,1.6899098999999997
-8.55487,-2.5037475,1.6899098999999997
-9.85701,-2.6952388,1.8814011999999998
-9.85701,-2.6952388,1.8814011999999998
-9.85701,-2.6952388,1.8814011999999998
-9.85701,-2.6952388,1.8814011999999998
-11.1208515,-2.9633265,1.7569318999999999
-11.1208515,-2.9633265,1.7569318999999999
-11.1208515,-2.9633265,1.7569318999999999
-12.834699,-3.4037561000000003,2.5803439999999997
-12.834699,-3.4037561000000003,2.5803439999999997
-12.834699,-3.4037561000000003,2.5803439999999997
-12.834699,-3.4037561000000003,2.5803439999999997
-12.834699,-3.4037561000000003,2.5803439999999997
-9.6942425,-2.9537517999999996,3.0303482999999996
-9.6942425,-2.9537517999999996,3.0303482999999996
-9.6942425,-2.9537517999999996,3.0303482999999996
-9.6942425,-2.9537517999999996,3.0303482999999996
-9.569773,-2.5803439999999997,2.101616
-9.569773,-2.5803439999999997,2.101616
-9.569773,-2.5803439999999997,2.101616
-10.632549000000001,-1.9292740000000002,1.2016073
-10.632549000000001,-1.9292740000000002,1.2016073
-10.632549000000001,-1.9292740000000002,1.2016073
-10.632549000000001,-1.9292740000000002,1.2016073
-10.632549000000001,-1.9292740000000002,1.2016073
-9.378282,-0.59841,2.1877869999999997
-9.378282,-0.59841,2.1877869999999997
-9.378282,-0.59841,2.1877869999999997
-9.378282,-0.59841,2.1877869999999997
-7.4250717,-1.0196906,1.2494801000000002
-7.4250717,-1.0196906,1.2494801000000002
-7.4250717,-1.0196906,1.2494801000000002
-7.463369999999999,-2.0058703,0.28244954
-7.463369999999999,-2.0058703,0.28244954
-7.463369999999999,-2.0058703,0.28244954
-7.463369999999999,-2.0058703,0.28244954
-7.463369999999999,-2.0058703,0.28244954
-8.32508,-1.9579976000000003,0.5888355
-8.32508,-1.9579976000000003,0.5888355
-8.32508,-1.9579976000000003,0.5888355
-8.32508,-1.9579976000000003,0.5888355
-10.900637,-1.2782038,0.92394507
-10.900637,-1.2782038,0.92394507
-10.900637,-1.2782038,0.92394507
-10.900637,-1.2782038,0.92394507
-10.71872,-2.4367256,1.2590546999999999
-10.71872,-2.4367256,1.2590546999999999
-10.71872,-2.4367256,1.2590546999999999
-10.71872,-2.4367256,1.2590546999999999
-9.933606,-2.6760897999999997,2.5899186000000003
-9.933606,-2.6760897999999997,2.5899186000000003
-9.933606,-2.6760897999999997,2.5899186000000003
-9.933606,-2.6760897999999997,2.5899186000000003
-9.7899885,-1.4122477,3.1069447999999995
-9.7899885,-1.4122477,3.1069447999999995
-9.7899885,-1.4122477,3.1069447999999995
-9.7899885,-1.4122477,3.1069447999999995
-7.128260000000001,-0.69415563,3.4803526
-7.128260000000001,-0.69415563,3.4803526
-7.128260000000001,-0.69415563,3.4803526
-7.128260000000001,-0.69415563,3.4803526
-6.1899533,-1.5558661,2.0728923999999997
-6.1899533,-1.5558661,2.0728923999999997
-6.1899533,-1.5558661,2.0728923999999997
-6.1899533,-1.5558661,2.0728923999999997
-8.1623125,-2.8771553,1.3643749
-8.1623125,-2.8771553,1.3643749
-8.1623125,-2.8771553,1.3643749
-8.1623125,-2.8771553,1.3643749
-9.6942425,-3.1643922000000004,1.3260766000000002
-9.6942425,-3.1643922000000004,1.3260766000000002
-9.6942425,-3.1643922000000004,1.3260766000000002
-9.6942425,-3.1643922000000004,1.3260766000000002
-12.518738,-3.451629,1.7377827000000001
-12.518738,-3.451629,1.7377827000000001
-12.518738,-3.451629,1.7377827000000001
-12.518738,-3.451629,1.7377827000000001
-12.087883,-3.3558834,1.5271424
-12.087883,-3.3558834,1.5271424
-12.087883,-3.3558834,1.5271424
-12.087883,-3.3558834,1.5271424
-11.446387,-3.9399316,2.1207652
-11.446387,-3.9399316,2.1207652
-11.446387,-3.9399316,2.1207652
-11.446387,-3.9399316,2.1207652
-11.187874,-3.1739669999999998,1.2877783999999999
-11.187874,-3.1739669999999998,1.2877783999999999
-11.187874,-3.1739669999999998,1.2877783999999999
-11.187874,-3.1739669999999998,1.2877783999999999
-9.004874000000001,-1.4601203999999999,2.0728923999999997
-9.004874000000001,-1.4601203999999999,2.0728923999999997
-9.004874000000001,-1.4601203999999999,2.0728923999999997
-9.004874000000001,-1.4601203999999999,2.0728923999999997
-7.8176284,-0.10053288,1.9579976000000003
-7.8176284,-0.10053288,1.9579976000000003
-7.8176284,-0.10053288,1.9579976000000003
-7.8176284,-0.10053288,1.9579976000000003
-8.104865,-0.48351530000000004,1.469695
-8.104865,-0.48351530000000004,1.469695
-8.104865,-0.48351530000000004,1.469695
-8.104865,-0.48351530000000004,1.469695
-9.837861,-1.5845897,0.8090504
-9.837861,-1.5845897,0.8090504
-9.837861,-1.5845897,0.8090504
-9.837861,-1.5845897,0.8090504
-9.96233,-2.1399142999999996,-0.10053288
-9.96233,-2.1399142999999996,-0.10053288
-9.96233,-2.1399142999999996,-0.10053288
-9.96233,-2.1399142999999996,-0.10053288
-10.220842999999999,-1.5271424,0.751603
-10.220842999999999,-1.5271424,0.751603
-10.220842999999999,-1.5271424,0.751603
-10.220842999999999,-1.5271424,0.751603
-10.220842999999999,-1.5271424,0.751603
-11.542132,-1.6324625,2.360129
-11.542132,-1.6324625,2.360129
-11.542132,-1.6324625,2.360129
-8.23891,-1.2399056,3.0973704
-8.23891,-1.2399056,3.0973704
-8.23891,-1.2399056,3.0973704
-8.23891,-1.2399056,3.0973704
-6.9176197,-0.6271336999999999,2.6377914000000002
-6.9176197,-0.6271336999999999,2.6377914000000002
-6.9176197,-0.6271336999999999,2.6377914000000002
-6.9176197,-0.6271336999999999,2.6377914000000002
-6.9176197,-0.6271336999999999,2.6377914000000002
-8.708063000000001,-2.0441686999999997,1.0771381000000002
-8.708063000000001,-2.0441686999999997,1.0771381000000002
-8.708063000000001,-2.0441686999999997,1.0771381000000002
-10.517653999999999,-3.1069447999999995,1.6994845
-10.517653999999999,-3.1069447999999995,1.6994845
-10.517653999999999,-3.1069447999999995,1.6994845
-10.517653999999999,-3.1069447999999995,1.6994845
-11.484685,-2.8771553,1.5271424
-11.484685,-2.8771553,1.5271424
-11.484685,-2.8771553,1.5271424
-11.484685,-2.8771553,1.5271424
-11.484685,-2.8771553,1.5271424
-12.212352000000001,-3.6143966,1.2399056
-12.212352000000001,-3.6143966,1.2399056
-12.212352000000001,-3.6143966,1.2399056
-14.290030999999999,-5.9218655,1.5558661
-14.290030999999999,-5.9218655,1.5558661
-14.290030999999999,-5.9218655,1.5558661
-14.290030999999999,-5.9218655,1.5558661
-12.509163000000001,-1.8718264999999998,0.37819514
-12.509163000000001,-1.8718264999999998,0.37819514
-12.509163000000001,-1.8718264999999998,0.37819514
-12.509163000000001,-1.8718264999999998,0.37819514
-12.509163000000001,-1.8718264999999998,0.37819514
-10.058076,0.6558574,2.2835326
-10.058076,0.6558574,2.2835326
-10.058076,0.6558574,2.2835326
-10.058076,0.6558574,2.2835326
-8.44955,0.54096264,2.7909843999999997
-8.44955,0.54096264,2.7909843999999997
-8.44955,0.54096264,2.7909843999999997
-7.1186857,-0.8664976999999999,1.6420371999999999
-7.1186857,-0.8664976999999999,1.6420371999999999
-7.1186857,-0.8664976999999999,1.6420371999999999
-7.1186857,-0.8664976999999999,1.6420371999999999
-7.1186857,-0.8664976999999999,1.6420371999999999
-6.9176197,-2.1590632999999997,0.7324539000000001
-6.9176197,-2.1590632999999997,0.7324539000000001
-6.9176197,-2.1590632999999997,0.7324539000000001
-6.9176197,-2.1590632999999997,0.7324539000000001
-7.894225,-2.0920415,0.17712937
-7.894225,-2.0920415,0.17712937
-7.894225,-2.0920415,0.17712937
-10.622974000000001,-1.9867213,0.9526688
-10.622974000000001,-1.9867213,0.9526688
-10.622974000000001,-1.9867213,0.9526688
-10.622974000000001,-1.9867213,0.9526688
-10.622974000000001,-1.9867213,0.9526688
-12.595334,-2.800559,2.4175766
-12.595334,-2.800559,2.4175766
-12.595334,-2.800559,2.4175766
-12.595334,-2.800559,2.4175766
-10.307014,-1.8431028999999999,2.8771553
-10.307014,-1.8431028999999999,2.8771553
-10.307014,-1.8431028999999999,2.8771553
-10.307014,-1.8431028999999999,2.8771553
-7.865501400000001,-0.7228793,2.2069361
-7.865501400000001,-0.7228793,2.2069361
-7.865501400000001,-0.7228793,2.2069361
-7.865501400000001,-0.7228793,2.2069361
-7.788905000000001,-1.0675635,1.8431028999999999
-7.788905000000001,-1.0675635,1.8431028999999999
-7.788905000000001,-1.0675635,1.8431028999999999
-7.788905000000001,-1.0675635,1.8431028999999999
-10.096374,-2.5994933,1.5654407
-10.096374,-2.5994933,1.5654407
-10.096374,-2.5994933,1.5654407
-10.096374,-2.5994933,1.5654407
-9.665519,-3.1643922000000004,1.2303311000000001
-9.665519,-3.1643922000000004,1.2303311000000001
-9.665519,-3.1643922000000004,1.2303311000000001
-9.665519,-3.1643922000000004,1.2303311000000001
-12.135756,-3.8729098,0.69415563
-12.135756,-3.8729098,0.69415563
-12.135756,-3.8729098,0.69415563
-12.135756,-3.8729098,0.69415563
-13.34215,-4.916537,1.3452256999999999
-13.34215,-4.916537,1.3452256999999999
-13.34215,-4.916537,1.3452256999999999
-13.34215,-4.916537,1.3452256999999999
-12.020861,-3.997379,1.5462915000000002
-12.020861,-3.997379,1.5462915000000002
-12.020861,-3.997379,1.5462915000000002
-12.020861,-3.997379,1.5462915000000002
-11.446387,-1.2207563999999997,0.7994758000000001
-11.446387,-1.2207563999999997,0.7994758000000001
-11.446387,-1.2207563999999997,0.7994758000000001
-11.446387,-1.2207563999999997,0.7994758000000001
-10.172971,-0.49308985,2.168638
-10.172971,-0.49308985,2.168638
-10.172971,-0.49308985,2.168638
-10.172971,-0.49308985,2.168638
-8.985725,-1.0962871,1.7377827000000001
-8.985725,-1.0962871,1.7377827000000001
-8.985725,-1.0962871,1.7377827000000001
-8.985725,-1.0962871,1.7377827000000001
-7.808053999999999,-1.1728836,1.469695
-7.808053999999999,-1.1728836,1.469695
-7.808053999999999,-1.1728836,1.469695
-7.808053999999999,-1.1728836,1.469695
-6.936769,-1.1824582000000001,1.1345854
-6.936769,-1.1824582000000001,1.1345854
-6.936769,-1.1824582000000001,1.1345854
-6.936769,-1.1824582000000001,1.1345854
-7.961247,-2.0441686999999997,0.6558574
-7.961247,-2.0441686999999997,0.6558574
-7.961247,-2.0441686999999997,0.6558574
-7.961247,-2.0441686999999997,0.6558574
-10.967659,-2.7048132000000003,0.8760723
-10.967659,-2.7048132000000003,0.8760723
-10.967659,-2.7048132000000003,0.8760723
-10.967659,-2.7048132000000003,0.8760723
-12.56661,-2.149489,2.4175766
-12.56661,-2.149489,2.4175766
-12.56661,-2.149489,2.4175766
-12.56661,-2.149489,2.4175766
-11.254896,-1.4026731000000001,1.3165021000000001
-11.254896,-1.4026731000000001,1.3165021000000001
-11.254896,-1.4026731000000001,1.3165021000000001
-11.254896,-1.4026731000000001,1.3165021000000001
-7.587839,-0.54096264,2.6090677
-7.587839,-0.54096264,2.6090677
-7.587839,-0.54096264,2.6090677
-7.587839,-0.54096264,2.6090677
-7.587839,-0.54096264,2.6090677
-7.0612383,-1.5558661,1.2782038
-7.0612383,-1.5558661,1.2782038
-7.0612383,-1.5558661,1.2782038
-9.407005,-3.039923,0.8281995000000001
-9.407005,-3.039923,0.8281995000000001
-9.407005,-3.039923,0.8281995000000001
-9.407005,-3.039923,0.8281995000000001
-10.125097,-3.2984362000000003,0.9718179
-10.125097,-3.2984362000000003,0.9718179
-10.125097,-3.2984362000000003,0.9718179
-10.125097,-3.2984362000000003,0.9718179
-10.125097,-3.2984362000000003,0.9718179
-12.413418,-3.6622693999999996,1.2016073
-12.413418,-3.6622693999999996,1.2016073
-12.413418,-3.6622693999999996,1.2016073
-11.302769,-3.8250370000000005,1.3165021000000001
-11.302769,-3.8250370000000005,1.3165021000000001
-11.302769,-3.8250370000000005,1.3165021000000001
-11.302769,-3.8250370000000005,1.3165021000000001
-11.360216000000001,-4.619725,1.7569318999999999
-11.360216000000001,-4.619725,1.7569318999999999
-11.360216000000001,-4.619725,1.7569318999999999
-11.360216000000001,-4.619725,1.7569318999999999
-11.360216000000001,-4.619725,1.7569318999999999
-11.216598,-2.6760897999999997,0.77075213
-11.216598,-2.6760897999999997,0.77075213
-11.216598,-2.6760897999999997,0.77075213
-10.345312,-0.64628285,1.7569318999999999
-10.345312,-0.64628285,1.7569318999999999
-10.345312,-0.64628285,1.7569318999999999
-10.345312,-0.64628285,1.7569318999999999
-9.5889225,-0.30159867,2.0058703
-9.5889225,-0.30159867,2.0058703
-9.5889225,-0.30159867,2.0058703
-9.5889225,-0.30159867,2.0058703
-9.5889225,-0.30159867,2.0058703
-9.349558,-0.6271336999999999,1.6133133999999998
-9.349558,-0.6271336999999999,1.6133133999999998
-9.349558,-0.6271336999999999,1.6133133999999998
-9.349558,-0.6271336999999999,1.6133133999999998
-8.842107,-1.6420371999999999,1.14416
-8.842107,-1.6420371999999999,1.14416
-8.842107,-1.6420371999999999,1.14416
-8.526146,-1.6037389,0.36862057
-8.526146,-1.6037389,0.36862057
-8.526146,-1.6037389,0.36862057
-8.526146,-1.6037389,0.36862057
-8.526146,-1.6037389,0.36862057
-8.966576,-2.4463003,0.50266445
-8.966576,-2.4463003,0.50266445
-8.966576,-2.4463003,0.50266445
-8.966576,-2.4463003,0.50266445
-9.464453,-3.1643922000000004,2.0058703
-9.464453,-3.1643922000000004,2.0058703
-9.464453,-3.1643922000000004,2.0058703
-10.603826,-2.0824668,1.5654407
-10.603826,-2.0824668,1.5654407
-10.603826,-2.0824668,1.5654407
-10.603826,-2.0824668,1.5654407
-10.603826,-2.0824668,1.5654407
-9.847435,-2.0537431,2.733537
-9.847435,-2.0537431,2.733537
-9.847435,-2.0537431,2.733537
-9.847435,-2.0537431,2.733537
-7.894225,-1.0675635,2.101616
-7.894225,-1.0675635,2.101616
-7.894225,-1.0675635,2.101616
-7.894225,-1.0675635,2.101616
-9.272962,-2.034594,0.8473485999999999
-9.272962,-2.034594,0.8473485999999999
-9.272962,-2.034594,0.8473485999999999
-9.272962,-2.034594,0.8473485999999999
-10.287866000000001,-3.4899273,0.7420284
-10.287866000000001,-3.4899273,0.7420284
-10.287866000000001,-3.4899273,0.7420284
-12.480439,-4.1888704,0.93351966
-12.480439,-4.1888704,0.93351966
-12.480439,-4.1888704,0.93351966
-12.480439,-4.1888704,0.93351966
-10.977234,-4.1888704,1.8718264999999998
-10.977234,-4.1888704,1.8718264999999998
-10.977234,-4.1888704,1.8718264999999998
-10.977234,-4.1888704,1.8718264999999998
-11.140001,-4.0739756,1.4218222
-11.140001,-4.0739756,1.4218222
-11.140001,-4.0739756,1.4218222
-11.140001,-4.0739756,1.4218222
-11.140001,-4.0739756,1.4218222
-12.298523,-2.733537,0.26330042
-12.298523,-2.733537,0.26330042
-12.298523,-2.733537,0.26330042
-10.268716,-0.023936402000000002,2.1303396
-10.268716,-0.023936402000000002,2.1303396
-10.268716,-0.023936402000000002,2.1303396
-10.268716,-0.023936402000000002,2.1303396
-9.18679,-0.20585304,2.2165107999999996
-9.18679,-0.20585304,2.2165107999999996
-9.18679,-0.20585304,2.2165107999999996
-9.18679,-0.20585304,2.2165107999999996
-9.18679,-0.20585304,2.2165107999999996
-8.439975,-1.0867126,1.0675635
-8.439975,-1.0867126,1.0675635
-8.439975,-1.0867126,1.0675635
-8.32508,-1.709059,0.64628285
-8.32508,-1.709059,0.64628285
-8.32508,-1.709059,0.64628285
-8.32508,-1.709059,0.64628285
-8.32508,-1.709059,0.64628285
-9.41658,-1.948423,0.69415563
-9.41658,-1.948423,0.69415563
-9.41658,-1.948423,0.69415563
-9.41658,-1.948423,0.69415563
-9.531475,-2.1590632999999997,0.56011176
-9.531475,-2.1590632999999997,0.56011176
-9.531475,-2.1590632999999997,0.56011176
-9.531475,-2.1590632999999997,0.56011176
-9.943181,-3.1260939999999997,2.3888528
-9.943181,-3.1260939999999997,2.3888528
-9.943181,-3.1260939999999997,2.3888528
-9.943181,-3.1260939999999997,2.3888528
-9.617646,-2.149489,2.015445
-9.617646,-2.149489,2.015445
-9.617646,-2.149489,2.015445
-9.617646,-2.149489,2.015445
-8.66019,-1.1058618,1.9005502
-8.66019,-1.1058618,1.9005502
-8.66019,-1.1058618,1.9005502
-8.66019,-1.1058618,1.9005502
-8.545295,-1.5462915000000002,1.7377827000000001
-8.545295,-1.5462915000000002,1.7377827000000001
-8.545295,-1.5462915000000002,1.7377827000000001
-8.545295,-1.5462915000000002,1.7377827000000001
-9.435728999999998,-2.0441686999999997,1.8718264999999998
-9.435728999999998,-2.0441686999999997,1.8718264999999998
-9.435728999999998,-2.0441686999999997,1.8718264999999998
-9.435728999999998,-2.0441686999999997,1.8718264999999998
-9.5219,-2.0058703,2.0824668
-9.5219,-2.0058703,2.0824668
-9.5219,-2.0058703,2.0824668
-9.5219,-2.0058703,2.0824668
-12.202777000000001,-3.4037561000000003,1.2111819
-12.202777000000001,-3.4037561000000003,1.2111819
-12.202777000000001,-3.4037561000000003,1.2111819
-12.202777000000001,-3.4037561000000003,1.2111819
-12.7964,-4.610151,1.1537346000000002
-12.7964,-4.610151,1.1537346000000002
-12.7964,-4.610151,1.1537346000000002
-12.7964,-4.610151,1.1537346000000002
-9.62722,-4.121848,1.862252
-9.62722,-4.121848,1.862252
-9.62722,-4.121848,1.862252
-9.62722,-4.121848,1.862252
-11.187874,-2.5707695,0.7228793
-11.187874,-2.5707695,0.7228793
-11.187874,-2.5707695,0.7228793
-11.187874,-2.5707695,0.7228793
-9.713391,-0.6079846,1.6803354
-9.713391,-0.6079846,1.6803354
-9.713391,-0.6079846,1.6803354
-9.713391,-0.6079846,1.6803354
-9.244238000000001,-0.359046,2.0537431
-9.244238000000001,-0.359046,2.0537431
-9.244238000000001,-0.359046,2.0537431
-9.244238000000001,-0.359046,2.0537431
-8.870830999999999,-1.3165021000000001,1.1058618
-8.870830999999999,-1.3165021000000001,1.1058618
-8.870830999999999,-1.3165021000000001,1.1058618
-8.870830999999999,-1.3165021000000001,1.1058618
-8.650616000000001,-1.9579976000000003,0.6750065
-8.650616000000001,-1.9579976000000003,0.6750065
-8.650616000000001,-1.9579976000000003,0.6750065
-8.650616000000001,-1.9579976000000003,0.6750065
-8.803808,-2.1207652,0.59841
-8.803808,-2.1207652,0.59841
-8.803808,-2.1207652,0.59841
-8.803808,-2.1207652,0.59841
-11.408089,-2.0824668,0.49308985
-11.408089,-2.0824668,0.49308985
-11.408089,-2.0824668,0.49308985
-11.408089,-2.0824668,0.49308985
-9.64637,-2.0633178,1.709059
-9.64637,-2.0633178,1.709059
-9.64637,-2.0633178,1.709059
-9.64637,-2.0633178,1.709059
-10.153821,-1.6516117,1.6611862000000002
-10.153821,-1.6516117,1.6611862000000002
-10.153821,-1.6516117,1.6611862000000002
-10.153821,-1.6516117,1.6611862000000002
-8.210186,-1.3548003,1.8239537000000001
-8.210186,-1.3548003,1.8239537000000001
-8.210186,-1.3548003,1.8239537000000001
-8.210186,-1.3548003,1.8239537000000001
-6.2665496,-2.1207652,2.6952388
-6.2665496,-2.1207652,2.6952388
-6.2665496,-2.1207652,2.6952388
-6.2665496,-2.1207652,2.6952388
-7.8272033,-2.3122563,0.3398969
-7.8272033,-2.3122563,0.3398969
-7.8272033,-2.3122563,0.3398969
-7.8272033,-2.3122563,0.3398969
-11.025106,-3.0877957,0.56968635
-11.025106,-3.0877957,0.56968635
-11.025106,-3.0877957,0.56968635
-11.025106,-3.0877957,0.56968635
-12.394267999999999,-2.6090677,0.83777404
-12.394267999999999,-2.6090677,0.83777404
-12.394267999999999,-2.6090677,0.83777404
-12.394267999999999,-2.6090677,0.83777404
-12.432567,-3.5282254,1.8143792
-12.432567,-3.5282254,1.8143792
-12.432567,-3.5282254,1.8143792
-12.432567,-3.5282254,1.8143792
-9.349558,-4.945260500000001,2.0441686999999997
-9.349558,-4.945260500000001,2.0441686999999997
-9.349558,-4.945260500000001,2.0441686999999997
-9.349558,-4.945260500000001,2.0441686999999997
-10.71872,-3.4324798999999997,0.93351966
-10.71872,-3.4324798999999997,0.93351966
-10.71872,-3.4324798999999997,0.93351966
-10.71872,-3.4324798999999997,0.93351966
-9.914457,-1.0579889,1.6611862000000002
-9.914457,-1.0579889,1.6611862000000002
-9.914457,-1.0579889,1.6611862000000002
-9.914457,-1.0579889,1.6611862000000002
-9.914457,-1.0579889,1.6611862000000002
-9.272962,0.25372586,2.4654493
-9.272962,0.25372586,2.4654493
-9.272962,0.25372586,2.4654493
-8.976150500000001,-0.7324539000000001,1.6707608
-8.976150500000001,-0.7324539000000001,1.6707608
-8.976150500000001,-0.7324539000000001,1.6707608
-8.976150500000001,-0.7324539000000001,1.6707608
-9.234664,-2.0058703,0.7228793
-9.234664,-2.0058703,0.7228793
-9.234664,-2.0058703,0.7228793
-9.234664,-2.0058703,0.7228793
-9.234664,-2.0058703,0.7228793
-11.245321,-1.6803354,-0.03351096
-11.245321,-1.6803354,-0.03351096
-11.245321,-1.6803354,-0.03351096
-10.010203,-1.709059,-0.92394507
-10.010203,-1.709059,-0.92394507
-10.010203,-1.709059,-0.92394507
-10.010203,-1.709059,-0.92394507
-10.010203,-1.709059,-0.92394507
-8.612317,-3.3941817000000003,1.0771381000000002
-8.612317,-3.3941817000000003,1.0771381000000002
-8.612317,-3.3941817000000003,1.0771381000000002
-8.612317,-3.3941817000000003,1.0771381000000002
-8.851681,-2.8292825,2.2069361
-8.851681,-2.8292825,2.2069361
-8.851681,-2.8292825,2.2069361
-7.1091112999999995,-1.4218222,2.254809
-7.1091112999999995,-1.4218222,2.254809
-7.1091112999999995,-1.4218222,2.254809
-7.1091112999999995,-1.4218222,2.254809
-7.1091112999999995,-1.4218222,2.254809
-7.243155000000001,-0.8952214,2.647366
-7.243155000000001,-0.8952214,2.647366
-7.243155000000001,-0.8952214,2.647366
-7.243155000000001,-0.8952214,2.647366
-9.215514,-2.5037475,1.469695
-9.215514,-2.5037475,1.469695
-9.215514,-2.5037475,1.469695
-9.215514,-2.5037475,1.469695
-11.111278,-3.1069447999999995,1.6037389
-11.111278,-3.1069447999999995,1.6037389
-11.111278,-3.1069447999999995,1.6037389
-11.111278,-3.1069447999999995,1.6037389
-12.154904,-3.2697124,1.7282081999999999
-12.154904,-3.2697124,1.7282081999999999
-12.154904,-3.2697124,1.7282081999999999
-12.154904,-3.2697124,1.7282081999999999
-14.050668,-4.08355,2.1877869999999997
-14.050668,-4.08355,2.1877869999999997
-14.050668,-4.08355,2.1877869999999997
-14.050668,-4.08355,2.1877869999999997
-10.594251,-3.5282254,2.733537
-10.594251,-3.5282254,2.733537
-10.594251,-3.5282254,2.733537
-10.594251,-3.5282254,2.733537
-10.977234,-1.6803354,1.0292653
-10.977234,-1.6803354,1.0292653
-10.977234,-1.6803354,1.0292653
-10.977234,-1.6803354,1.0292653
-9.770839,-0.16755481,1.5079931999999998
-9.770839,-0.16755481,1.5079931999999998
-9.770839,-0.16755481,1.5079931999999998
-9.770839,-0.16755481,1.5079931999999998
-8.66019,-0.25372586,2.2260852000000004
-8.66019,-0.25372586,2.2260852000000004
-8.66019,-0.25372586,2.2260852000000004
-8.66019,-0.25372586,2.2260852000000004
-8.00912,-2.1590632999999997,0.48351530000000004
-8.00912,-2.1590632999999997,0.48351530000000004
-8.00912,-2.1590632999999997,0.48351530000000004
-8.00912,-2.1590632999999997,0.48351530000000004
-7.2623043,-2.1782124,-0.11968201
-7.2623043,-2.1782124,-0.11968201
-7.2623043,-2.1782124,-0.11968201
-7.2623043,-2.1782124,-0.11968201
-7.501668,-1.7377827000000001,0.2920241
-7.501668,-1.7377827000000001,0.2920241
-7.501668,-1.7377827000000001,0.2920241
-7.501668,-1.7377827000000001,0.2920241
-9.971905,-2.1973617,0.4164934
-9.971905,-2.1973617,0.4164934
-9.971905,-2.1973617,0.4164934
-9.971905,-2.1973617,0.4164934
-10.555953,-2.6856642,1.8143792
-10.555953,-2.6856642,1.8143792
-10.555953,-2.6856642,1.8143792
-10.555953,-2.6856642,1.8143792
-11.886817,-2.254809,2.6186423
-11.886817,-2.254809,2.6186423
-11.886817,-2.254809,2.6186423
-11.886817,-2.254809,2.6186423
-9.110194,-1.6994845,2.4367256
-9.110194,-1.6994845,2.4367256
-9.110194,-1.6994845,2.4367256
-9.110194,-1.6994845,2.4367256
-6.8888964999999995,-0.7324539000000001,2.6186423
-6.8888964999999995,-0.7324539000000001,2.6186423
-6.8888964999999995,-0.7324539000000001,2.6186423
-6.8888964999999995,-0.7324539000000001,2.6186423
-7.8846507,-1.6707608,1.5367169
-7.8846507,-1.6707608,1.5367169
-7.8846507,-1.6707608,1.5367169
-7.8846507,-1.6707608,1.5367169
-9.531475,-2.905879,2.0058703
-9.531475,-2.905879,2.0058703
-9.531475,-2.905879,2.0058703
-9.531475,-2.905879,2.0058703
-10.220842999999999,-3.1548176,1.6133133999999998
-10.220842999999999,-3.1548176,1.6133133999999998
-10.220842999999999,-3.1548176,1.6133133999999998
-10.220842999999999,-3.1548176,1.6133133999999998
-15.228338,-4.5527034,1.3452256999999999
-15.228338,-4.5527034,1.3452256999999999
-15.228338,-4.5527034,1.3452256999999999
-15.228338,-4.5527034,1.3452256999999999
-11.274045,-3.8537605000000004,2.360129
-11.274045,-3.8537605000000004,2.360129
-11.274045,-3.8537605000000004,2.360129
-11.274045,-3.8537605000000004,2.360129
-11.302769,-1.8335283,1.3165021000000001
-11.302769,-1.8335283,1.3165021000000001
-11.302769,-1.8335283,1.3165021000000001
-11.302769,-1.8335283,1.3165021000000001
-10.19212,-1.0962871,1.0962871
-10.19212,-1.0962871,1.0962871
-10.19212,-1.0962871,1.0962871
-10.19212,-1.0962871,1.0962871
-8.4686985,-0.85692316,2.360129
-8.4686985,-0.85692316,2.360129
-8.4686985,-0.85692316,2.360129
-8.4686985,-0.85692316,2.360129
-7.310177,-1.6899098999999997,1.0771381000000002
-7.310177,-1.6899098999999997,1.0771381000000002
-7.310177,-1.6899098999999997,1.0771381000000002
-7.310177,-1.6899098999999997,1.0771381000000002
-7.310177,-1.6899098999999997,1.0771381000000002
-6.47719,-1.8143792,0.45479164
-6.47719,-1.8143792,0.45479164
-6.47719,-1.8143792,0.45479164
-6.975067,-1.776081,0.71330476
-6.975067,-1.776081,0.71330476
-6.975067,-1.776081,0.71330476
-6.975067,-1.776081,0.71330476
-11.302769,-2.2069361,0.30159867
-11.302769,-2.2069361,0.30159867
-11.302769,-2.2069361,0.30159867
-11.302769,-2.2069361,0.30159867
-12.164479,-2.733537,1.1345854
-12.164479,-2.733537,1.1345854
-12.164479,-2.733537,1.1345854
-12.164479,-2.733537,1.1345854
-11.072979,-1.4122477,2.666515
-11.072979,-1.4122477,2.666515
-11.072979,-1.4122477,2.666515
-11.072979,-1.4122477,2.666515
-11.072979,-1.4122477,2.666515
-9.3878565,-1.6899098999999997,1.7473572
-9.3878565,-1.6899098999999997,1.7473572
-9.3878565,-1.6899098999999997,1.7473572
-6.9559183,-0.92394507,2.714388
-6.9559183,-0.92394507,2.714388
-6.9559183,-0.92394507,2.714388
-6.9559183,-0.92394507,2.714388
-7.4920936000000005,-2.5707695,1.0292653
-7.4920936000000005,-2.5707695,1.0292653
-7.4920936000000005,-2.5707695,1.0292653
-7.4920936000000005,-2.5707695,1.0292653
-7.4920936000000005,-2.5707695,1.0292653
-9.665519,-3.2505634,1.0101161
-9.665519,-3.2505634,1.0101161
-9.665519,-3.2505634,1.0101161
-11.436812,-3.2026904,0.9718179
-11.436812,-3.2026904,0.9718179
-11.436812,-3.2026904,0.9718179
-11.436812,-3.2026904,0.9718179
-11.436812,-3.2026904,0.9718179
-12.490014,-4.1601467,1.2973529
-12.490014,-4.1601467,1.2973529
-12.490014,-4.1601467,1.2973529
-12.490014,-4.1601467,1.2973529
-10.785743,-3.8058877,1.8431028999999999
-10.785743,-3.8058877,1.8431028999999999
-10.785743,-3.8058877,1.8431028999999999
-10.785743,-3.8058877,1.8431028999999999
-11.551707,-3.9878044000000004,1.7282081999999999
-11.551707,-3.9878044000000004,1.7282081999999999
-11.551707,-3.9878044000000004,1.7282081999999999
-11.551707,-3.9878044000000004,1.7282081999999999
-11.38894,-1.9388485,0.9526688
-11.38894,-1.9388485,0.9526688
-11.38894,-1.9388485,0.9526688
-11.38894,-1.9388485,0.9526688
-10.450633,0.110107444,2.2452345
-10.450633,0.110107444,2.2452345
-10.450633,0.110107444,2.2452345
-10.450633,0.110107444,2.2452345
-8.784659,-0.30159867,1.6420371999999999
-8.784659,-0.30159867,1.6420371999999999
-8.784659,-0.30159867,1.6420371999999999
-8.784659,-0.30159867,1.6420371999999999
-8.21976,-1.5654407,0.39734426
-8.21976,-1.5654407,0.39734426
-8.21976,-1.5654407,0.39734426
-8.21976,-1.5654407,0.39734426
-9.091045,-2.5803439999999997,-0.12925656
-9.091045,-2.5803439999999997,-0.12925656
-9.091045,-2.5803439999999997,-0.12925656
-9.091045,-2.5803439999999997,-0.12925656
-10.19212,-2.0728923999999997,-0.42606795
-10.19212,-2.0728923999999997,-0.42606795
-10.19212,-2.0728923999999997,-0.42606795
-10.19212,-2.0728923999999997,-0.42606795
-9.885734,-2.5516202,0.71330476
-9.885734,-2.5516202,0.71330476
-9.885734,-2.5516202,0.71330476
-9.885734,-2.5516202,0.71330476
-10.862339,-2.5420458,3.6335455999999997
-10.862339,-2.5420458,3.6335455999999997
-10.862339,-2.5420458,3.6335455999999997
-10.862339,-2.5420458,3.6335455999999997
-7.5399666,-0.3877697,2.7431116
-7.5399666,-0.3877697,2.7431116
-7.5399666,-0.3877697,2.7431116
-7.5399666,-0.3877697,2.7431116
-7.022939999999999,-0.69415563,2.8388572
-7.022939999999999,-0.69415563,2.8388572
-7.022939999999999,-0.69415563,2.8388572
-7.022939999999999,-0.69415563,2.8388572
-9.3878565,-2.9633265,1.0675635
-9.3878565,-2.9633265,1.0675635
-9.3878565,-2.9633265,1.0675635
-9.3878565,-2.9633265,1.0675635
-11.1208515,-3.8824842000000004,0.71330476
-11.1208515,-3.8824842000000004,0.71330476
-11.1208515,-3.8824842000000004,0.71330476
-11.1208515,-3.8824842000000004,0.71330476
-11.207023,-3.2218397000000003,0.59841
-11.207023,-3.2218397000000003,0.59841
-11.207023,-3.2218397000000003,0.59841
-11.207023,-3.2218397000000003,0.59841
-12.7964,-3.6335455999999997,1.0005416
-12.7964,-3.6335455999999997,1.0005416
-12.7964,-3.6335455999999997,1.0005416
-12.7964,-3.6335455999999997,1.0005416
-10.919786,-4.3324885,1.9962958
-10.919786,-4.3324885,1.9962958
-10.919786,-4.3324885,1.9962958
-10.919786,-4.3324885,1.9962958
-12.097457,-3.5760984,0.6271336999999999
-12.097457,-3.5760984,0.6271336999999999
-12.097457,-3.5760984,0.6271336999999999
-12.097457,-3.5760984,0.6271336999999999
-10.527229,-1.3643749,1.0771381000000002
-10.527229,-1.3643749,1.0771381000000002
-10.527229,-1.3643749,1.0771381000000002
-10.527229,-1.3643749,1.0771381000000002
-9.3878565,0.023936402000000002,2.3505547000000004
-9.3878565,0.023936402000000002,2.3505547000000004
-9.3878565,0.023936402000000002,2.3505547000000004
-9.3878565,0.023936402000000002,2.3505547000000004
-8.708063000000001,-0.8952214,1.5654407
-8.708063000000001,-0.8952214,1.5654407
-8.708063000000001,-0.8952214,1.5654407
-8.708063000000001,-0.8952214,1.5654407
-7.7984796,-1.7186337,0.90479594
-7.7984796,-1.7186337,0.90479594
-7.7984796,-1.7186337,0.90479594
-7.7984796,-1.7186337,0.90479594
-8.420826,-2.2069361,0.49308985
-8.420826,-2.2069361,0.49308985
-8.420826,-2.2069361,0.49308985
-8.420826,-2.2069361,0.49308985
-10.450633,-2.2835326,0.359046
-10.450633,-2.2835326,0.359046
-10.450633,-2.2835326,0.359046
-10.450633,-2.2835326,0.359046
-10.048501,-2.5037475,1.1537346000000002
-10.048501,-2.5037475,1.1537346000000002
-10.048501,-2.5037475,1.1537346000000002
-10.048501,-2.5037475,1.1537346000000002
-11.609155,-1.6420371999999999,1.6611862000000002
-11.609155,-1.6420371999999999,1.6611862000000002
-11.609155,-1.6420371999999999,1.6611862000000002
-11.609155,-1.6420371999999999,1.6611862000000002
-8.870830999999999,-1.4313968000000001,1.9388485
-8.870830999999999,-1.4313968000000001,1.9388485
-8.870830999999999,-1.4313968000000001,1.9388485
-8.870830999999999,-1.4313968000000001,1.9388485
-6.5537868,-1.2016073,2.2739582
-6.5537868,-1.2016073,2.2739582
-6.5537868,-1.2016073,2.2739582
-6.5537868,-1.2016073,2.2739582
-6.5537868,-1.2016073,2.2739582
-7.855927,-2.3792782000000003,1.1154363
-7.855927,-2.3792782000000003,1.1154363
-7.855927,-2.3792782000000003,1.1154363
-9.368708,-2.7814097,1.3548003
-9.368708,-2.7814097,1.3548003
-9.368708,-2.7814097,1.3548003
-9.368708,-2.7814097,1.3548003
-11.570856,-3.4899273,1.2111819
-11.570856,-3.4899273,1.2111819
-11.570856,-3.4899273,1.2111819
-11.570856,-3.4899273,1.2111819
-11.570856,-3.4899273,1.2111819
-13.141085,-4.466532,1.14416
-13.141085,-4.466532,1.14416
-13.141085,-4.466532,1.14416
-10.058076,-3.4707782,2.2931072999999995
-10.058076,-3.4707782,2.2931072999999995
-10.058076,-3.4707782,2.2931072999999995
-10.058076,-3.4707782,2.2931072999999995
-10.058076,-3.4707782,2.2931072999999995
-10.737869,-3.3750327000000007,1.9292740000000002
-10.737869,-3.3750327000000007,1.9292740000000002
-10.737869,-3.3750327000000007,1.9292740000000002
-10.737869,-3.3750327000000007,1.9292740000000002
-11.207023,-2.4175766,1.2973529
-11.207023,-2.4175766,1.2973529
-11.207023,-2.4175766,1.2973529
-10.163396,-0.665432,2.101616
-10.163396,-0.665432,2.101616
-10.163396,-0.665432,2.101616
-10.163396,-0.665432,2.101616
-10.163396,-0.665432,2.101616
-9.330409,-0.6558574,1.7282081999999999
-9.330409,-0.6558574,1.7282081999999999
-9.330409,-0.6558574,1.7282081999999999
-9.330409,-0.6558574,1.7282081999999999
-8.21976,-1.2016073,1.0292653
-8.21976,-1.2016073,1.0292653
-8.21976,-1.2016073,1.0292653
-8.21976,-1.2016073,1.0292653
-7.7123084,-1.9579976000000003,0.359046
-7.7123084,-1.9579976000000003,0.359046
-7.7123084,-1.9579976000000003,0.359046
-7.7123084,-1.9579976000000003,0.359046
-8.650616000000001,-2.733537,0.40691882
-8.650616000000001,-2.733537,0.40691882
-8.650616000000001,-2.733537,0.40691882
-8.650616000000001,-2.733537,0.40691882
-10.642124,-1.7186337,1.1728836
-10.642124,-1.7186337,1.1728836
-10.642124,-1.7186337,1.1728836
-10.642124,-1.7186337,1.1728836
-11.408089,-1.9962958,2.0633178
-11.408089,-1.9962958,2.0633178
-11.408089,-1.9962958,2.0633178
-11.408089,-1.9962958,2.0633178
-9.828286,-1.6324625,2.6856642
-9.828286,-1.6324625,2.6856642
-9.828286,-1.6324625,2.6856642
-9.828286,-1.6324625,2.6856642
-7.4537954,-1.1920328000000002,2.2643836
-7.4537954,-1.1920328000000002,2.2643836
-7.4537954,-1.1920328000000002,2.2643836
-7.4537954,-1.1920328000000002,2.2643836
-7.9133744,-2.0728923999999997,1.2686293
-7.9133744,-2.0728923999999997,1.2686293
-7.9133744,-2.0728923999999997,1.2686293
-7.9133744,-2.0728923999999997,1.2686293
-9.655944,-3.0877957,1.1633091
-9.655944,-3.0877957,1.1633091
-9.655944,-3.0877957,1.1633091
-9.655944,-3.0877957,1.1633091
-10.92936,-3.193116,1.776081
-10.92936,-3.193116,1.776081
-10.92936,-3.193116,1.776081
-10.92936,-3.193116,1.776081
-12.604909,-3.3367343000000003,1.6899098999999997
-12.604909,-3.3367343000000003,1.6899098999999997
-12.604909,-3.3367343000000003,1.6899098999999997
-12.604909,-3.3367343000000003,1.6899098999999997
-11.838944,-3.777164,1.8335283
-11.838944,-3.777164,1.8335283
-11.838944,-3.777164,1.8335283
-11.838944,-3.777164,1.8335283
-9.071896,-4.3516379999999995,1.9388485
-9.071896,-4.3516379999999995,1.9388485
-9.071896,-4.3516379999999995,1.9388485
-9.071896,-4.3516379999999995,1.9388485
-12.068733,-2.8101335,0.8186249
-12.068733,-2.8101335,0.8186249
-12.068733,-2.8101335,0.8186249
-12.068733,-2.8101335,0.8186249
-11.800646,-0.76117754,1.3165021000000001
-11.800646,-0.76117754,1.3165021000000001
-11.800646,-0.76117754,1.3165021000000001
-11.800646,-0.76117754,1.3165021000000001
-10.345312,-0.3111732,1.8909756999999998
-10.345312,-0.3111732,1.8909756999999998
-10.345312,-0.3111732,1.8909756999999998
-10.345312,-0.3111732,1.8909756999999998
-9.052747,-1.2399056,0.9718179
-9.052747,-1.2399056,0.9718179
-9.052747,-1.2399056,0.9718179
-9.052747,-1.2399056,0.9718179
-7.616563,-1.9292740000000002,0.2154276
-7.616563,-1.9292740000000002,0.2154276
-7.616563,-1.9292740000000002,0.2154276
-7.616563,-1.9292740000000002,0.2154276
-7.6740103,-2.1399142999999996,0.27287498
-7.6740103,-2.1399142999999996,0.27287498
-7.6740103,-2.1399142999999996,0.27287498
-7.6740103,-2.1399142999999996,0.27287498
-9.837861,-2.1782124,0.665432
-9.837861,-2.1782124,0.665432
-9.837861,-2.1782124,0.665432
-9.837861,-2.1782124,0.665432
-9.655944,-2.5516202,1.8239537000000001
-9.655944,-2.5516202,1.8239537000000001
-9.655944,-2.5516202,1.8239537000000001
-9.655944,-2.5516202,1.8239537000000001
-11.044255,-1.9005502,3.0111992
-11.044255,-1.9005502,3.0111992
-11.044255,-1.9005502,3.0111992
-11.044255,-1.9005502,3.0111992
-9.569773,-0.7228793,2.360129
-9.569773,-0.7228793,2.360129
-9.569773,-0.7228793,2.360129
-9.569773,-0.7228793,2.360129
-7.7793303,-0.56011176,2.9920502
-7.7793303,-0.56011176,2.9920502
-7.7793303,-0.56011176,2.9920502
-7.7793303,-0.56011176,2.9920502
-8.363379,-2.1111906000000005,1.5941644
-8.363379,-2.1111906000000005,1.5941644
-8.363379,-2.1111906000000005,1.5941644
-8.363379,-2.1111906000000005,1.5941644
-8.363379,-2.1111906000000005,1.5941644
-9.474028,-3.1548176,1.7569318999999999
-9.474028,-3.1548176,1.7569318999999999
-9.474028,-3.1548176,1.7569318999999999
-9.98148,-2.8484317999999997,1.9196993000000002
-9.98148,-2.8484317999999997,1.9196993000000002
-9.98148,-2.8484317999999997,1.9196993000000002
-9.98148,-2.8484317999999997,1.9196993000000002
-12.872996,-3.2218397000000003,1.6899098999999997
-12.872996,-3.2218397000000003,1.6899098999999997
-12.872996,-3.2218397000000003,1.6899098999999997
-12.872996,-3.2218397000000003,1.6899098999999997
-12.872996,-3.2218397000000003,1.6899098999999997
-12.480439,-3.671844,1.862252
-12.480439,-3.671844,1.862252
-12.480439,-3.671844,1.862252
-10.105948,-3.777164,1.4409714
-10.105948,-3.777164,1.4409714
-10.105948,-3.777164,1.4409714
-10.105948,-3.777164,1.4409714
-10.105948,-3.777164,1.4409714
-10.335738000000001,-2.513322,0.3877697
-10.335738000000001,-2.513322,0.3877697
-10.335738000000001,-2.513322,0.3877697
-10.335738000000001,-2.513322,0.3877697
-9.5889225,-0.8856468000000001,1.5941644
-9.5889225,-0.8856468000000001,1.5941644
-9.5889225,-0.8856468000000001,1.5941644
-9.301685,-0.9718179,1.4601203999999999
-9.301685,-0.9718179,1.4601203999999999
-9.301685,-0.9718179,1.4601203999999999
-9.301685,-0.9718179,1.4601203999999999
-9.301685,-0.9718179,1.4601203999999999
-8.583592999999999,-1.4409714,0.9526688
-8.583592999999999,-1.4409714,0.9526688
-8.583592999999999,-1.4409714,0.9526688
-8.583592999999999,-1.4409714,0.9526688
-7.022939999999999,-1.709059,0.91437054
-7.022939999999999,-1.709059,0.91437054
-7.022939999999999,-1.709059,0.91437054
-8.506997,-2.254809,1.0101161
-8.506997,-2.254809,1.0101161
-8.506997,-2.254809,1.0101161
-8.506997,-2.254809,1.0101161
-11.321918,-2.254809,1.6611862000000002
-11.321918,-2.254809,1.6611862000000002
-11.321918,-2.254809,1.6611862000000002
-11.321918,-2.254809,1.6611862000000002
-10.766592999999999,-1.9675721999999998,3.0207740000000003
-10.766592999999999,-1.9675721999999998,3.0207740000000003
-10.766592999999999,-1.9675721999999998,3.0207740000000003
-10.766592999999999,-1.9675721999999998,3.0207740000000003
-10.977234,-0.90479594,2.2739582
-10.977234,-0.90479594,2.2739582
-10.977234,-0.90479594,2.2739582
-10.977234,-0.90479594,2.2739582
-8.497422,-1.469695,2.1782124
-8.497422,-1.469695,2.1782124
-8.497422,-1.469695,2.1782124
-8.497422,-1.469695,2.1782124
-6.946343400000001,-1.7186337,1.2590546999999999
-6.946343400000001,-1.7186337,1.2590546999999999
-6.946343400000001,-1.7186337,1.2590546999999999
-6.946343400000001,-1.7186337,1.2590546999999999
-8.171887,-3.2792869,-0.11968201
-8.171887,-3.2792869,-0.11968201
-8.171887,-3.2792869,-0.11968201
-8.171887,-3.2792869,-0.11968201
-9.368708,-3.039923,0.7324539000000001
-9.368708,-3.039923,0.7324539000000001
-9.368708,-3.039923,0.7324539000000001
-9.368708,-3.039923,0.7324539000000001
-10.575102000000001,-2.8101335,1.3069274
-10.575102000000001,-2.8101335,1.3069274
-10.575102000000001,-2.8101335,1.3069274
-10.575102000000001,-2.8101335,1.3069274
-13.619812,-3.4324798999999997,1.0962871
-13.619812,-3.4324798999999997,1.0962871
-13.619812,-3.4324798999999997,1.0962871
-13.619812,-3.4324798999999997,1.0962871
-11.542132,-3.8537605000000004,2.2452345
-11.542132,-3.8537605000000004,2.2452345
-11.542132,-3.8537605000000004,2.2452345
-11.542132,-3.8537605000000004,2.2452345
-10.450633,-3.1356685,1.6516117
-10.450633,-3.1356685,1.6516117
-10.450633,-3.1356685,1.6516117
-10.450633,-3.1356685,1.6516117
-10.450633,-3.1356685,1.6516117
-10.345312,-1.5175678999999997,1.5558661
-10.345312,-1.5175678999999997,1.5558661
-10.345312,-1.5175678999999997,1.5558661
-10.172971,-0.36862057,2.1782124
-10.172971,-0.36862057,2.1782124
-10.172971,-0.36862057,2.1782124
-10.172971,-0.36862057,2.1782124
-9.407005,-1.2973529,1.1537346000000002
-9.407005,-1.2973529,1.1537346000000002
-9.407005,-1.2973529,1.1537346000000002
-9.407005,-1.2973529,1.1537346000000002
-9.407005,-1.2973529,1.1537346000000002
-8.066567,-1.5175678999999997,0.93351966
-8.066567,-1.5175678999999997,0.93351966
-8.066567,-1.5175678999999997,0.93351966
-7.0995364,-1.2973529,0.77075213
-7.0995364,-1.2973529,0.77075213
-7.0995364,-1.2973529,0.77075213
-7.0995364,-1.2973529,0.77075213
-7.0995364,-1.2973529,0.77075213
-8.631466,-1.6133133999999998,0.71330476
-8.631466,-1.6133133999999998,0.71330476
-8.631466,-1.6133133999999998,0.71330476
-8.631466,-1.6133133999999998,0.71330476
-10.919786,-2.2739582,0.5792609000000001
-10.919786,-2.2739582,0.5792609000000001
-10.919786,-2.2739582,0.5792609000000001
-9.397431,-2.8101335,2.513322
-9.397431,-2.8101335,2.513322
-9.397431,-2.8101335,2.513322
-9.397431,-2.8101335,2.513322
-9.397431,-2.8101335,2.513322
-10.680422,-2.321831,1.7377827000000001
-10.680422,-2.321831,1.7377827000000001
-10.680422,-2.321831,1.7377827000000001
-10.680422,-2.321831,1.7377827000000001
-8.641041,-1.0484143,2.1590632999999997
-8.641041,-1.0484143,2.1590632999999997
-8.641041,-1.0484143,2.1590632999999997
-8.641041,-1.0484143,2.1590632999999997
-8.1623125,-1.2494801000000002,2.0920415
-8.1623125,-1.2494801000000002,2.0920415
-8.1623125,-1.2494801000000002,2.0920415
-8.1623125,-1.2494801000000002,2.0920415
-8.928278,-2.1782124,1.5271424
-8.928278,-2.1782124,1.5271424
-8.928278,-2.1782124,1.5271424
-8.928278,-2.1782124,1.5271424
-9.091045,-2.800559,1.2973529
-9.091045,-2.800559,1.2973529
-9.091045,-2.800559,1.2973529
-9.091045,-2.800559,1.2973529
-12.288948,-3.9399316,0.8664976999999999
-12.288948,-3.9399316,0.8664976999999999
-12.288948,-3.9399316,0.8664976999999999
-12.288948,-3.9399316,0.8664976999999999
-12.681505,-4.6388745,1.4505458999999998
-12.681505,-4.6388745,1.4505458999999998
-12.681505,-4.6388745,1.4505458999999998
-12.681505,-4.6388745,1.4505458999999998
-11.637878,-3.3654580000000003,1.7282081999999999
-11.637878,-3.3654580000000003,1.7282081999999999
-11.637878,-3.3654580000000003,1.7282081999999999
-11.637878,-3.3654580000000003,1.7282081999999999
-10.910212,-2.3314054,0.5313880999999999
-10.910212,-2.3314054,0.5313880999999999
-10.910212,-2.3314054,0.5313880999999999
-10.910212,-2.3314054,0.5313880999999999
-9.368708,-0.751603,1.862252
-9.368708,-0.751603,1.862252
-9.368708,-0.751603,1.862252
-9.368708,-0.751603,1.862252
-8.899554,-0.9430941999999999,1.6994845
-8.899554,-0.9430941999999999,1.6994845
-8.899554,-0.9430941999999999,1.6994845
-8.899554,-0.9430941999999999,1.6994845
-8.55487,-1.5079931999999998,1.0771381000000002
-8.55487,-1.5079931999999998,1.0771381000000002
-8.55487,-1.5079931999999998,1.0771381000000002
-8.55487,-1.5079931999999998,1.0771381000000002
-7.587839,-1.5845897,0.8856468000000001
-7.587839,-1.5845897,0.8856468000000001
-7.587839,-1.5845897,0.8856468000000001
-7.587839,-1.5845897,0.8856468000000001
-8.430401,-1.8239537000000001,1.0675635
-8.430401,-1.8239537000000001,1.0675635
-8.430401,-1.8239537000000001,1.0675635
-8.430401,-1.8239537000000001,1.0675635
-11.513409,-2.168638,1.3356511999999998
-11.513409,-2.168638,1.3356511999999998
-11.513409,-2.168638,1.3356511999999998
-11.513409,-2.168638,1.3356511999999998
-10.71872,-2.34098,2.8484317999999997
-10.71872,-2.34098,2.8484317999999997
-10.71872,-2.34098,2.8484317999999997
-10.71872,-2.34098,2.8484317999999997
-9.780414,-0.9718179,1.8814011999999998
-9.780414,-0.9718179,1.8814011999999998
-9.780414,-0.9718179,1.8814011999999998
-9.780414,-0.9718179,1.8814011999999998
-8.34423,-1.4792696,1.4792696
-8.34423,-1.4792696,1.4792696
-8.34423,-1.4792696,1.4792696
-8.34423,-1.4792696,1.4792696
-7.846352,-2.0633178,1.2016073
-7.846352,-2.0633178,1.2016073
-7.846352,-2.0633178,1.2016073
-7.846352,-2.0633178,1.2016073
-9.071896,-3.2409887000000004,0.6750065
-9.071896,-3.2409887000000004,0.6750065
-9.071896,-3.2409887000000004,0.6750065
-9.071896,-3.2409887000000004,0.6750065
-9.732541000000001,-2.905879,1.3930986
-9.732541000000001,-2.905879,1.3930986
-9.732541000000001,-2.905879,1.3930986
-9.732541000000001,-2.905879,1.3930986
-11.15915,-2.561195,1.5654407
-11.15915,-2.561195,1.5654407
-11.15915,-2.561195,1.5654407
-11.15915,-2.561195,1.5654407
-12.882571,-3.6335455999999997,1.7473572
-12.882571,-3.6335455999999997,1.7473572
-12.882571,-3.6335455999999997,1.7473572
-12.882571,-3.6335455999999997,1.7473572
-10.891063,-4.0548263,2.3984275
-10.891063,-4.0548263,2.3984275
-10.891063,-4.0548263,2.3984275
-10.891063,-4.0548263,2.3984275
-10.737869,-2.905879,0.9526688
-10.737869,-2.905879,0.9526688
-10.737869,-2.905879,0.9526688
-10.737869,-2.905879,0.9526688
-10.460207,-1.6994845,1.1345854
-10.460207,-1.6994845,1.1345854
-10.460207,-1.6994845,1.1345854
-10.460207,-1.6994845,1.1345854
-10.460207,-1.6994845,1.1345854
-9.349558,-0.71330476,1.9005502
-9.349558,-0.71330476,1.9005502
-9.349558,-0.71330476,1.9005502
-9.024023,-1.3356511999999998,1.1633091
-9.024023,-1.3356511999999998,1.1633091
-9.024023,-1.3356511999999998,1.1633091
-9.024023,-1.3356511999999998,1.1633091
-8.401677000000001,-1.4505458999999998,0.8952214
-8.401677000000001,-1.4505458999999998,0.8952214
-8.401677000000001,-1.4505458999999998,0.8952214
-8.401677000000001,-1.4505458999999998,0.8952214
-8.401677000000001,-1.4505458999999998,0.8952214
-8.171887,-1.4122477,0.6271336999999999
-8.171887,-1.4122477,0.6271336999999999
-8.171887,-1.4122477,0.6271336999999999
-10.06765,-2.1111906000000005,0.34947145
-10.06765,-2.1111906000000005,0.34947145
-10.06765,-2.1111906000000005,0.34947145
-10.06765,-2.1111906000000005,0.34947145
-10.06765,-2.1111906000000005,0.34947145
-10.757019,-1.9867213,1.1058618
-10.757019,-1.9867213,1.1058618
-10.757019,-1.9867213,1.1058618
-10.757019,-1.9867213,1.1058618
-9.85701,-2.321831,2.4654493
-9.85701,-2.321831,2.4654493
-9.85701,-2.321831,2.4654493
-9.560199,-2.0728923999999997,1.7569318999999999
-9.560199,-2.0728923999999997,1.7569318999999999
-9.560199,-2.0728923999999997,1.7569318999999999
-9.560199,-2.0728923999999997,1.7569318999999999
-7.8846507,-0.8856468000000001,2.905879
-7.8846507,-0.8856468000000001,2.905879
-7.8846507,-0.8856468000000001,2.905879
-7.8846507,-0.8856468000000001,2.905879
-7.8846507,-0.8856468000000001,2.905879
-7.7793303,-1.6324625,1.9101248
-7.7793303,-1.6324625,1.9101248
-7.7793303,-1.6324625,1.9101248
-7.7793303,-1.6324625,1.9101248
-9.464453,-2.5803439999999997,1.3165021000000001
-9.464453,-2.5803439999999997,1.3165021000000001
-9.464453,-2.5803439999999997,1.3165021000000001
-9.41658,-2.8197080000000003,1.4313968000000001
-9.41658,-2.8197080000000003,1.4313968000000001
-9.41658,-2.8197080000000003,1.4313968000000001
-9.41658,-2.8197080000000003,1.4313968000000001
-9.41658,-2.8197080000000003,1.4313968000000001
-11.896391,-3.5569491,1.5367169
-11.896391,-3.5569491,1.5367169
-11.896391,-3.5569491,1.5367169
-11.896391,-3.5569491,1.5367169
-12.509163000000001,-4.102699299999999,1.3643749
-12.509163000000001,-4.102699299999999,1.3643749
-12.509163000000001,-4.102699299999999,1.3643749
-9.598496,-3.384607,1.9867213
-9.598496,-3.384607,1.9867213
-9.598496,-3.384607,1.9867213
-9.598496,-3.384607,1.9867213
-9.598496,-3.384607,1.9867213
-11.915541000000001,-3.2505634,1.0101161
-11.915541000000001,-3.2505634,1.0101161
-11.915541000000001,-3.2505634,1.0101161
-11.915541000000001,-3.2505634,1.0101161
-11.130426,-1.2877783999999999,1.4026731000000001
-11.130426,-1.2877783999999999,1.4026731000000001
-11.130426,-1.2877783999999999,1.4026731000000001
-11.130426,-1.2877783999999999,1.4026731000000001
-10.546378,-0.14840569,2.101616
-10.546378,-0.14840569,2.101616
-10.546378,-0.14840569,2.101616
-10.546378,-0.14840569,2.101616
-8.976150500000001,-0.8281995000000001,1.1154363
-8.976150500000001,-0.8281995000000001,1.1154363
-8.976150500000001,-0.8281995000000001,1.1154363
-8.976150500000001,-0.8281995000000001,1.1154363
-6.831449,-1.2782038,0.9430941999999999
-6.831449,-1.2782038,0.9430941999999999
-6.831449,-1.2782038,0.9430941999999999
-6.831449,-1.2782038,0.9430941999999999
-6.649532300000001,-2.0633178,0.5888355
-6.649532300000001,-2.0633178,0.5888355
-6.649532300000001,-2.0633178,0.5888355
-6.649532300000001,-2.0633178,0.5888355
-10.000628,-2.4463003,0.76117754
-10.000628,-2.4463003,0.76117754
-10.000628,-2.4463003,0.76117754
-10.000628,-2.4463003,0.76117754
-11.905966000000001,-2.254809,2.3984275
-11.905966000000001,-2.254809,2.3984275
-11.905966000000001,-2.254809,2.3984275
-11.905966000000001,-2.254809,2.3984275
-11.982562,-0.8760723,3.3654580000000003
-11.982562,-0.8760723,3.3654580000000003
-11.982562,-0.8760723,3.3654580000000003
-11.982562,-0.8760723,3.3654580000000003
-8.832532,-0.43564250000000004,1.5367169
-8.832532,-0.43564250000000004,1.5367169
-8.832532,-0.43564250000000004,1.5367169
-8.832532,-0.43564250000000004,1.5367169
-7.875075999999999,-1.7665064,1.0962871
-7.875075999999999,-1.7665064,1.0962871
-7.875075999999999,-1.7665064,1.0962871
-7.875075999999999,-1.7665064,1.0962871
-9.20594,-3.4229053999999994,0.19627848
-9.20594,-3.4229053999999994,0.19627848
-9.20594,-3.4229053999999994,0.19627848
-9.20594,-3.4229053999999994,0.19627848
-10.134672,-3.1452432,0.78990126
-10.134672,-3.1452432,0.78990126
-10.134672,-3.1452432,0.78990126
-10.134672,-3.1452432,0.78990126
-9.493176,-2.5803439999999997,1.9962958
-9.493176,-2.5803439999999997,1.9962958
-9.493176,-2.5803439999999997,1.9962958
-9.493176,-2.5803439999999997,1.9962958
-12.614484,-3.2505634,1.6707608
-12.614484,-3.2505634,1.6707608
-12.614484,-3.2505634,1.6707608
-12.614484,-3.2505634,1.6707608
-11.609155,-4.696322,1.4888442
-11.609155,-4.696322,1.4888442
-11.609155,-4.696322,1.4888442
-11.609155,-4.696322,1.4888442
-10.125097,-3.518651,0.8760723
-10.125097,-3.518651,0.8760723
-10.125097,-3.518651,0.8760723
-10.125097,-3.518651,0.8760723
-11.858092999999998,-2.2835326,0.023936402000000002
-11.858092999999998,-2.2835326,0.023936402000000002
-11.858092999999998,-2.2835326,0.023936402000000002
-11.858092999999998,-2.2835326,0.023936402000000002
-10.737869,-1.0196906,1.4122477
-10.737869,-1.0196906,1.4122477
-10.737869,-1.0196906,1.4122477
-10.737869,-1.0196906,1.4122477
-10.737869,-1.0196906,1.4122477
-9.7899885,-1.383524,1.2207563999999997
-9.7899885,-1.383524,1.2207563999999997
-9.7899885,-1.383524,1.2207563999999997
-8.698488000000001,-1.5271424,0.44521707
-8.698488000000001,-1.5271424,0.44521707
-8.698488000000001,-1.5271424,0.44521707
-8.698488000000001,-1.5271424,0.44521707
-7.0612383,-0.9718179,0.99096704
-7.0612383,-0.9718179,0.99096704
-7.0612383,-0.9718179,0.99096704
-7.0612383,-0.9718179,0.99096704
-7.0612383,-0.9718179,0.99096704
-6.936769,-1.5941644,1.1920328000000002
-6.936769,-1.5941644,1.1920328000000002
-6.936769,-1.5941644,1.1920328000000002
-9.225089,-2.408002,1.6228879999999999
-9.225089,-2.408002,1.6228879999999999
-9.225089,-2.408002,1.6228879999999999
-9.225089,-2.408002,1.6228879999999999
-11.168725,-2.1782124,2.8101335
-11.168725,-2.1782124,2.8101335
-11.168725,-2.1782124,2.8101335
-11.168725,-2.1782124,2.8101335
-11.168725,-2.1782124,2.8101335
-12.480439,-1.4984187,3.2218397000000003
-12.480439,-1.4984187,3.2218397000000003
-12.480439,-1.4984187,3.2218397000000003
-10.29744,-0.7324539000000001,1.2399056
-10.29744,-0.7324539000000001,1.2399056
-10.29744,-0.7324539000000001,1.2399056
-10.29744,-0.7324539000000001,1.2399056
-8.612317,-0.9430941999999999,1.6133133999999998
-8.612317,-0.9430941999999999,1.6133133999999998
-8.612317,-0.9430941999999999,1.6133133999999998
-8.612317,-0.9430941999999999,1.6133133999999998
-8.612317,-0.9430941999999999,1.6133133999999998
-8.21976,-2.34098,0.3398969
-8.21976,-2.34098,0.3398969
-8.21976,-2.34098,0.3398969
-8.21976,-2.34098,0.3398969
-8.401677000000001,-3.3271596,-0.28244954
-8.401677000000001,-3.3271596,-0.28244954
-8.401677000000001,-3.3271596,-0.28244954
-8.2676325,-3.1452432,0.14840569
-8.2676325,-3.1452432,0.14840569
-8.2676325,-3.1452432,0.14840569
-8.2676325,-3.1452432,0.14840569
-8.2676325,-3.1452432,0.14840569
-11.197449,-3.4803526,0.91437054
-11.197449,-3.4803526,0.91437054
-11.197449,-3.4803526,0.91437054
-11.197449,-3.4803526,0.91437054
-14.720885999999998,-5.2133484,1.4313968000000001
-14.720885999999998,-5.2133484,1.4313968000000001
-14.720885999999998,-5.2133484,1.4313968000000001
-10.163396,-3.4420545,2.1303396
-10.163396,-3.4420545,2.1303396
-10.163396,-3.4420545,2.1303396
-10.163396,-3.4420545,2.1303396
-10.163396,-3.4420545,2.1303396
-11.207023,-1.5654407,2.0920415
-11.207023,-1.5654407,2.0920415
-11.207023,-1.5654407,2.0920415
-11.207023,-1.5654407,2.0920415
-11.26447,-1.1824582000000001,1.9005502
-11.26447,-1.1824582000000001,1.9005502
-11.26447,-1.1824582000000001,1.9005502
-10.431483,-0.6558574,2.3888528
-10.431483,-0.6558574,2.3888528
-10.431483,-0.6558574,2.3888528
-10.431483,-0.6558574,2.3888528
-10.431483,-0.6558574,2.3888528
-9.043172,-1.0101161,0.6271336999999999
-9.043172,-1.0101161,0.6271336999999999
-9.043172,-1.0101161,0.6271336999999999
-9.043172,-1.0101161,0.6271336999999999
-7.769756,-1.3643749,0.76117754
-7.769756,-1.3643749,0.76117754
-7.769756,-1.3643749,0.76117754
-7.769756,-1.3643749,0.76117754
-7.4537954,-1.4601203999999999,0.78032666
-7.4537954,-1.4601203999999999,0.78032666
-7.4537954,-1.4601203999999999,0.78032666
-7.4537954,-1.4601203999999999,0.78032666
-8.727212,-1.9196993000000002,0.18670394
-8.727212,-1.9196993000000002,0.18670394
-8.727212,-1.9196993000000002,0.18670394
-8.727212,-1.9196993000000002,0.18670394
-10.077225,-2.7431116,0.56968635
-10.077225,-2.7431116,0.56968635
-10.077225,-2.7431116,0.56968635
-10.077225,-2.7431116,0.56968635
-10.6134,-3.0207740000000003,2.3792782000000003
-10.6134,-3.0207740000000003,2.3792782000000003
-10.6134,-3.0207740000000003,2.3792782000000003
-10.6134,-3.0207740000000003,2.3792782000000003
-10.29744,-1.7186337,1.7665064
-10.29744,-1.7186337,1.7665064
-10.29744,-1.7186337,1.7665064
-10.29744,-1.7186337,1.7665064
-9.339984,-0.7994758000000001,2.7048132000000003
-9.339984,-0.7994758000000001,2.7048132000000003
-9.339984,-0.7994758000000001,2.7048132000000003
-9.339984,-0.7994758000000001,2.7048132000000003
-9.119769,-1.2494801000000002,2.360129
-9.119769,-1.2494801000000002,2.360129
-9.119769,-1.2494801000000002,2.360129
-9.119769,-1.2494801000000002,2.360129
-9.062322,-2.408002,1.3260766000000002
-9.062322,-2.408002,1.3260766000000002
-9.062322,-2.408002,1.3260766000000002
-9.062322,-2.408002,1.3260766000000002
-9.31126,-4.150572,-0.20585304
-9.31126,-4.150572,-0.20585304
-9.31126,-4.150572,-0.20585304
-9.31126,-4.150572,-0.20585304
-11.408089,-5.309094,-0.70373017
-11.408089,-5.309094,-0.70373017
-11.408089,-5.309094,-0.70373017
-11.408089,-5.309094,-0.70373017
-11.465536,-4.9835587,0.36862057
-11.465536,-4.9835587,0.36862057
-11.465536,-4.9835587,0.36862057
-11.465536,-4.9835587,0.36862057
-12.231501,-4.121848,0.4164934
-12.231501,-4.121848,0.4164934
-12.231501,-4.121848,0.4164934
-12.231501,-4.121848,0.4164934
-12.557036,-1.3069274,0.45479164
-12.557036,-1.3069274,0.45479164
-12.557036,-1.3069274,0.45479164
-12.557036,-1.3069274,0.45479164
-11.436812,0.014361841,1.9101248
-11.436812,0.014361841,1.9101248
-11.436812,0.014361841,1.9101248
-11.436812,0.014361841,1.9101248
-10.354887,-0.92394507,2.2739582
-10.354887,-0.92394507,2.2739582
-10.354887,-0.92394507,2.2739582
-10.354887,-0.92394507,2.2739582
-9.31126,-1.5941644,1.1250108
-9.31126,-1.5941644,1.1250108
-9.31126,-1.5941644,1.1250108
-9.31126,-1.5941644,1.1250108
-7.731457700000001,-1.3643749,0.5888355
-7.731457700000001,-1.3643749,0.5888355
-7.731457700000001,-1.3643749,0.5888355
-7.731457700000001,-1.3643749,0.5888355
-7.731457700000001,-1.3643749,0.5888355
-6.1229315,-1.9962958,1.3260766000000002
-6.1229315,-1.9962958,1.3260766000000002
-6.1229315,-1.9962958,1.3260766000000002
-8.00912,-1.6516117,2.0441686999999997
-8.00912,-1.6516117,2.0441686999999997
-8.00912,-1.6516117,2.0441686999999997
-8.00912,-1.6516117,2.0441686999999997
-8.4686985,-1.8814011999999998,1.9675721999999998
-8.4686985,-1.8814011999999998,1.9675721999999998
-8.4686985,-1.8814011999999998,1.9675721999999998
-8.4686985,-1.8814011999999998,1.9675721999999998
-8.4686985,-1.8814011999999998,1.9675721999999998
-13.323001000000001,-1.9675721999999998,2.4367256
-13.323001000000001,-1.9675721999999998,2.4367256
-13.323001000000001,-1.9675721999999998,2.4367256
-12.8538475,-1.9005502,1.7186337
-12.8538475,-1.9005502,1.7186337
-12.8538475,-1.9005502,1.7186337
-12.8538475,-1.9005502,1.7186337
-9.569773,-1.7856555,1.8431028999999999
-9.569773,-1.7856555,1.8431028999999999
-9.569773,-1.7856555,1.8431028999999999
-9.569773,-1.7856555,1.8431028999999999
-9.569773,-1.7856555,1.8431028999999999
-9.407005,-1.6516117,1.0579889
-9.407005,-1.6516117,1.0579889
-9.407005,-1.6516117,1.0579889
-9.407005,-1.6516117,1.0579889
-9.177217,-3.3367343000000003,1.4313968000000001
-9.177217,-3.3367343000000003,1.4313968000000001
-9.177217,-3.3367343000000003,1.4313968000000001
-10.584677000000001,-4.7058964,0.0718092
-10.584677000000001,-4.7058964,0.0718092
-10.584677000000001,-4.7058964,0.0718092
-10.584677000000001,-4.7058964,0.0718092
-10.584677000000001,-4.7058964,0.0718092
-11.925115,-6.151655,0.014361841
-11.925115,-6.151655,0.014361841
-11.925115,-6.151655,0.014361841
-11.925115,-6.151655,0.014361841
-10.29744,-3.3367343000000003,1.7952299999999999
-10.29744,-3.3367343000000003,1.7952299999999999
-10.29744,-3.3367343000000003,1.7952299999999999
-12.327247,-3.8537605000000004,0.8664976999999999
-12.327247,-3.8537605000000004,0.8664976999999999
-12.327247,-3.8537605000000004,0.8664976999999999
-12.327247,-3.8537605000000004,0.8664976999999999
-12.327247,-3.8537605000000004,0.8664976999999999
-13.02619,-1.8143792,0.23457673
-13.02619,-1.8143792,0.23457673
-13.02619,-1.8143792,0.23457673
-13.02619,-1.8143792,0.23457673
-12.260224000000001,-0.2920241,1.4601203999999999
-12.260224000000001,-0.2920241,1.4601203999999999
-12.260224000000001,-0.2920241,1.4601203999999999
-10.603826,-0.8186249,1.2207563999999997
-10.603826,-0.8186249,1.2207563999999997
-10.603826,-0.8186249,1.2207563999999997
-10.603826,-0.8186249,1.2207563999999997
-10.603826,-0.8186249,1.2207563999999997
-8.564445,-1.0962871,0.59841
-8.564445,-1.0962871,0.59841
-8.564445,-1.0962871,0.59841
-8.564445,-1.0962871,0.59841
-7.243155000000001,-1.8526775000000002,0.56968635
-7.243155000000001,-1.8526775000000002,0.56968635
-7.243155000000001,-1.8526775000000002,0.56968635
-7.243155000000001,-1.8526775000000002,0.56968635
-6.9176197,-2.4463003,1.5175678999999997
-6.9176197,-2.4463003,1.5175678999999997
-6.9176197,-2.4463003,1.5175678999999997
-7.808053999999999,-1.8431028999999999,2.321831
-7.808053999999999,-1.8431028999999999,2.321831
-7.808053999999999,-1.8431028999999999,2.321831
-7.808053999999999,-1.8431028999999999,2.321831
-7.808053999999999,-1.8431028999999999,2.321831
-9.75169,-1.2016073,2.752686
-9.75169,-1.2016073,2.752686
-9.75169,-1.2016073,2.752686
-9.75169,-1.2016073,2.752686
-12.308098,-1.5175678999999997,1.9196993000000002
-12.308098,-1.5175678999999997,1.9196993000000002
-12.308098,-1.5175678999999997,1.9196993000000002
-10.843189,-1.6707608,1.9005502
-10.843189,-1.6707608,1.9005502
-10.843189,-1.6707608,1.9005502
-10.843189,-1.6707608,1.9005502
-10.843189,-1.6707608,1.9005502
-10.0868,-1.7952299999999999,0.8952214
-10.0868,-1.7952299999999999,0.8952214
-10.0868,-1.7952299999999999,0.8952214
-10.0868,-1.7952299999999999,0.8952214
-10.105948,-2.4175766,1.4026731000000001
-10.105948,-2.4175766,1.4026731000000001
-10.105948,-2.4175766,1.4026731000000001
-10.105948,-2.4175766,1.4026731000000001
-9.502751,-2.9250283,1.5845897
-9.502751,-2.9250283,1.5845897
-9.502751,-2.9250283,1.5845897
-9.502751,-2.9250283,1.5845897
-11.522984,-3.4899273,0.7994758000000001
-11.522984,-3.4899273,0.7994758000000001
-11.522984,-3.4899273,0.7994758000000001
-11.522984,-3.4899273,0.7994758000000001
-12.643207,-4.5144053,1.1920328000000002
-12.643207,-4.5144053,1.1920328000000002
-12.643207,-4.5144053,1.1920328000000002
-12.643207,-4.5144053,1.1920328000000002
-11.044255,-5.222923000000001,1.8239537000000001
-11.044255,-5.222923000000001,1.8239537000000001
-11.044255,-5.222923000000001,1.8239537000000001
-11.044255,-5.222923000000001,1.8239537000000001
-12.3463955,-1.8909756999999998,0.46436617
-12.3463955,-1.8909756999999998,0.46436617
-12.3463955,-1.8909756999999998,0.46436617
-12.3463955,-1.8909756999999998,0.46436617
-11.666602000000001,-0.12925656,1.9292740000000002
-11.666602000000001,-0.12925656,1.9292740000000002
-11.666602000000001,-0.12925656,1.9292740000000002
-11.666602000000001,-0.12925656,1.9292740000000002
-10.307014,-0.54096264,2.2069361
-10.307014,-0.54096264,2.2069361
-10.307014,-0.54096264,2.2069361
-10.307014,-0.54096264,2.2069361
-8.583592999999999,-1.2303311000000001,0.98139244
-8.583592999999999,-1.2303311000000001,0.98139244
-8.583592999999999,-1.2303311000000001,0.98139244
-8.583592999999999,-1.2303311000000001,0.98139244
-7.214431299999999,-1.7856555,0.22500217
-7.214431299999999,-1.7856555,0.22500217
-7.214431299999999,-1.7856555,0.22500217
-7.214431299999999,-1.7856555,0.22500217
-8.095291,-1.8048046999999998,0.4164934
-8.095291,-1.8048046999999998,0.4164934
-8.095291,-1.8048046999999998,0.4164934
-8.095291,-1.8048046999999998,0.4164934
-8.095291,-1.8048046999999998,0.4164934
-9.818711,-1.469695,0.85692316
-9.818711,-1.469695,0.85692316
-9.818711,-1.469695,0.85692316
-9.837861,-2.5899186000000003,0.8281995000000001
-9.837861,-2.5899186000000003,0.8281995000000001
-9.837861,-2.5899186000000003,0.8281995000000001
-9.837861,-2.5899186000000003,0.8281995000000001
-11.140001,-2.494173,2.3792782000000003
-11.140001,-2.494173,2.3792782000000003
-11.140001,-2.494173,2.3792782000000003
-11.140001,-2.494173,2.3792782000000003
-11.140001,-2.494173,2.3792782000000003
-10.182545,-0.4164934,1.1058618
-10.182545,-0.4164934,1.1058618
-10.182545,-0.4164934,1.1058618
-8.937852000000001,-3.2218397000000003,3.844186
-8.937852000000001,-3.2218397000000003,3.844186
-8.937852000000001,-3.2218397000000003,3.844186
-8.937852000000001,-3.2218397000000003,3.844186
-7.9995449999999995,-1.8814011999999998,0.9622433000000001
-7.9995449999999995,-1.8814011999999998,0.9622433000000001
-7.9995449999999995,-1.8814011999999998,0.9622433000000001
-7.9995449999999995,-1.8814011999999998,0.9622433000000001
-7.9995449999999995,-1.8814011999999998,0.9622433000000001
-8.526146,-3.3558834,-0.20585304
-8.526146,-3.3558834,-0.20585304
-8.526146,-3.3558834,-0.20585304
-8.526146,-3.3558834,-0.20585304
-11.178299,-3.8058877,0.10053288
-11.178299,-3.8058877,0.10053288
-11.178299,-3.8058877,0.10053288
-13.638962,-4.6771727,2.1973617
-13.638962,-4.6771727,2.1973617
-13.638962,-4.6771727,2.1973617
-13.638962,-4.6771727,2.1973617
-13.638962,-4.6771727,2.1973617
-11.915541000000001,-3.0303482999999996,3.4707782
-11.915541000000001,-3.0303482999999996,3.4707782
-11.915541000000001,-3.0303482999999996,3.4707782
-11.915541000000001,-3.0303482999999996,3.4707782
-10.421909,-1.9292740000000002,1.9196993000000002
-10.421909,-1.9292740000000002,1.9196993000000002
-10.421909,-1.9292740000000002,1.9196993000000002
-11.551707,-2.0250196,0.6845810999999999
-11.551707,-2.0250196,0.6845810999999999
-11.551707,-2.0250196,0.6845810999999999
-11.551707,-2.0250196,0.6845810999999999
-11.551707,-2.0250196,0.6845810999999999
-10.622974000000001,-1.2686293,2.0824668
-10.622974000000001,-1.2686293,2.0824668
-10.622974000000001,-1.2686293,2.0824668
-10.622974000000001,-1.2686293,2.0824668
-9.320834,-1.8048046999999998,1.3069274
-9.320834,-1.8048046999999998,1.3069274
-9.320834,-1.8048046999999998,1.3069274
-8.21976,-1.8335283,0.00478728
-8.21976,-1.8335283,0.00478728
-8.21976,-1.8335283,0.00478728
-8.21976,-1.8335283,0.00478728
-7.1474094,-1.4218222,0.3398969
-7.1474094,-1.4218222,0.3398969
-7.1474094,-1.4218222,0.3398969
-7.1474094,-1.4218222,0.3398969
-7.1474094,-1.4218222,0.3398969
-8.181462,-1.5941644,0.6271336999999999
-8.181462,-1.5941644,0.6271336999999999
-8.181462,-1.5941644,0.6271336999999999
-8.181462,-1.5941644,0.6271336999999999
-10.431483,-2.3314054,-0.110107444
-10.431483,-2.3314054,-0.110107444
-10.431483,-2.3314054,-0.110107444
-10.680422,-3.5473747,2.3122563
-10.680422,-3.5473747,2.3122563
-10.680422,-3.5473747,2.3122563
-10.680422,-3.5473747,2.3122563
-10.680422,-3.5473747,2.3122563
-10.354887,-1.0005416,1.1250108
-10.354887,-1.0005416,1.1250108
-10.354887,-1.0005416,1.1250108
-10.354887,-1.0005416,1.1250108
-9.215514,-1.2590546999999999,2.1399142999999996
-9.215514,-1.2590546999999999,2.1399142999999996
-9.215514,-1.2590546999999999,2.1399142999999996
-7.5112429999999994,-1.2686293,2.6090677
-7.5112429999999994,-1.2686293,2.6090677
-7.5112429999999994,-1.2686293,2.6090677
-7.5112429999999994,-1.2686293,2.6090677
-7.5112429999999994,-1.2686293,2.6090677
-8.248484,-3.4707782,-0.8952214
-8.248484,-3.4707782,-0.8952214
-8.248484,-3.4707782,-0.8952214
-8.248484,-3.4707782,-0.8952214
-10.153821,-4.1792955,-0.0718092
-10.153821,-4.1792955,-0.0718092
-10.153821,-4.1792955,-0.0718092
-11.341067,-3.231414,1.2399056
-11.341067,-3.231414,1.2399056
-11.341067,-3.231414,1.2399056
-11.341067,-3.231414,1.2399056
-11.341067,-3.231414,1.2399056
-14.041093,-2.9920502,2.168638
-14.041093,-2.9920502,2.168638
-14.041093,-2.9920502,2.168638
-14.041093,-2.9920502,2.168638
-11.092129,-2.9824755,2.513322
-11.092129,-2.9824755,2.513322
-11.092129,-2.9824755,2.513322
-11.092129,-2.9824755,2.513322
-10.335738000000001,-3.1069447999999995,1.0962871
-10.335738000000001,-3.1069447999999995,1.0962871
-10.335738000000001,-3.1069447999999995,1.0962871
-10.335738000000001,-3.1069447999999995,1.0962871
-9.943181,-2.1973617,1.14416
-9.943181,-2.1973617,1.14416
-9.943181,-2.1973617,1.14416
-9.943181,-2.1973617,1.14416
-9.454879,-1.2782038,1.5750152
-9.454879,-1.2782038,1.5750152
-9.454879,-1.2782038,1.5750152
-9.454879,-1.2782038,1.5750152
-9.062322,-1.3643749,1.0005416
-9.062322,-1.3643749,1.0005416
-9.062322,-1.3643749,1.0005416
-9.062322,-1.3643749,1.0005416
-8.353804,-1.4026731000000001,0.6271336999999999
-8.353804,-1.4026731000000001,0.6271336999999999
-8.353804,-1.4026731000000001,0.6271336999999999
-8.353804,-1.4026731000000001,0.6271336999999999
-8.085716,-1.6707608,0.5505372
-8.085716,-1.6707608,0.5505372
-8.085716,-1.6707608,0.5505372
-8.085716,-1.6707608,0.5505372
-10.594251,-2.149489,0.43564250000000004
-10.594251,-2.149489,0.43564250000000004
-10.594251,-2.149489,0.43564250000000004
-10.594251,-2.149489,0.43564250000000004
-10.594251,-2.149489,0.43564250000000004
-11.484685,-2.1207652,0.7228793
-11.484685,-2.1207652,0.7228793
-11.484685,-2.1207652,0.7228793
-9.75169,-1.8431028999999999,2.427151
-9.75169,-1.8431028999999999,2.427151
-9.75169,-1.8431028999999999,2.427151
-9.75169,-1.8431028999999999,2.427151
-9.196365,-1.6611862000000002,1.7186337
-9.196365,-1.6611862000000002,1.7186337
-9.196365,-1.6611862000000002,1.7186337
-9.196365,-1.6611862000000002,1.7186337
-7.1091112999999995,-1.0771381000000002,2.1303396
-7.1091112999999995,-1.0771381000000002,2.1303396
-7.1091112999999995,-1.0771381000000002,2.1303396
-7.1091112999999995,-1.0771381000000002,2.1303396
-6.783575999999999,-2.1303396,1.9771467
-6.783575999999999,-2.1303396,1.9771467
-6.783575999999999,-2.1303396,1.9771467
-6.783575999999999,-2.1303396,1.9771467
-8.736787,-2.800559,1.4888442
-8.736787,-2.800559,1.4888442
-8.736787,-2.800559,1.4888442
-8.736787,-2.800559,1.4888442
-9.943181,-2.5899186000000003,1.862252
-9.943181,-2.5899186000000003,1.862252
-9.943181,-2.5899186000000003,1.862252
-9.943181,-2.5899186000000003,1.862252
-11.829369999999999,-2.733537,2.3314054
-11.829369999999999,-2.733537,2.3314054
-11.829369999999999,-2.733537,2.3314054
-11.829369999999999,-2.733537,2.3314054
-12.710229,-2.8963046,2.3505547000000004
-12.710229,-2.8963046,2.3505547000000004
-12.710229,-2.8963046,2.3505547000000004
-12.710229,-2.8963046,2.3505547000000004
-10.642124,-2.8197080000000003,2.8388572
-10.642124,-2.8197080000000003,2.8388572
-10.642124,-2.8197080000000003,2.8388572
-10.642124,-2.8197080000000003,2.8388572
-10.642124,-2.8197080000000003,2.8388572
-11.542132,-3.5090763999999997,1.1633091
-11.542132,-3.5090763999999997,1.1633091
-11.542132,-3.5090763999999997,1.1633091
-10.40276,-2.1782124,1.2111819
-10.40276,-2.1782124,1.2111819
-10.40276,-2.1782124,1.2111819
-10.40276,-2.1782124,1.2111819
-10.40276,-2.1782124,1.2111819
-9.196365,-0.8090504,1.7856555
-9.196365,-0.8090504,1.7856555
-9.196365,-0.8090504,1.7856555
-9.196365,-0.8090504,1.7856555
-8.363379,-1.0579889,1.2303311000000001
-8.363379,-1.0579889,1.2303311000000001
-8.363379,-1.0579889,1.2303311000000001
-7.5399666,-1.5367169,0.8760723
-7.5399666,-1.5367169,0.8760723
-7.5399666,-1.5367169,0.8760723
-7.5399666,-1.5367169,0.8760723
-8.602742,-2.101616,0.6079846
-8.602742,-2.101616,0.6079846
-8.602742,-2.101616,0.6079846
-8.602742,-2.101616,0.6079846
-8.602742,-2.101616,0.6079846
-10.077225,-2.2069361,0.5313880999999999
-10.077225,-2.2069361,0.5313880999999999
-10.077225,-2.2069361,0.5313880999999999
-10.077225,-2.2069361,0.5313880999999999
-11.197449,-2.2452345,1.383524
-11.197449,-2.2452345,1.383524
-11.197449,-2.2452345,1.383524
-10.680422,-1.8718264999999998,2.6569404999999997
-10.680422,-1.8718264999999998,2.6569404999999997
-10.680422,-1.8718264999999998,2.6569404999999997
-10.680422,-1.8718264999999998,2.6569404999999997
-10.680422,-1.8718264999999998,2.6569404999999997
-8.928278,-1.0962871,2.0441686999999997
-8.928278,-1.0962871,2.0441686999999997
-8.928278,-1.0962871,2.0441686999999997
-8.928278,-1.0962871,2.0441686999999997
-6.8888964999999995,-0.8664976999999999,2.3314054
-6.8888964999999995,-0.8664976999999999,2.3314054
-6.8888964999999995,-0.8664976999999999,2.3314054
-7.0133657000000005,-1.948423,1.4122477
-7.0133657000000005,-1.948423,1.4122477
-7.0133657000000005,-1.948423,1.4122477
-7.0133657000000005,-1.948423,1.4122477
-7.0133657000000005,-1.948423,1.4122477
-8.688913000000001,-2.7431116,1.1345854
-8.688913000000001,-2.7431116,1.1345854
-8.688913000000001,-2.7431116,1.1345854
-8.688913000000001,-2.7431116,1.1345854
-8.937852000000001,-2.5707695,1.6420371999999999
-8.937852000000001,-2.5707695,1.6420371999999999
-8.937852000000001,-2.5707695,1.6420371999999999
-11.858092999999998,-2.8197080000000003,1.7186337
-11.858092999999998,-2.8197080000000003,1.7186337
-11.858092999999998,-2.8197080000000003,1.7186337
-11.858092999999998,-2.8197080000000003,1.7186337
-11.858092999999998,-2.8197080000000003,1.7186337
-14.845355999999999,-3.7388659,1.8718264999999998
-14.845355999999999,-3.7388659,1.8718264999999998
-14.845355999999999,-3.7388659,1.8718264999999998
-14.845355999999999,-3.7388659,1.8718264999999998
-9.8953085,-3.0016246,3.078221
-9.8953085,-3.0016246,3.078221
-9.8953085,-3.0016246,3.078221
-9.8953085,-3.0016246,3.078221
-10.010203,-1.9867213,1.9196993000000002
-10.010203,-1.9867213,1.9196993000000002
-10.010203,-1.9867213,1.9196993000000002
-10.010203,-1.9867213,1.9196993000000002
-10.335738000000001,-1.4218222,1.2399056
-10.335738000000001,-1.4218222,1.2399056
-10.335738000000001,-1.4218222,1.2399056
-10.335738000000001,-1.4218222,1.2399056
-9.6942425,0.4164934,2.0920415
-9.6942425,0.4164934,2.0920415
-9.6942425,0.4164934,2.0920415
-9.6942425,0.4164934,2.0920415
-8.363379,-0.48351530000000004,2.0058703
-8.363379,-0.48351530000000004,2.0058703
-8.363379,-0.48351530000000004,2.0058703
-8.363379,-0.48351530000000004,2.0058703
-7.894225,-1.8431028999999999,0.16755481
-7.894225,-1.8431028999999999,0.16755481
-7.894225,-1.8431028999999999,0.16755481
-7.894225,-1.8431028999999999,0.16755481
-7.5495410000000005,-2.3792782000000003,-0.2441513
-7.5495410000000005,-2.3792782000000003,-0.2441513
-7.5495410000000005,-2.3792782000000003,-0.2441513
-7.5495410000000005,-2.3792782000000003,-0.2441513
-9.809137,-2.408002,0.4164934
-9.809137,-2.408002,0.4164934
-9.809137,-2.408002,0.4164934
-9.809137,-2.408002,0.4164934
-10.651698,-1.9196993000000002,1.4505458999999998
-10.651698,-1.9196993000000002,1.4505458999999998
-10.651698,-1.9196993000000002,1.4505458999999998
-10.651698,-1.9196993000000002,1.4505458999999998
-10.536804,-1.6899098999999997,2.4463003
-10.536804,-1.6899098999999997,2.4463003
-10.536804,-1.6899098999999997,2.4463003
-10.536804,-1.6899098999999997,2.4463003
-10.268716,-1.7856555,2.4463003
-10.268716,-1.7856555,2.4463003
-10.268716,-1.7856555,2.4463003
-10.268716,-1.7856555,2.4463003
-7.463369999999999,-1.1250108,2.4558747000000003
-7.463369999999999,-1.1250108,2.4558747000000003
-7.463369999999999,-1.1250108,2.4558747000000003
-7.463369999999999,-1.1250108,2.4558747000000003
-7.252729400000001,-1.5941644,2.1303396
-7.252729400000001,-1.5941644,2.1303396
-7.252729400000001,-1.5941644,2.1303396
-7.252729400000001,-1.5941644,2.1303396
-8.650616000000001,-2.0633178,1.776081
-8.650616000000001,-2.0633178,1.776081
-8.650616000000001,-2.0633178,1.776081
-8.650616000000001,-2.0633178,1.776081
-9.004874000000001,-2.0920415,1.8814011999999998
-9.004874000000001,-2.0920415,1.8814011999999998
-9.004874000000001,-2.0920415,1.8814011999999998
-9.004874000000001,-2.0920415,1.8814011999999998
-10.900637,-2.9346027,1.5462915000000002
-10.900637,-2.9346027,1.5462915000000002
-10.900637,-2.9346027,1.5462915000000002
-10.900637,-2.9346027,1.5462915000000002
-13.093211,-3.8633351,1.4122477
-13.093211,-3.8633351,1.4122477
-13.093211,-3.8633351,1.4122477
-13.093211,-3.8633351,1.4122477
-10.546378,-3.4612036,2.254809
-10.546378,-3.4612036,2.254809
-10.546378,-3.4612036,2.254809
-10.546378,-3.4612036,2.254809
-10.546378,-3.4612036,2.254809
-10.565528,-2.2260852000000004,1.2303311000000001
-10.565528,-2.2260852000000004,1.2303311000000001
-10.565528,-2.2260852000000004,1.2303311000000001
-11.063405,-1.7377827000000001,0.90479594
-11.063405,-1.7377827000000001,0.90479594
-11.063405,-1.7377827000000001,0.90479594
-11.063405,-1.7377827000000001,0.90479594
-9.742115,-0.90479594,1.9101248
-9.742115,-0.90479594,1.9101248
-9.742115,-0.90479594,1.9101248
-9.742115,-0.90479594,1.9101248
-8.296356,-1.1824582000000001,1.5558661
-8.296356,-1.1824582000000001,1.5558661
-8.296356,-1.1824582000000001,1.5558661
-8.296356,-1.1824582000000001,1.5558661
-7.9133744,-1.776081,0.61755913
-7.9133744,-1.776081,0.61755913
-7.9133744,-1.776081,0.61755913
-7.9133744,-1.776081,0.61755913
-7.252729400000001,-1.9292740000000002,0.93351966
-7.252729400000001,-1.9292740000000002,0.93351966
-7.252729400000001,-1.9292740000000002,0.93351966
-7.252729400000001,-1.9292740000000002,0.93351966
-7.8272033,-1.7665064,1.3452256999999999
-7.8272033,-1.7665064,1.3452256999999999
-7.8272033,-1.7665064,1.3452256999999999
-7.8272033,-1.7665064,1.3452256999999999
-11.092129,-2.5899186000000003,1.862252
-11.092129,-2.5899186000000003,1.862252
-11.092129,-2.5899186000000003,1.862252
-11.092129,-2.5899186000000003,1.862252
-9.579348,-1.8814011999999998,2.4845984
-9.579348,-1.8814011999999998,2.4845984
-9.579348,-1.8814011999999998,2.4845984
-9.579348,-1.8814011999999998,2.4845984
-10.996383,-1.7186337,0.9622433000000001
-10.996383,-1.7186337,0.9622433000000001
-10.996383,-1.7186337,0.9622433000000001
-10.996383,-1.7186337,0.9622433000000001
-8.880403999999999,-1.6228879999999999,1.4792696
-8.880403999999999,-1.6228879999999999,1.4792696
-8.880403999999999,-1.6228879999999999,1.4792696
-8.880403999999999,-1.6228879999999999,1.4792696
-8.363379,-1.4313968000000001,0.76117754
-8.363379,-1.4313968000000001,0.76117754
-8.363379,-1.4313968000000001,0.76117754
-8.363379,-1.4313968000000001,0.76117754
-9.943181,-3.2218397000000003,-0.9526688
-9.943181,-3.2218397000000003,-0.9526688
-9.943181,-3.2218397000000003,-0.9526688
-9.943181,-3.2218397000000003,-0.9526688
-9.301685,-3.4037561000000003,-0.5505372
-9.301685,-3.4037561000000003,-0.5505372
-9.301685,-3.4037561000000003,-0.5505372
-9.301685,-3.4037561000000003,-0.5505372
-10.996383,-3.4324798999999997,0.5218136
-10.996383,-3.4324798999999997,0.5218136
-10.996383,-3.4324798999999997,0.5218136
-10.996383,-3.4324798999999997,0.5218136
-13.150659,-4.169721,0.15798025
-13.150659,-4.169721,0.15798025
-13.150659,-4.169721,0.15798025
-13.150659,-4.169721,0.15798025
-9.952755999999999,-3.604822,1.862252
-9.952755999999999,-3.604822,1.862252
-9.952755999999999,-3.604822,1.862252
-9.952755999999999,-3.604822,1.862252
-10.412334,-3.212265,2.2835326
-10.412334,-3.212265,2.2835326
-10.412334,-3.212265,2.2835326
-10.412334,-3.212265,2.2835326
-10.048501,-2.8388572,1.2590546999999999
-10.048501,-2.8388572,1.2590546999999999
-10.048501,-2.8388572,1.2590546999999999
-10.048501,-2.8388572,1.2590546999999999
-10.000628,-2.1877869999999997,1.2016073
-10.000628,-2.1877869999999997,1.2016073
-10.000628,-2.1877869999999997,1.2016073
-10.000628,-2.1877869999999997,1.2016073
-8.899554,-2.149489,0.7324539000000001
-8.899554,-2.149489,0.7324539000000001
-8.899554,-2.149489,0.7324539000000001
-8.899554,-2.149489,0.7324539000000001
-8.143164,-1.0579889,0.50266445
-8.143164,-1.0579889,0.50266445
-8.143164,-1.0579889,0.50266445
-8.143164,-1.0579889,0.50266445
-8.143164,-1.0579889,0.50266445
-8.401677000000001,-1.948423,0.47394073
-8.401677000000001,-1.948423,0.47394073
-8.401677000000001,-1.948423,0.47394073
-10.335738000000001,-1.9292740000000002,0.2154276
-10.335738000000001,-1.9292740000000002,0.2154276
-10.335738000000001,-1.9292740000000002,0.2154276
-10.335738000000001,-1.9292740000000002,0.2154276
-11.59958,-1.0675635,0.043085523
-11.59958,-1.0675635,0.043085523
-11.59958,-1.0675635,0.043085523
-11.59958,-1.0675635,0.043085523
-11.59958,-1.0675635,0.043085523
-10.852764,-0.37819514,1.8335283
-10.852764,-0.37819514,1.8335283
-10.852764,-0.37819514,1.8335283
-8.229335,0.0,2.0728923999999997
-8.229335,0.0,2.0728923999999997
-8.229335,0.0,2.0728923999999997
-8.229335,0.0,2.0728923999999997
-8.229335,0.0,2.0728923999999997
-7.080387599999999,-1.2782038,1.3356511999999998
-7.080387599999999,-1.2782038,1.3356511999999998
-7.080387599999999,-1.2782038,1.3356511999999998
-7.080387599999999,-1.2782038,1.3356511999999998
-8.152739,-2.7048132000000003,0.39734426
-8.152739,-2.7048132000000003,0.39734426
-8.152739,-2.7048132000000003,0.39734426
-8.152739,-2.7048132000000003,0.39734426
-10.096374,-2.7239625,0.7994758000000001
-10.096374,-2.7239625,0.7994758000000001
-10.096374,-2.7239625,0.7994758000000001
-10.096374,-2.7239625,0.7994758000000001
-11.886817,-3.0111992,0.93351966
-11.886817,-3.0111992,0.93351966
-11.886817,-3.0111992,0.93351966
-11.886817,-3.0111992,0.93351966
-11.829369999999999,-3.5952474999999997,1.3165021000000001
-11.829369999999999,-3.5952474999999997,1.3165021000000001
-11.829369999999999,-3.5952474999999997,1.3165021000000001
-11.829369999999999,-3.5952474999999997,1.3165021000000001
-10.307014,-4.5144053,2.101616
-10.307014,-4.5144053,2.101616
-10.307014,-4.5144053,2.101616
-10.307014,-4.5144053,2.101616
-12.25065,-3.844186,1.5750152
-12.25065,-3.844186,1.5750152
-12.25065,-3.844186,1.5750152
-12.25065,-3.844186,1.5750152
-11.293194,-0.8281995000000001,1.469695
-11.293194,-0.8281995000000001,1.469695
-11.293194,-0.8281995000000001,1.469695
-11.293194,-0.8281995000000001,1.469695
-10.326163000000001,-0.61755913,2.034594
-10.326163000000001,-0.61755913,2.034594
-10.326163000000001,-0.61755913,2.034594
-10.326163000000001,-0.61755913,2.034594
-9.435728999999998,-1.6611862000000002,0.76117754
-9.435728999999998,-1.6611862000000002,0.76117754
-9.435728999999998,-1.6611862000000002,0.76117754
-9.435728999999998,-1.6611862000000002,0.76117754
-8.018694,-2.34098,0.00478728
-8.018694,-2.34098,0.00478728
-8.018694,-2.34098,0.00478728
-8.018694,-2.34098,0.00478728
-7.769756,-2.1111906000000005,0.3111732
-7.769756,-2.1111906000000005,0.3111732
-7.769756,-2.1111906000000005,0.3111732
-7.769756,-2.1111906000000005,0.3111732
-9.493176,-1.3452256999999999,0.359046
-9.493176,-1.3452256999999999,0.359046
-9.493176,-1.3452256999999999,0.359046
-9.493176,-1.3452256999999999,0.359046
-10.661273,-1.8526775000000002,0.3111732
-10.661273,-1.8526775000000002,0.3111732
-10.661273,-1.8526775000000002,0.3111732
-10.661273,-1.8526775000000002,0.3111732
-9.971905,-2.7814097,2.1973617
-9.971905,-2.7814097,2.1973617
-9.971905,-2.7814097,2.1973617
-9.971905,-2.7814097,2.1973617
-9.272962,-2.3026817000000004,2.2356597999999996
-9.272962,-2.3026817000000004,2.2356597999999996
-9.272962,-2.3026817000000004,2.2356597999999996
-9.272962,-2.3026817000000004,2.2356597999999996
-7.721883,-1.1824582000000001,1.776081
-7.721883,-1.1824582000000001,1.776081
-7.721883,-1.1824582000000001,1.776081
-7.721883,-1.1824582000000001,1.776081
-8.21976,-1.5271424,1.9675721999999998
-8.21976,-1.5271424,1.9675721999999998
-8.21976,-1.5271424,1.9675721999999998
-8.21976,-1.5271424,1.9675721999999998
-9.761265,-2.321831,2.0537431
-9.761265,-2.321831,2.0537431
-9.761265,-2.321831,2.0537431
-9.761265,-2.321831,2.0537431
-10.278291000000001,-2.9441773999999996,1.9292740000000002
-10.278291000000001,-2.9441773999999996,1.9292740000000002
-10.278291000000001,-2.9441773999999996,1.9292740000000002
-10.278291000000001,-2.9441773999999996,1.9292740000000002
-12.920869,-3.6239712,1.383524
-12.920869,-3.6239712,1.383524
-12.920869,-3.6239712,1.383524
-12.920869,-3.6239712,1.383524
-11.972988,-3.5665237999999997,1.7377827000000001
-11.972988,-3.5665237999999997,1.7377827000000001
-11.972988,-3.5665237999999997,1.7377827000000001
-11.972988,-3.5665237999999997,1.7377827000000001
-10.010203,-3.5569491,2.1399142999999996
-10.010203,-3.5569491,2.1399142999999996
-10.010203,-3.5569491,2.1399142999999996
-10.010203,-3.5569491,2.1399142999999996
-11.226172,-2.7909843999999997,0.93351966
-11.226172,-2.7909843999999997,0.93351966
-11.226172,-2.7909843999999997,0.93351966
-11.226172,-2.7909843999999997,0.93351966
-10.642124,-1.2207563999999997,1.1728836
-10.642124,-1.2207563999999997,1.1728836
-10.642124,-1.2207563999999997,1.1728836
-10.642124,-1.2207563999999997,1.1728836
-10.594251,-0.70373017,1.2399056
-10.594251,-0.70373017,1.2399056
-10.594251,-0.70373017,1.2399056
-10.594251,-0.70373017,1.2399056
-9.129342999999999,-1.1728836,0.6271336999999999
-9.129342999999999,-1.1728836,0.6271336999999999
-9.129342999999999,-1.1728836,0.6271336999999999
-9.129342999999999,-1.1728836,0.6271336999999999
-7.788905000000001,-1.6803354,0.062234644000000006
-7.788905000000001,-1.6803354,0.062234644000000006
-7.788905000000001,-1.6803354,0.062234644000000006
-7.788905000000001,-1.6803354,0.062234644000000006
-8.372953,-2.0441686999999997,-0.03351096
-8.372953,-2.0441686999999997,-0.03351096
-8.372953,-2.0441686999999997,-0.03351096
-8.372953,-2.0441686999999997,-0.03351096
-8.372953,-2.0441686999999997,-0.03351096
-8.947427000000001,-1.7569318999999999,0.32074776
-8.947427000000001,-1.7569318999999999,0.32074776
-8.947427000000001,-1.7569318999999999,0.32074776
-9.167641999999999,-2.4463003,1.3548003
-9.167641999999999,-2.4463003,1.3548003
-9.167641999999999,-2.4463003,1.3548003
-9.167641999999999,-2.4463003,1.3548003
-11.4272375,-2.494173,2.714388
-11.4272375,-2.494173,2.714388
-11.4272375,-2.494173,2.714388
-11.4272375,-2.494173,2.714388
-11.4272375,-2.494173,2.714388
-9.569773,-1.6611862000000002,3.0494976
-9.569773,-1.6611862000000002,3.0494976
-9.569773,-1.6611862000000002,3.0494976
-8.439975,-0.4164934,2.8197080000000003
-8.439975,-0.4164934,2.8197080000000003
-8.439975,-0.4164934,2.8197080000000003
-8.439975,-0.4164934,2.8197080000000003
-8.439975,-0.4164934,2.8197080000000003
-9.148492999999998,-1.8048046999999998,1.5462915000000002
-9.148492999999998,-1.8048046999999998,1.5462915000000002
-9.148492999999998,-1.8048046999999998,1.5462915000000002
-9.148492999999998,-1.8048046999999998,1.5462915000000002
-9.665519,-2.5420458,1.8526775000000002
-9.665519,-2.5420458,1.8526775000000002
-9.665519,-2.5420458,1.8526775000000002
-9.20594,-2.494173,1.5941644
-9.20594,-2.494173,1.5941644
-9.20594,-2.494173,1.5941644
-9.20594,-2.494173,1.5941644
-9.20594,-2.494173,1.5941644
-11.771922,-3.3463089999999998,1.3260766000000002
-11.771922,-3.3463089999999998,1.3260766000000002
-11.771922,-3.3463089999999998,1.3260766000000002
-11.771922,-3.3463089999999998,1.3260766000000002
-11.800646,-3.8537605000000004,1.3548003
-11.800646,-3.8537605000000004,1.3548003
-11.800646,-3.8537605000000004,1.3548003
-11.800646,-3.8537605000000004,1.3548003
-10.5080805,-3.8824842000000004,1.7282081999999999
-10.5080805,-3.8824842000000004,1.7282081999999999
-10.5080805,-3.8824842000000004,1.7282081999999999
-10.5080805,-3.8824842000000004,1.7282081999999999
-12.174053,-2.6569404999999997,0.76117754
-12.174053,-2.6569404999999997,0.76117754
-12.174053,-2.6569404999999997,0.76117754
-12.174053,-2.6569404999999997,0.76117754
-11.408089,-0.751603,1.7377827000000001
-11.408089,-0.751603,1.7377827000000001
-11.408089,-0.751603,1.7377827000000001
-11.408089,-0.751603,1.7377827000000001
-10.393186,-0.47394073,1.7856555
-10.393186,-0.47394073,1.7856555
-10.393186,-0.47394073,1.7856555
-10.393186,-0.47394073,1.7856555
-8.7750845,-0.9622433000000001,1.0962871
-8.7750845,-0.9622433000000001,1.0962871
-8.7750845,-0.9622433000000001,1.0962871
-8.7750845,-0.9622433000000001,1.0962871
-6.9271946,-1.7473572,0.8952214
-6.9271946,-1.7473572,0.8952214
-6.9271946,-1.7473572,0.8952214
-6.9271946,-1.7473572,0.8952214
-7.319751299999999,-2.034594,0.6271336999999999
-7.319751299999999,-2.034594,0.6271336999999999
-7.319751299999999,-2.034594,0.6271336999999999
-7.319751299999999,-2.034594,0.6271336999999999
-9.512326,-1.6133133999999998,1.0005416
-9.512326,-1.6133133999999998,1.0005416
-9.512326,-1.6133133999999998,1.0005416
-9.512326,-1.6133133999999998,1.0005416
-9.952755999999999,-1.8526775000000002,2.3314054
-9.952755999999999,-1.8526775000000002,2.3314054
-9.952755999999999,-1.8526775000000002,2.3314054
-9.952755999999999,-1.8526775000000002,2.3314054
-12.260224000000001,-1.9579976000000003,3.0016246
-12.260224000000001,-1.9579976000000003,3.0016246
-12.260224000000001,-1.9579976000000003,3.0016246
-12.260224000000001,-1.9579976000000003,3.0016246
-10.000628,-1.2782038,2.5037475
-10.000628,-1.2782038,2.5037475
-10.000628,-1.2782038,2.5037475
-10.000628,-1.2782038,2.5037475
-8.621891999999999,-0.90479594,1.8239537000000001
-8.621891999999999,-0.90479594,1.8239537000000001
-8.621891999999999,-0.90479594,1.8239537000000001
-8.621891999999999,-0.90479594,1.8239537000000001
-8.717637,-1.6899098999999997,1.2782038
-8.717637,-1.6899098999999997,1.2782038
-8.717637,-1.6899098999999997,1.2782038
-8.717637,-1.6899098999999997,1.2782038
-9.407005,-1.6324625,1.3643749
-9.407005,-1.6324625,1.3643749
-9.407005,-1.6324625,1.3643749
-9.407005,-1.6324625,1.3643749
-10.163396,-3.6143966,-0.11968201
-10.163396,-3.6143966,-0.11968201
-10.163396,-3.6143966,-0.11968201
-10.163396,-3.6143966,-0.11968201
-12.844273,-5.5580324999999995,-0.91437054
-12.844273,-5.5580324999999995,-0.91437054
-12.844273,-5.5580324999999995,-0.91437054
-12.844273,-5.5580324999999995,-0.91437054
-11.072979,-5.5963306,0.2154276
-11.072979,-5.5963306,0.2154276
-11.072979,-5.5963306,0.2154276
-11.072979,-5.5963306,0.2154276
-9.378282,-2.494173,0.09095833
-9.378282,-2.494173,0.09095833
-9.378282,-2.494173,0.09095833
-9.378282,-2.494173,0.09095833
-10.383611,-1.3356511999999998,0.92394507
-10.383611,-1.3356511999999998,0.92394507
-10.383611,-1.3356511999999998,0.92394507
-10.383611,-1.3356511999999998,0.92394507
-10.163396,-1.1824582000000001,1.8814011999999998
-10.163396,-1.1824582000000001,1.8814011999999998
-10.163396,-1.1824582000000001,1.8814011999999998
-10.163396,-1.1824582000000001,1.8814011999999998
-10.354887,-1.6037389,1.3260766000000002
-10.354887,-1.6037389,1.3260766000000002
-10.354887,-1.6037389,1.3260766000000002
-10.354887,-1.6037389,1.3260766000000002
-9.454879,-0.77075213,1.9101248
-9.454879,-0.77075213,1.9101248
-9.454879,-0.77075213,1.9101248
-9.454879,-0.77075213,1.9101248
-7.35805,-0.78990126,1.776081
-7.35805,-0.78990126,1.776081
-7.35805,-0.78990126,1.776081
-7.35805,-0.78990126,1.776081
-7.463369999999999,-1.9867213,1.5367169
-7.463369999999999,-1.9867213,1.5367169
-7.463369999999999,-1.9867213,1.5367169
-7.463369999999999,-1.9867213,1.5367169
-7.463369999999999,-1.9867213,1.5367169
-10.919786,-2.6377914000000002,1.3643749
-10.919786,-2.6377914000000002,1.3643749
-10.919786,-2.6377914000000002,1.3643749
-10.374036,-2.3122563,2.1399142999999996
-10.374036,-2.3122563,2.1399142999999996
-10.374036,-2.3122563,2.1399142999999996
-10.374036,-2.3122563,2.1399142999999996
-11.446387,-1.3260766000000002,1.6611862000000002
-11.446387,-1.3260766000000002,1.6611862000000002
-11.446387,-1.3260766000000002,1.6611862000000002
-11.446387,-1.3260766000000002,1.6611862000000002
-9.426155,-1.3356511999999998,1.4313968000000001
-9.426155,-1.3356511999999998,1.4313968000000001
-9.426155,-1.3356511999999998,1.4313968000000001
-9.426155,-1.3356511999999998,1.4313968000000001
-7.5399666,-1.2590546999999999,1.5271424
-7.5399666,-1.2590546999999999,1.5271424
-7.5399666,-1.2590546999999999,1.5271424
-7.5399666,-1.2590546999999999,1.5271424
-7.5399666,-1.2590546999999999,1.5271424
-7.9420977,-2.4463003,0.47394073
-7.9420977,-2.4463003,0.47394073
-7.9420977,-2.4463003,0.47394073
-8.851681,-3.039923,1.5079931999999998
-8.851681,-3.039923,1.5079931999999998
-8.851681,-3.039923,1.5079931999999998
-8.851681,-3.039923,1.5079931999999998
-9.924032,-2.8963046,2.0537431
-9.924032,-2.8963046,2.0537431
-9.924032,-2.8963046,2.0537431
-9.924032,-2.8963046,2.0537431
-9.924032,-2.8963046,2.0537431
-13.399597,-4.2080193,1.8239537000000001
-13.399597,-4.2080193,1.8239537000000001
-13.399597,-4.2080193,1.8239537000000001
-11.025106,-3.1548176,1.8909756999999998
-11.025106,-3.1548176,1.8909756999999998
-11.025106,-3.1548176,1.8909756999999998
-11.025106,-3.1548176,1.8909756999999998
-11.025106,-3.1548176,1.8909756999999998
-10.910212,-2.4750240000000003,1.0962871
-10.910212,-2.4750240000000003,1.0962871
-10.910212,-2.4750240000000003,1.0962871
-10.910212,-2.4750240000000003,1.0962871
-10.517653999999999,-2.7048132000000003,0.6271336999999999
-10.517653999999999,-2.7048132000000003,0.6271336999999999
-10.517653999999999,-2.7048132000000003,0.6271336999999999
-9.349558,-1.2111819,1.6516117
-9.349558,-1.2111819,1.6516117
-9.349558,-1.2111819,1.6516117
-9.349558,-1.2111819,1.6516117
-9.349558,-1.2111819,1.6516117
-8.880403999999999,-1.2016073,1.2303311000000001
-8.880403999999999,-1.2016073,1.2303311000000001
-8.880403999999999,-1.2016073,1.2303311000000001
-8.880403999999999,-1.2016073,1.2303311000000001
-8.679339,-1.469695,0.7994758000000001
-8.679339,-1.469695,0.7994758000000001
-8.679339,-1.469695,0.7994758000000001
-8.679339,-1.469695,0.7994758000000001
-7.463369999999999,-1.7282081999999999,1.0101161
-7.463369999999999,-1.7282081999999999,1.0101161
-7.463369999999999,-1.7282081999999999,1.0101161
-7.463369999999999,-1.7282081999999999,1.0101161
-8.832532,-2.0058703,1.14416
-8.832532,-2.0058703,1.14416
-8.832532,-2.0058703,1.14416
-8.832532,-2.0058703,1.14416
-10.689997,-2.0824668,1.4792696
-10.689997,-2.0824668,1.4792696
-10.689997,-2.0824668,1.4792696
-10.689997,-2.0824668,1.4792696
-10.19212,-1.776081,2.1399142999999996
-10.19212,-1.776081,2.1399142999999996
-10.19212,-1.776081,2.1399142999999996
-10.19212,-1.776081,2.1399142999999996
-11.293194,-1.5558661,2.0537431
-11.293194,-1.5558661,2.0537431
-11.293194,-1.5558661,2.0537431
-11.293194,-1.5558661,2.0537431
-9.033598,-1.3930986,1.862252
-9.033598,-1.3930986,1.862252
-9.033598,-1.3930986,1.862252
-9.033598,-1.3930986,1.862252
-7.7027339999999995,-1.2782038,1.6420371999999999
-7.7027339999999995,-1.2782038,1.6420371999999999
-7.7027339999999995,-1.2782038,1.6420371999999999
-7.7027339999999995,-1.2782038,1.6420371999999999
-8.21976,-2.1590632999999997,0.7228793
-8.21976,-2.1590632999999997,0.7228793
-8.21976,-2.1590632999999997,0.7228793
-8.21976,-2.1590632999999997,0.7228793
-8.918703,-2.8101335,1.2016073
-8.918703,-2.8101335,1.2016073
-8.918703,-2.8101335,1.2016073
-8.918703,-2.8101335,1.2016073
-9.368708,-2.6186423,0.99096704
-9.368708,-2.6186423,0.99096704
-9.368708,-2.6186423,0.99096704
-9.368708,-2.6186423,0.99096704
-11.446387,-3.2792869,1.8239537000000001
-11.446387,-3.2792869,1.8239537000000001
-11.446387,-3.2792869,1.8239537000000001
-11.446387,-3.2792869,1.8239537000000001
-10.651698,-3.3941817000000003,2.3697037999999995
-10.651698,-3.3941817000000003,2.3697037999999995
-10.651698,-3.3941817000000003,2.3697037999999995
-10.651698,-3.3941817000000003,2.3697037999999995
-12.221927,-4.0356774,1.8718264999999998
-12.221927,-4.0356774,1.8718264999999998
-12.221927,-4.0356774,1.8718264999999998
-12.221927,-4.0356774,1.8718264999999998
-12.298523,-1.7856555,0.7994758000000001
-12.298523,-1.7856555,0.7994758000000001
-12.298523,-1.7856555,0.7994758000000001
-12.298523,-1.7856555,0.7994758000000001
-10.527229,-0.05266008,2.3314054
-10.527229,-0.05266008,2.3314054
-10.527229,-0.05266008,2.3314054
-10.527229,-0.05266008,2.3314054
-8.976150500000001,-0.77075213,1.6133133999999998
-8.976150500000001,-0.77075213,1.6133133999999998
-8.976150500000001,-0.77075213,1.6133133999999998
-8.976150500000001,-0.77075213,1.6133133999999998
-7.894225,-1.6133133999999998,0.5888355
-7.894225,-1.6133133999999998,0.5888355
-7.894225,-1.6133133999999998,0.5888355
-7.894225,-1.6133133999999998,0.5888355
-7.6452865999999995,-1.8909756999999998,0.56011176
-7.6452865999999995,-1.8909756999999998,0.56011176
-7.6452865999999995,-1.8909756999999998,0.56011176
-7.6452865999999995,-1.8909756999999998,0.56011176
-8.784659,-1.862252,0.33032233
-8.784659,-1.862252,0.33032233
-8.784659,-1.862252,0.33032233
-8.784659,-1.862252,0.33032233
-9.742115,-2.3314054,0.70373017
-9.742115,-2.3314054,0.70373017
-9.742115,-2.3314054,0.70373017
-9.742115,-2.3314054,0.70373017
-10.986808,-2.0537431,2.0920415
-10.986808,-2.0537431,2.0920415
-10.986808,-2.0537431,2.0920415
-10.986808,-2.0537431,2.0920415
-10.737869,-1.7186337,2.5994933
-10.737869,-1.7186337,2.5994933
-10.737869,-1.7186337,2.5994933
-10.737869,-1.7186337,2.5994933
-8.593167999999999,-0.99096704,2.4175766
-8.593167999999999,-0.99096704,2.4175766
-8.593167999999999,-0.99096704,2.4175766
-8.593167999999999,-0.99096704,2.4175766
-8.44955,-1.9101248,0.46436617
-8.44955,-1.9101248,0.46436617
-8.44955,-1.9101248,0.46436617
-8.44955,-1.9101248,0.46436617
-8.44955,-1.9101248,0.46436617
-10.182545,-3.0973704,0.665432
-10.182545,-3.0973704,0.665432
-10.182545,-3.0973704,0.665432
-10.393186,-3.039923,1.2111819
-10.393186,-3.039923,1.2111819
-10.393186,-3.039923,1.2111819
-10.393186,-3.039923,1.2111819
-12.25065,-3.7484405,1.5271424
-12.25065,-3.7484405,1.5271424
-12.25065,-3.7484405,1.5271424
-12.25065,-3.7484405,1.5271424
-12.25065,-3.7484405,1.5271424
-12.059159,-3.9686553,1.6899098999999997
-12.059159,-3.9686553,1.6899098999999997
-12.059159,-3.9686553,1.6899098999999997
-10.259142,-3.2505634,2.0058703
-10.259142,-3.2505634,2.0058703
-10.259142,-3.2505634,2.0058703
-10.259142,-3.2505634,2.0058703
-10.259142,-3.2505634,2.0058703
-12.25065,-2.8580062,0.78032666
-12.25065,-2.8580062,0.78032666
-12.25065,-2.8580062,0.78032666
-12.25065,-2.8580062,0.78032666
-11.647452000000001,-0.6271336999999999,1.7665064
-11.647452000000001,-0.6271336999999999,1.7665064
-11.647452000000001,-0.6271336999999999,1.7665064
-10.986808,-0.71330476,1.4505458999999998
-10.986808,-0.71330476,1.4505458999999998
-10.986808,-0.71330476,1.4505458999999998
-10.986808,-0.71330476,1.4505458999999998
-10.986808,-0.71330476,1.4505458999999998
-9.091045,-1.0771381000000002,0.69415563
-9.091045,-1.0771381000000002,0.69415563
-9.091045,-1.0771381000000002,0.69415563
-9.091045,-1.0771381000000002,0.69415563
-6.9559183,-1.4313968000000001,0.8856468000000001
-6.9559183,-1.4313968000000001,0.8856468000000001
-6.9559183,-1.4313968000000001,0.8856468000000001
-6.9559183,-1.4313968000000001,0.8856468000000001
-7.291027499999999,-1.6803354,0.13883112
-7.291027499999999,-1.6803354,0.13883112
-7.291027499999999,-1.6803354,0.13883112
-7.291027499999999,-1.6803354,0.13883112
-9.445304,-1.7473572,-0.023936402000000002
-9.445304,-1.7473572,-0.023936402000000002
-9.445304,-1.7473572,-0.023936402000000002
-10.115523,-2.9537517999999996,1.8814011999999998
-10.115523,-2.9537517999999996,1.8814011999999998
-10.115523,-2.9537517999999996,1.8814011999999998
-10.115523,-2.9537517999999996,1.8814011999999998
-10.115523,-2.9537517999999996,1.8814011999999998
-11.513409,-1.6228879999999999,2.3984275
-11.513409,-1.6228879999999999,2.3984275
-11.513409,-1.6228879999999999,2.3984275
-11.513409,-1.6228879999999999,2.3984275
-10.795316999999999,-1.5079931999999998,2.0824668
-10.795316999999999,-1.5079931999999998,2.0824668
-10.795316999999999,-1.5079931999999998,2.0824668
-10.795316999999999,-1.5079931999999998,2.0824668
-9.148492999999998,-0.9718179,2.2835326
-9.148492999999998,-0.9718179,2.2835326
-9.148492999999998,-0.9718179,2.2835326
-9.148492999999998,-0.9718179,2.2835326
-9.407005,-2.6569404999999997,0.062234644000000006
-9.407005,-2.6569404999999997,0.062234644000000006
-9.407005,-2.6569404999999997,0.062234644000000006
-9.301685,-3.2697124,0.46436617
-9.301685,-3.2697124,0.46436617
-9.301685,-3.2697124,0.46436617
-9.301685,-3.2697124,0.46436617
-9.301685,-3.2697124,0.46436617
-9.732541000000001,-2.8771553,1.469695
-9.732541000000001,-2.8771553,1.469695
-9.732541000000001,-2.8771553,1.469695
-9.732541000000001,-2.8771553,1.469695
-11.293194,-3.4803526,1.6611862000000002
-11.293194,-3.4803526,1.6611862000000002
-11.293194,-3.4803526,1.6611862000000002
-11.293194,-3.4803526,1.6611862000000002
-10.29744,-3.9112080000000002,1.8814011999999998
-10.29744,-3.9112080000000002,1.8814011999999998
-10.29744,-3.9112080000000002,1.8814011999999998
-10.29744,-3.9112080000000002,1.8814011999999998
-13.581514000000002,-3.844186,1.0962871
-13.581514000000002,-3.844186,1.0962871
-13.581514000000002,-3.844186,1.0962871
-13.581514000000002,-3.844186,1.0962871
-12.3463955,-1.2590546999999999,1.2016073
-12.3463955,-1.2590546999999999,1.2016073
-12.3463955,-1.2590546999999999,1.2016073
-12.3463955,-1.2590546999999999,1.2016073
-11.283619999999999,-0.36862057,2.015445
-11.283619999999999,-0.36862057,2.015445
-11.283619999999999,-0.36862057,2.015445
-11.283619999999999,-0.36862057,2.015445
-9.971905,-0.83777404,1.1154363
-9.971905,-0.83777404,1.1154363
-9.971905,-0.83777404,1.1154363
-9.971905,-0.83777404,1.1154363
-7.693159,-1.3260766000000002,0.7994758000000001
-7.693159,-1.3260766000000002,0.7994758000000001
-7.693159,-1.3260766000000002,0.7994758000000001
-7.693159,-1.3260766000000002,0.7994758000000001
-6.180379,-1.6228879999999999,0.6079846
-6.180379,-1.6228879999999999,0.6079846
-6.180379,-1.6228879999999999,0.6079846
-6.180379,-1.6228879999999999,0.6079846
-6.936769,-1.8814011999999998,0.59841
-6.936769,-1.8814011999999998,0.59841
-6.936769,-1.8814011999999998,0.59841
-6.936769,-1.8814011999999998,0.59841
-9.6942425,-2.0537431,0.8856468000000001
-9.6942425,-2.0537431,0.8856468000000001
-9.6942425,-2.0537431,0.8856468000000001
-9.6942425,-2.0537431,0.8856468000000001
-13.150659,-2.360129,2.5707695
-13.150659,-2.360129,2.5707695
-13.150659,-2.360129,2.5707695
-13.150659,-2.360129,2.5707695
-13.121935,-1.0675635,2.4558747000000003
-13.121935,-1.0675635,2.4558747000000003
-13.121935,-1.0675635,2.4558747000000003
-13.121935,-1.0675635,2.4558747000000003
-9.129342999999999,-0.9718179,3.2409887000000004
-9.129342999999999,-0.9718179,3.2409887000000004
-9.129342999999999,-0.9718179,3.2409887000000004
-9.129342999999999,-0.9718179,3.2409887000000004
-8.248484,-0.98139244,0.751603
-8.248484,-0.98139244,0.751603
-8.248484,-0.98139244,0.751603
-8.248484,-0.98139244,0.751603
-9.464453,-3.2218397000000003,-0.45479164
-9.464453,-3.2218397000000003,-0.45479164
-9.464453,-3.2218397000000003,-0.45479164
-9.464453,-3.2218397000000003,-0.45479164
-8.746361,-3.4803526,0.26330042
-8.746361,-3.4803526,0.26330042
-8.746361,-3.4803526,0.26330042
-8.746361,-3.4803526,0.26330042
-10.785743,-3.5282254,1.2494801000000002
-10.785743,-3.5282254,1.2494801000000002
-10.785743,-3.5282254,1.2494801000000002
-10.785743,-3.5282254,1.2494801000000002
-11.867668,-3.9399316,1.3356511999999998
-11.867668,-3.9399316,1.3356511999999998
-11.867668,-3.9399316,1.3356511999999998
-11.867668,-3.9399316,1.3356511999999998
-11.867668,-3.9399316,1.3356511999999998
-10.326163000000001,-3.231414,2.1303396
-10.326163000000001,-3.231414,2.1303396
-10.326163000000001,-3.231414,2.1303396
-13.02619,-3.2792869,1.2016073
-13.02619,-3.2792869,1.2016073
-13.02619,-3.2792869,1.2016073
-13.02619,-3.2792869,1.2016073
-13.02619,-3.2792869,1.2016073
-12.020861,-1.2303311000000001,1.4313968000000001
-12.020861,-1.2303311000000001,1.4313968000000001
-12.020861,-1.2303311000000001,1.4313968000000001
-12.020861,-1.2303311000000001,1.4313968000000001
-10.852764,-0.6845810999999999,1.7856555
-10.852764,-0.6845810999999999,1.7856555
-10.852764,-0.6845810999999999,1.7856555
-9.493176,-0.9622433000000001,0.92394507
-9.493176,-0.9622433000000001,0.92394507
-9.493176,-0.9622433000000001,0.92394507
-9.493176,-0.9622433000000001,0.92394507
-9.493176,-0.9622433000000001,0.92394507
-7.9325233,-1.1250108,1.0101161
-7.9325233,-1.1250108,1.0101161
-7.9325233,-1.1250108,1.0101161
-7.9325233,-1.1250108,1.0101161
-7.4920936000000005,-1.4984187,0.93351966
-7.4920936000000005,-1.4984187,0.93351966
-7.4920936000000005,-1.4984187,0.93351966
-7.4920936000000005,-1.4984187,0.93351966
-9.062322,-1.4409714,0.37819514
-9.062322,-1.4409714,0.37819514
-9.062322,-1.4409714,0.37819514
-9.579348,-2.3122563,-0.110107444
-9.579348,-2.3122563,-0.110107444
-9.579348,-2.3122563,-0.110107444
-9.579348,-2.3122563,-0.110107444
-11.618729,-2.7239625,1.9196993000000002
-11.618729,-2.7239625,1.9196993000000002
-11.618729,-2.7239625,1.9196993000000002
-11.618729,-2.7239625,1.9196993000000002
-11.618729,-2.7239625,1.9196993000000002
-12.001712,-0.7324539000000001,1.7856555
-12.001712,-0.7324539000000001,1.7856555
-12.001712,-0.7324539000000001,1.7856555
-9.339984,-3.3271596,3.2888615
-9.339984,-3.3271596,3.2888615
-9.339984,-3.3271596,3.2888615
-9.339984,-3.3271596,3.2888615
-9.339984,-3.3271596,3.2888615
-8.736787,-1.6037389,-0.00478728
-8.736787,-1.6037389,-0.00478728
-8.736787,-1.6037389,-0.00478728
-8.736787,-1.6037389,-0.00478728
-9.770839,-3.2505634,-0.70373017
-9.770839,-3.2505634,-0.70373017
-9.770839,-3.2505634,-0.70373017
-9.320834,-3.0877957,0.49308985
-9.320834,-3.0877957,0.49308985
-9.320834,-3.0877957,0.49308985
-9.320834,-3.0877957,0.49308985
-9.320834,-3.0877957,0.49308985
-10.977234,-3.2888615,1.5654407
-10.977234,-3.2888615,1.5654407
-10.977234,-3.2888615,1.5654407
-10.977234,-3.2888615,1.5654407
-13.3612995,-3.8346114,1.4888442
-13.3612995,-3.8346114,1.4888442
-13.3612995,-3.8346114,1.4888442
-13.3612995,-3.8346114,1.4888442
-10.6134,-2.867581,1.5271424
-10.6134,-2.867581,1.5271424
-10.6134,-2.867581,1.5271424
-10.6134,-2.867581,1.5271424
-11.417664,-2.3026817000000004,0.6845810999999999
-11.417664,-2.3026817000000004,0.6845810999999999
-11.417664,-2.3026817000000004,0.6845810999999999
-11.417664,-2.3026817000000004,0.6845810999999999
-11.168725,-1.6037389,1.4313968000000001
-11.168725,-1.6037389,1.4313968000000001
-11.168725,-1.6037389,1.4313968000000001
-11.168725,-1.6037389,1.4313968000000001
-10.220842999999999,-1.6324625,1.2111819
-10.220842999999999,-1.6324625,1.2111819
-10.220842999999999,-1.6324625,1.2111819
-10.220842999999999,-1.6324625,1.2111819
-9.31126,-1.383524,0.19627848
-9.31126,-1.383524,0.19627848
-9.31126,-1.383524,0.19627848
-9.31126,-1.383524,0.19627848
-8.248484,-0.9622433000000001,0.70373017
-8.248484,-0.9622433000000001,0.70373017
-8.248484,-0.9622433000000001,0.70373017
-8.248484,-0.9622433000000001,0.70373017
-7.3676243,-1.1345854,0.90479594
-7.3676243,-1.1345854,0.90479594
-7.3676243,-1.1345854,0.90479594
-7.3676243,-1.1345854,0.90479594
-7.9037995,-1.8814011999999998,0.8186249
-7.9037995,-1.8814011999999998,0.8186249
-7.9037995,-1.8814011999999998,0.8186249
-7.9037995,-1.8814011999999998,0.8186249
-9.8953085,-2.3697037999999995,1.3452256999999999
-9.8953085,-2.3697037999999995,1.3452256999999999
-9.8953085,-2.3697037999999995,1.3452256999999999
-9.8953085,-2.3697037999999995,1.3452256999999999
-13.13151,-2.2260852000000004,2.4558747000000003
-13.13151,-2.2260852000000004,2.4558747000000003
-13.13151,-2.2260852000000004,2.4558747000000003
-13.13151,-2.2260852000000004,2.4558747000000003
-9.991054,-1.4122477,2.1111906000000005
-9.991054,-1.4122477,2.1111906000000005
-9.991054,-1.4122477,2.1111906000000005
-9.991054,-1.4122477,2.1111906000000005
-7.616563,-0.512239,2.0824668
-7.616563,-0.512239,2.0824668
-7.616563,-0.512239,2.0824668
-7.616563,-0.512239,2.0824668
-8.076141,-1.4888442,0.98139244
-8.076141,-1.4888442,0.98139244
-8.076141,-1.4888442,0.98139244
-8.076141,-1.4888442,0.98139244
-9.6942425,-2.9824755,0.37819514
-9.6942425,-2.9824755,0.37819514
-9.6942425,-2.9824755,0.37819514
-9.6942425,-2.9824755,0.37819514
-11.168725,-4.150572,-0.18670394
-11.168725,-4.150572,-0.18670394
-11.168725,-4.150572,-0.18670394
-11.168725,-4.150572,-0.18670394
-12.451715,-6.1229315,-0.3398969
-12.451715,-6.1229315,-0.3398969
-12.451715,-6.1229315,-0.3398969
-12.451715,-6.1229315,-0.3398969
-11.609155,-4.1792955,0.77075213
-11.609155,-4.1792955,0.77075213
-11.609155,-4.1792955,0.77075213
-11.609155,-4.1792955,0.77075213
-11.609155,-4.1792955,0.77075213
-11.26447,-2.8484317999999997,1.6516117
-11.26447,-2.8484317999999997,1.6516117
-11.26447,-2.8484317999999997,1.6516117
-11.168725,-1.7856555,1.1250108
-11.168725,-1.7856555,1.1250108
-11.168725,-1.7856555,1.1250108
-11.168725,-1.7856555,1.1250108
-10.498505999999999,-1.5079931999999998,1.9196993000000002
-10.498505999999999,-1.5079931999999998,1.9196993000000002
-10.498505999999999,-1.5079931999999998,1.9196993000000002
-10.498505999999999,-1.5079931999999998,1.9196993000000002
-10.498505999999999,-1.5079931999999998,1.9196993000000002
-9.971905,-1.7569318999999999,1.3739493999999999
-9.971905,-1.7569318999999999,1.3739493999999999
-9.971905,-1.7569318999999999,1.3739493999999999
-8.085716,-0.8186249,1.1824582000000001
-8.085716,-0.8186249,1.1824582000000001
-8.085716,-0.8186249,1.1824582000000001
-8.085716,-0.8186249,1.1824582000000001
-7.070812700000001,-0.93351966,1.6037389
-7.070812700000001,-0.93351966,1.6037389
-7.070812700000001,-0.93351966,1.6037389
-7.070812700000001,-0.93351966,1.6037389
-7.070812700000001,-0.93351966,1.6037389
-8.526146,-1.8814011999999998,1.0292653
-8.526146,-1.8814011999999998,1.0292653
-8.526146,-1.8814011999999998,1.0292653
-8.526146,-1.8814011999999998,1.0292653
-11.341067,-2.4654493,0.665432
-11.341067,-2.4654493,0.665432
-11.341067,-2.4654493,0.665432
-11.963413000000001,-2.2356597999999996,2.5420458
-11.963413000000001,-2.2356597999999996,2.5420458
-11.963413000000001,-2.2356597999999996,2.5420458
-11.963413000000001,-2.2356597999999996,2.5420458
-9.225089,-1.0005416,1.9005502
-9.225089,-1.0005416,1.9005502
-9.225089,-1.0005416,1.9005502
-9.225089,-1.0005416,1.9005502
-9.225089,-1.0005416,1.9005502
-8.34423,-1.1728836,1.3739493999999999
-8.34423,-1.1728836,1.3739493999999999
-8.34423,-1.1728836,1.3739493999999999
-8.803808,-2.494173,0.70373017
-8.803808,-2.494173,0.70373017
-8.803808,-2.494173,0.70373017
-8.803808,-2.494173,0.70373017
-8.803808,-2.494173,0.70373017
-9.608071,-3.518651,1.3548003
-9.608071,-3.518651,1.3548003
-9.608071,-3.518651,1.3548003
-9.608071,-3.518651,1.3548003
-9.991054,-3.0303482999999996,1.8143792
-9.991054,-3.0303482999999996,1.8143792
-9.991054,-3.0303482999999996,1.8143792
-11.7049,-2.8197080000000003,1.709059
-11.7049,-2.8197080000000003,1.709059
-11.7049,-2.8197080000000003,1.709059
-11.7049,-2.8197080000000003,1.709059
-11.7049,-2.8197080000000003,1.709059
-11.992137,-4.5335545999999995,1.1345854
-11.992137,-4.5335545999999995,1.1345854
-11.992137,-4.5335545999999995,1.1345854
-11.992137,-4.5335545999999995,1.1345854
-12.557036,-4.9356860000000005,0.043085523
-12.557036,-4.9356860000000005,0.043085523
-12.557036,-4.9356860000000005,0.043085523
-12.557036,-4.9356860000000005,0.043085523
-10.479357,-2.3697037999999995,0.39734426
-10.479357,-2.3697037999999995,0.39734426
-10.479357,-2.3697037999999995,0.39734426
-10.479357,-2.3697037999999995,0.39734426
-9.435728999999998,-1.0867126,1.5750152
-9.435728999999998,-1.0867126,1.5750152
-9.435728999999998,-1.0867126,1.5750152
-9.435728999999998,-1.0867126,1.5750152
-9.2825365,-0.99096704,1.469695
-9.2825365,-0.99096704,1.469695
-9.2825365,-0.99096704,1.469695
-9.2825365,-0.99096704,1.469695
-9.426155,-1.6037389,1.2494801000000002
-9.426155,-1.6037389,1.2494801000000002
-9.426155,-1.6037389,1.2494801000000002
-9.426155,-1.6037389,1.2494801000000002
-8.028269,-1.4409714,1.2399056
-8.028269,-1.4409714,1.2399056
-8.028269,-1.4409714,1.2399056
-8.028269,-1.4409714,1.2399056
-8.478273,-1.7282081999999999,1.2973529
-8.478273,-1.7282081999999999,1.2973529
-8.478273,-1.7282081999999999,1.2973529
-8.478273,-1.7282081999999999,1.2973529
-9.952755999999999,-2.2260852000000004,1.8431028999999999
-9.952755999999999,-2.2260852000000004,1.8431028999999999
-9.952755999999999,-2.2260852000000004,1.8431028999999999
-9.952755999999999,-2.2260852000000004,1.8431028999999999
-10.881488000000001,-2.101616,3.1452432
-10.881488000000001,-2.101616,3.1452432
-10.881488000000001,-2.101616,3.1452432
-10.881488000000001,-2.101616,3.1452432
-10.345312,-0.8186249,2.2452345
