accx,accy,accz
0.014361841,1.0867126,8.688913000000001
0.014361841,1.0867126,8.688913000000001
0.014361841,1.0867126,8.688913000000001
0.7228793,0.37819514,9.608071
0.7228793,0.37819514,9.608071
0.7228793,0.37819514,9.608071
0.7228793,0.37819514,9.608071
2.0824668,0.45479164,10.278291000000001
2.0824668,0.45479164,10.278291000000001
2.0824668,0.45479164,10.278291000000001
2.0824668,0.45479164,10.278291000000001
2.5324712000000003,0.43564250000000004,10.2016945
2.5324712000000003,0.43564250000000004,10.2016945
2.5324712000000003,0.43564250000000004,10.2016945
2.5324712000000003,0.43564250000000004,10.2016945
2.8963046,-0.2920241,9.847435
2.8963046,-0.2920241,9.847435
2.8963046,-0.2920241,9.847435
2.8963046,-0.2920241,9.847435
2.3505547000000004,0.2920241,9.31126
2.3505547000000004,0.2920241,9.31126
2.3505547000000004,0.2920241,9.31126
2.6282167000000003,0.50266445,8.842107
2.6282167000000003,0.50266445,8.842107
2.6282167000000003,0.50266445,8.842107
2.6282167000000003,0.50266445,8.842107
2.6282167000000003,0.50266445,8.842107
3.0973704,-0.43564250000000004,8.00912
3.0973704,-0.43564250000000004,8.00912
3.0973704,-0.43564250000000004,8.00912
3.4803526,0.30159867,7.9133744
3.4803526,0.30159867,7.9133744
3.4803526,0.30159867,7.9133744
3.4803526,0.30159867,7.9133744
3.0686467,0.30159867,6.936769
3.0686467,0.30159867,6.936769
3.0686467,0.30159867,6.936769
3.0686467,0.30159867,6.936769
3.0207740000000003,1.1537346000000002,5.806971
3.0207740000000003,1.1537346000000002,5.806971
3.0207740000000003,1.1537346000000002,5.806971
3.0207740000000003,1.1537346000000002,5.806971
4.9835587,-0.110107444,4.782493
4.9835587,-0.110107444,4.782493
4.9835587,-0.110107444,4.782493
4.9835587,-0.110107444,4.782493
6.946343400000001,-2.0058703,5.021857
6.946343400000001,-2.0058703,5.021857
6.946343400000001,-2.0058703,5.021857
6.946343400000001,-2.0058703,5.021857
9.54105,-3.9399316,5.711225499999999
9.54105,-3.9399316,5.711225499999999
9.54105,-3.9399316,5.711225499999999
9.54105,-3.9399316,5.711225499999999
10.919786,-6.438892,4.466532
10.919786,-6.438892,4.466532
10.919786,-6.438892,4.466532
10.919786,-6.438892,4.466532
11.475111,-6.936769,4.6005764000000005
11.475111,-6.936769,4.6005764000000005
11.475111,-6.936769,4.6005764000000005
11.475111,-6.936769,4.6005764000000005
10.632549000000001,-6.3527207,4.2175937
10.632549000000001,-6.3527207,4.2175937
10.632549000000001,-6.3527207,4.2175937
10.632549000000001,-6.3527207,4.2175937
9.54105,-4.868664,3.0207740000000003
9.54105,-4.868664,3.0207740000000003
9.54105,-4.868664,3.0207740000000003
9.54105,-4.868664,3.0207740000000003
10.029352000000001,-3.7292912000000005,2.2931072999999995
10.029352000000001,-3.7292912000000005,2.2931072999999995
10.029352000000001,-3.7292912000000005,2.2931072999999995
10.029352000000001,-3.7292912000000005,2.2931072999999995
9.330409,-3.3654580000000003,1.6228879999999999
9.330409,-3.3654580000000003,1.6228879999999999
9.330409,-3.3654580000000003,1.6228879999999999
9.330409,-3.3654580000000003,1.6228879999999999
9.320834,-3.0303482999999996,1.9101248
9.320834,-3.0303482999999996,1.9101248
9.320834,-3.0303482999999996,1.9101248
9.320834,-3.0303482999999996,1.9101248
9.5889225,-3.1739669999999998,1.4313968000000001
9.5889225,-3.1739669999999998,1.4313968000000001
9.5889225,-3.1739669999999998,1.4313968000000001
9.5889225,-3.1739669999999998,1.4313968000000001
9.5219,-3.1356685,1.5941644
9.5219,-3.1356685,1.5941644
9.5219,-3.1356685,1.5941644
9.5219,-3.1356685,1.5941644
9.64637,-2.867581,1.0101161
9.64637,-2.867581,1.0101161
9.64637,-2.867581,1.0101161
9.64637,-2.867581,1.0101161
9.474028,-2.752686,1.1537346000000002
9.474028,-2.752686,1.1537346000000002
9.474028,-2.752686,1.1537346000000002
9.474028,-2.752686,1.1537346000000002
9.617646,-2.5516202,0.83777404
9.617646,-2.5516202,0.83777404
9.617646,-2.5516202,0.83777404
9.617646,-2.5516202,0.83777404
9.780414,-2.561195,1.5175678999999997
9.780414,-2.561195,1.5175678999999997
9.780414,-2.561195,1.5175678999999997
9.780414,-2.561195,1.5175678999999997
9.464453,-2.321831,1.3452256999999999
9.464453,-2.321831,1.3452256999999999
9.464453,-2.321831,1.3452256999999999
9.464453,-2.321831,1.3452256999999999
9.550624000000001,-2.34098,1.383524
9.550624000000001,-2.34098,1.383524
9.550624000000001,-2.34098,1.383524
9.550624000000001,-2.34098,1.383524
9.531475,-2.4175766,1.4026731000000001
9.531475,-2.4175766,1.4026731000000001
9.531475,-2.4175766,1.4026731000000001
9.665519,-2.6186423,1.1537346000000002
9.665519,-2.6186423,1.1537346000000002
9.665519,-2.6186423,1.1537346000000002
9.665519,-2.6186423,1.1537346000000002
9.665519,-2.6186423,1.1537346000000002
9.636795,-2.5420458,1.2686293
9.636795,-2.5420458,1.2686293
9.636795,-2.5420458,1.2686293
9.550624000000001,-2.494173,1.1345854
9.550624000000001,-2.494173,1.1345854
9.550624000000001,-2.494173,1.1345854
9.550624000000001,-2.494173,1.1345854
9.531475,-2.5324712000000003,1.2111819
9.531475,-2.5324712000000003,1.2111819
9.531475,-2.5324712000000003,1.2111819
9.531475,-2.5324712000000003,1.2111819
9.512326,-2.4845984,1.2877783999999999
9.512326,-2.4845984,1.2877783999999999
9.512326,-2.4845984,1.2877783999999999
9.512326,-2.4845984,1.2877783999999999
9.569773,-2.427151,1.3165021000000001
9.569773,-2.427151,1.3165021000000001
9.569773,-2.427151,1.3165021000000001
9.569773,-2.427151,1.3165021000000001
9.713391,-2.4750240000000003,1.3930986
9.713391,-2.4750240000000003,1.3930986
9.713391,-2.4750240000000003,1.3930986
9.5889225,-2.427151,1.3069274
9.5889225,-2.427151,1.3069274
9.5889225,-2.427151,1.3069274
9.5889225,-2.427151,1.3069274
9.531475,-2.3792782000000003,1.3452256999999999
9.531475,-2.3792782000000003,1.3452256999999999
9.531475,-2.3792782000000003,1.3452256999999999
9.531475,-2.3792782000000003,1.3452256999999999
9.550624000000001,-2.3792782000000003,1.4026731000000001
9.550624000000001,-2.3792782000000003,1.4026731000000001
9.550624000000001,-2.3792782000000003,1.4026731000000001
9.550624000000001,-2.3792782000000003,1.4026731000000001
9.617646,-2.408002,1.3930986
9.617646,-2.408002,1.3930986
9.617646,-2.408002,1.3930986
9.617646,-2.408002,1.3930986
9.6942425,-2.427151,1.3452256999999999
9.6942425,-2.427151,1.3452256999999999
9.6942425,-2.427151,1.3452256999999999
9.6942425,-2.427151,1.3452256999999999
9.62722,-2.3888528,1.3452256999999999
9.62722,-2.3888528,1.3452256999999999
9.62722,-2.3888528,1.3452256999999999
9.62722,-2.3888528,1.3452256999999999
9.579348,-2.3505547000000004,1.2973529
9.579348,-2.3505547000000004,1.2973529
9.579348,-2.3505547000000004,1.2973529
9.579348,-2.3505547000000004,1.2973529
9.531475,-2.3792782000000003,1.383524
9.531475,-2.3792782000000003,1.383524
9.531475,-2.3792782000000003,1.383524
9.512326,-2.427151,1.383524
9.512326,-2.427151,1.383524
9.512326,-2.427151,1.383524
9.512326,-2.427151,1.383524
9.502751,-2.494173,1.3260766000000002
9.502751,-2.494173,1.3260766000000002
9.502751,-2.494173,1.3260766000000002
9.502751,-2.494173,1.3260766000000002
9.54105,-2.5420458,1.2207563999999997
9.54105,-2.5420458,1.2207563999999997
9.54105,-2.5420458,1.2207563999999997
9.54105,-2.5420458,1.2207563999999997
9.732541000000001,-2.6282167000000003,1.14416
9.732541000000001,-2.6282167000000003,1.14416
9.732541000000001,-2.6282167000000003,1.14416
9.732541000000001,-2.6282167000000003,1.14416
9.742115,-2.513322,1.1537346000000002
9.742115,-2.513322,1.1537346000000002
9.742115,-2.513322,1.1537346000000002
9.742115,-2.513322,1.1537346000000002
9.722966,-2.4845984,1.1537346000000002
9.722966,-2.4845984,1.1537346000000002
9.722966,-2.4845984,1.1537346000000002
9.722966,-2.4845984,1.1537346000000002
9.64637,-2.3792782000000003,1.2111819
9.64637,-2.3792782000000003,1.2111819
9.64637,-2.3792782000000003,1.2111819
9.655944,-2.3505547000000004,1.2111819
9.655944,-2.3505547000000004,1.2111819
9.655944,-2.3505547000000004,1.2111819
9.655944,-2.3505547000000004,1.2111819
9.655944,-2.3505547000000004,1.2111819
9.675094,-2.360129,1.2590546999999999
9.675094,-2.360129,1.2590546999999999
9.675094,-2.360129,1.2590546999999999
9.531475,-2.3122563,1.2207563999999997
9.531475,-2.3122563,1.2207563999999997
9.531475,-2.3122563,1.2207563999999997
9.531475,-2.3122563,1.2207563999999997
9.608071,-2.4175766,1.2207563999999997
9.608071,-2.4175766,1.2207563999999997
9.608071,-2.4175766,1.2207563999999997
9.608071,-2.4175766,1.2207563999999997
9.655944,-2.5037475,1.1728836
9.655944,-2.5037475,1.1728836
9.655944,-2.5037475,1.1728836
9.655944,-2.5037475,1.1728836
9.598496,-2.5037475,1.1633091
9.598496,-2.5037475,1.1633091
9.598496,-2.5037475,1.1633091
9.598496,-2.5037475,1.1633091
9.617646,-2.3984275,1.2399056
9.617646,-2.3984275,1.2399056
9.617646,-2.3984275,1.2399056
9.617646,-2.3984275,1.2399056
9.608071,-2.3792782000000003,1.2686293
9.608071,-2.3792782000000003,1.2686293
9.608071,-2.3792782000000003,1.2686293
9.608071,-2.3792782000000003,1.2686293
9.665519,-2.4175766,1.2111819
9.665519,-2.4175766,1.2111819
9.665519,-2.4175766,1.2111819
9.665519,-2.3888528,1.1920328000000002
9.665519,-2.3888528,1.1920328000000002
9.665519,-2.3888528,1.1920328000000002
9.665519,-2.3888528,1.1920328000000002
9.617646,-2.2643836,1.2494801000000002
9.617646,-2.2643836,1.2494801000000002
9.617646,-2.2643836,1.2494801000000002
9.617646,-2.2643836,1.2494801000000002
9.617646,-2.3122563,1.2590546999999999
9.617646,-2.3122563,1.2590546999999999
9.617646,-2.3122563,1.2590546999999999
9.617646,-2.3122563,1.2590546999999999
9.62722,-2.2643836,1.1345854
9.62722,-2.2643836,1.1345854
9.62722,-2.2643836,1.1345854
9.62722,-2.2643836,1.1345854
9.703816999999999,-2.3505547000000004,1.1824582000000001
9.703816999999999,-2.3505547000000004,1.1824582000000001
9.703816999999999,-2.3505547000000004,1.1824582000000001
9.703816999999999,-2.3505547000000004,1.1824582000000001
9.684667999999999,-2.3505547000000004,1.1728836
9.684667999999999,-2.3505547000000004,1.1728836
9.684667999999999,-2.3505547000000004,1.1728836
9.732541000000001,-2.3697037999999995,1.2016073
9.732541000000001,-2.3697037999999995,1.2016073
9.732541000000001,-2.3697037999999995,1.2016073
9.732541000000001,-2.3697037999999995,1.2016073
9.732541000000001,-2.3697037999999995,1.2016073
9.732541000000001,-2.321831,1.1824582000000001
9.732541000000001,-2.321831,1.1824582000000001
9.732541000000001,-2.321831,1.1824582000000001
9.5219,-2.2739582,1.1824582000000001
9.5219,-2.2739582,1.1824582000000001
9.5219,-2.2739582,1.1824582000000001
9.5219,-2.2739582,1.1824582000000001
9.598496,-2.3026817000000004,1.1154363
9.598496,-2.3026817000000004,1.1154363
9.598496,-2.3026817000000004,1.1154363
9.598496,-2.3026817000000004,1.1154363
9.703816999999999,-2.34098,1.0579889
9.703816999999999,-2.34098,1.0579889
9.703816999999999,-2.34098,1.0579889
9.703816999999999,-2.34098,1.0579889
9.550624000000001,-2.3026817000000004,1.0867126
9.550624000000001,-2.3026817000000004,1.0867126
9.550624000000001,-2.3026817000000004,1.0867126
9.550624000000001,-2.3026817000000004,1.0867126
9.598496,-2.360129,1.1920328000000002
9.598496,-2.360129,1.1920328000000002
9.598496,-2.360129,1.1920328000000002
9.569773,-2.3697037999999995,1.14416
9.569773,-2.3697037999999995,1.14416
9.569773,-2.3697037999999995,1.14416
9.569773,-2.3697037999999995,1.14416
9.569773,-2.3697037999999995,1.14416
9.780414,-2.4463003,1.2782038
9.780414,-2.4463003,1.2782038
9.780414,-2.4463003,1.2782038
9.847435,-2.34098,1.0962871
9.847435,-2.34098,1.0962871
9.847435,-2.34098,1.0962871
9.847435,-2.34098,1.0962871
9.54105,-2.2931072999999995,1.1058618
9.54105,-2.2931072999999995,1.1058618
9.54105,-2.2931072999999995,1.1058618
9.54105,-2.2931072999999995,1.1058618
9.569773,-2.2835326,0.92394507
9.569773,-2.2835326,0.92394507
9.569773,-2.2835326,0.92394507
9.569773,-2.2835326,0.92394507
9.75169,-2.3505547000000004,0.9718179
9.75169,-2.3505547000000004,0.9718179
9.75169,-2.3505547000000004,0.9718179
9.75169,-2.3505547000000004,0.9718179
9.636795,-2.254809,1.0484143
9.636795,-2.254809,1.0484143
9.636795,-2.254809,1.0484143
9.636795,-2.254809,1.0484143
9.64637,-2.2165107999999996,0.9526688
9.64637,-2.2165107999999996,0.9526688
9.64637,-2.2165107999999996,0.9526688
9.64637,-2.2165107999999996,0.9526688
9.761265,-2.3314054,0.92394507
9.761265,-2.3314054,0.92394507
9.761265,-2.3314054,0.92394507
9.761265,-2.3314054,0.92394507
9.407005,-2.2165107999999996,0.9526688
9.407005,-2.2165107999999996,0.9526688
9.407005,-2.2165107999999996,0.9526688
9.407005,-2.2165107999999996,0.9526688
9.177217,-2.321831,0.9430941999999999
9.177217,-2.321831,0.9430941999999999
9.177217,-2.321831,0.9430941999999999
9.177217,-2.321831,0.9430941999999999
9.091045,-2.6186423,1.0962871
9.091045,-2.6186423,1.0962871
9.091045,-2.6186423,1.0962871
8.736787,-2.5420458,1.0101161
8.736787,-2.5420458,1.0101161
8.736787,-2.5420458,1.0101161
8.736787,-2.5420458,1.0101161
8.736787,-2.5420458,1.0101161
8.631466,-2.8101335,0.359046
8.631466,-2.8101335,0.359046
8.631466,-2.8101335,0.359046
11.513409,-3.2026904,0.5792609000000001
11.513409,-3.2026904,0.5792609000000001
11.513409,-3.2026904,0.5792609000000001
11.513409,-3.2026904,0.5792609000000001
9.75169,-2.9537517999999996,0.12925656
9.75169,-2.9537517999999996,0.12925656
9.75169,-2.9537517999999996,0.12925656
9.75169,-2.9537517999999996,0.12925656
9.75169,-2.9537517999999996,0.12925656
9.598496,-2.8101335,0.2441513
9.598496,-2.8101335,0.2441513
9.598496,-2.8101335,0.2441513
10.728295,-2.5037475,0.47394073
10.728295,-2.5037475,0.47394073
10.728295,-2.5037475,0.47394073
10.728295,-2.5037475,0.47394073
10.479357,-2.1973617,0.3398969
10.479357,-2.1973617,0.3398969
10.479357,-2.1973617,0.3398969
10.479357,-2.1973617,0.3398969
10.555953,-2.3792782000000003,0.14840569
10.555953,-2.3792782000000003,0.14840569
10.555953,-2.3792782000000003,0.14840569
10.555953,-2.3792782000000003,0.14840569
12.2410755,-2.513322,-0.49308985
12.2410755,-2.513322,-0.49308985
12.2410755,-2.513322,-0.49308985
12.2410755,-2.513322,-0.49308985
14.701737,-1.7569318999999999,-1.3069274
14.701737,-1.7569318999999999,-1.3069274
14.701737,-1.7569318999999999,-1.3069274
14.701737,-1.7569318999999999,-1.3069274
13.849601999999999,-1.2303311000000001,-0.9622433000000001
13.849601999999999,-1.2303311000000001,-0.9622433000000001
13.849601999999999,-1.2303311000000001,-0.9622433000000001
13.849601999999999,-1.2303311000000001,-0.9622433000000001
7.329325999999999,1.5750152,-0.9718179
7.329325999999999,1.5750152,-0.9718179
7.329325999999999,1.5750152,-0.9718179
9.837861,-0.32074776,-0.5505372
9.837861,-0.32074776,-0.5505372
9.837861,-0.32074776,-0.5505372
9.837861,-0.32074776,-0.5505372
9.837861,-0.32074776,-0.5505372
7.559115400000001,0.0718092,-0.17712937
7.559115400000001,0.0718092,-0.17712937
7.559115400000001,0.0718092,-0.17712937
6.544212,-0.98139244,0.043085523
6.544212,-0.98139244,0.043085523
6.544212,-0.98139244,0.043085523
6.544212,-0.98139244,0.043085523
6.0750585,-0.40691882,0.64628285
6.0750585,-0.40691882,0.64628285
6.0750585,-0.40691882,0.64628285
6.0750585,-0.40691882,0.64628285
6.0750585,-0.40691882,0.64628285
7.7027339999999995,-0.8856468000000001,0.7420284
7.7027339999999995,-0.8856468000000001,0.7420284
7.7027339999999995,-0.8856468000000001,0.7420284
10.833615,-1.9101248,1.3165021000000001
10.833615,-1.9101248,1.3165021000000001
10.833615,-1.9101248,1.3165021000000001
10.833615,-1.9101248,1.3165021000000001
13.035764,-1.709059,0.91437054
13.035764,-1.709059,0.91437054
13.035764,-1.709059,0.91437054
13.035764,-1.709059,0.91437054
16.329411999999998,-3.4229053999999994,0.9526688
16.329411999999998,-3.4229053999999994,0.9526688
16.329411999999998,-3.4229053999999994,0.9526688
16.329411999999998,-3.4229053999999994,0.9526688
9.904882,-2.3792782000000003,1.1920328000000002
9.904882,-2.3792782000000003,1.1920328000000002
9.904882,-2.3792782000000003,1.1920328000000002
9.904882,-2.3792782000000003,1.1920328000000002
10.555953,-2.3697037999999995,0.63670826
10.555953,-2.3697037999999995,0.63670826
10.555953,-2.3697037999999995,0.63670826
9.378282,-1.7282081999999999,0.7324539000000001
9.378282,-1.7282081999999999,0.7324539000000001
9.378282,-1.7282081999999999,0.7324539000000001
9.378282,-1.7282081999999999,0.7324539000000001
9.378282,-1.7282081999999999,0.7324539000000001
7.1474094,-1.7665064,0.10053288
7.1474094,-1.7665064,0.10053288
7.1474094,-1.7665064,0.10053288
7.080387599999999,-1.7282081999999999,-0.18670394
7.080387599999999,-1.7282081999999999,-0.18670394
7.080387599999999,-1.7282081999999999,-0.18670394
7.080387599999999,-1.7282081999999999,-0.18670394
7.8176284,-1.8048046999999998,-0.14840569
7.8176284,-1.8048046999999998,-0.14840569
7.8176284,-1.8048046999999998,-0.14840569
7.8176284,-1.8048046999999998,-0.14840569
10.632549000000001,-2.2835326,-0.32074776
10.632549000000001,-2.2835326,-0.32074776
10.632549000000001,-2.2835326,-0.32074776
10.632549000000001,-2.2835326,-0.32074776
14.146413,-2.5516202,-0.5313880999999999
14.146413,-2.5516202,-0.5313880999999999
14.146413,-2.5516202,-0.5313880999999999
14.146413,-2.5516202,-0.5313880999999999
15.055995999999999,-2.321831,-0.63670826
15.055995999999999,-2.321831,-0.63670826
15.055995999999999,-2.321831,-0.63670826
15.055995999999999,-2.321831,-0.63670826
10.92936,-1.8814011999999998,0.85692316
10.92936,-1.8814011999999998,0.85692316
10.92936,-1.8814011999999998,0.85692316
10.92936,-1.8814011999999998,0.85692316
9.780414,-0.6271336999999999,0.42606795
9.780414,-0.6271336999999999,0.42606795
9.780414,-0.6271336999999999,0.42606795
9.780414,-0.6271336999999999,0.42606795
8.028269,-1.7665064,1.5654407
8.028269,-1.7665064,1.5654407
8.028269,-1.7665064,1.5654407
8.028269,-1.7665064,1.5654407
5.692076,-1.1920328000000002,1.3452256999999999
5.692076,-1.1920328000000002,1.3452256999999999
5.692076,-1.1920328000000002,1.3452256999999999
5.692076,-1.1920328000000002,1.3452256999999999
6.620808599999999,-1.2973529,1.5845897
6.620808599999999,-1.2973529,1.5845897
6.620808599999999,-1.2973529,1.5845897
8.018694,-1.4409714,1.4601203999999999
8.018694,-1.4409714,1.4601203999999999
8.018694,-1.4409714,1.4601203999999999
8.018694,-1.4409714,1.4601203999999999
8.018694,-1.4409714,1.4601203999999999
10.125097,-1.709059,1.4026731000000001
10.125097,-1.709059,1.4026731000000001
10.125097,-1.709059,1.4026731000000001
12.231501,-2.2739582,0.9526688
12.231501,-2.2739582,0.9526688
12.231501,-2.2739582,0.9526688
12.231501,-2.2739582,0.9526688
14.634716000000001,-2.8197080000000003,0.76117754
14.634716000000001,-2.8197080000000003,0.76117754
14.634716000000001,-2.8197080000000003,0.76117754
14.634716000000001,-2.8197080000000003,0.76117754
14.634716000000001,-2.8197080000000003,0.76117754
12.384694,-2.8197080000000003,0.8952214
12.384694,-2.8197080000000003,0.8952214
12.384694,-2.8197080000000003,0.8952214
9.8953085,-1.862252,0.54096264
9.8953085,-1.862252,0.54096264
9.8953085,-1.862252,0.54096264
9.8953085,-1.862252,0.54096264
9.8953085,-1.862252,0.54096264
10.986808,-2.149489,0.76117754
10.986808,-2.149489,0.76117754
10.986808,-2.149489,0.76117754
10.986808,-2.149489,0.76117754
8.602742,-1.383524,0.32074776
8.602742,-1.383524,0.32074776
8.602742,-1.383524,0.32074776
7.310177,-1.1920328000000002,0.03351096
7.310177,-1.1920328000000002,0.03351096
7.310177,-1.1920328000000002,0.03351096
7.310177,-1.1920328000000002,0.03351096
7.310177,-1.1920328000000002,0.03351096
6.592085000000001,-1.1058618,-0.05266008
6.592085000000001,-1.1058618,-0.05266008
6.592085000000001,-1.1058618,-0.05266008
6.592085000000001,-1.1058618,-0.05266008
8.229335,-1.7952299999999999,0.043085523
8.229335,-1.7952299999999999,0.043085523
8.229335,-1.7952299999999999,0.043085523
8.229335,-1.7952299999999999,0.043085523
12.595334,-2.1303396,-0.03351096
12.595334,-2.1303396,-0.03351096
12.595334,-2.1303396,-0.03351096
14.826207,-1.948423,-0.28244954
14.826207,-1.948423,-0.28244954
14.826207,-1.948423,-0.28244954
14.826207,-1.948423,-0.28244954
14.826207,-1.948423,-0.28244954
15.324084,-2.8101335,0.22500217
15.324084,-2.8101335,0.22500217
15.324084,-2.8101335,0.22500217
7.8846507,-1.0388398,0.91437054
7.8846507,-1.0388398,0.91437054
7.8846507,-1.0388398,0.91437054
7.8846507,-1.0388398,0.91437054
9.675094,-1.6420371999999999,1.2686293
9.675094,-1.6420371999999999,1.2686293
9.675094,-1.6420371999999999,1.2686293
9.675094,-1.6420371999999999,1.2686293
9.675094,-1.6420371999999999,1.2686293
7.080387599999999,-1.3930986,1.5750152
7.080387599999999,-1.3930986,1.5750152
7.080387599999999,-1.3930986,1.5750152
6.5154879999999995,-1.6994845,1.7952299999999999
6.5154879999999995,-1.6994845,1.7952299999999999
6.5154879999999995,-1.6994845,1.7952299999999999
6.5154879999999995,-1.6994845,1.7952299999999999
7.0037910000000005,-1.8335283,1.8909756999999998
7.0037910000000005,-1.8335283,1.8909756999999998
7.0037910000000005,-1.8335283,1.8909756999999998
7.0037910000000005,-1.8335283,1.8909756999999998
8.842107,-2.0058703,2.2165107999999996
8.842107,-2.0058703,2.2165107999999996
8.842107,-2.0058703,2.2165107999999996
8.842107,-2.0058703,2.2165107999999996
11.522984,-2.168638,2.0824668
11.522984,-2.168638,2.0824668
11.522984,-2.168638,2.0824668
11.522984,-2.168638,2.0824668
14.701737,-2.6856642,1.3548003
14.701737,-2.6856642,1.3548003
14.701737,-2.6856642,1.3548003
14.701737,-2.6856642,1.3548003
14.682589000000002,-3.6622693999999996,1.6803354
14.682589000000002,-3.6622693999999996,1.6803354
14.682589000000002,-3.6622693999999996,1.6803354
14.682589000000002,-3.6622693999999996,1.6803354
14.682589000000002,-3.6622693999999996,1.6803354
9.5219,-1.709059,0.70373017
9.5219,-1.709059,0.70373017
9.5219,-1.709059,0.70373017
11.302769,-2.3314054,0.91437054
11.302769,-2.3314054,0.91437054
11.302769,-2.3314054,0.91437054
11.302769,-2.3314054,0.91437054
7.9325233,-1.2590546999999999,0.48351530000000004
7.9325233,-1.2590546999999999,0.48351530000000004
7.9325233,-1.2590546999999999,0.48351530000000004
7.9325233,-1.2590546999999999,0.48351530000000004
6.3718699999999995,-1.6324625,-0.023936402000000002
6.3718699999999995,-1.6324625,-0.023936402000000002
6.3718699999999995,-1.6324625,-0.023936402000000002
6.3718699999999995,-1.6324625,-0.023936402000000002
7.693159,-1.7952299999999999,0.062234644000000006
7.693159,-1.7952299999999999,0.062234644000000006
7.693159,-1.7952299999999999,0.062234644000000006
7.693159,-1.7952299999999999,0.062234644000000006
10.316589,-1.948423,-0.00478728
10.316589,-1.948423,-0.00478728
10.316589,-1.948423,-0.00478728
10.316589,-1.948423,-0.00478728
12.174053,-2.1590632999999997,-0.20585304
12.174053,-2.1590632999999997,-0.20585304
12.174053,-2.1590632999999997,-0.20585304
12.174053,-2.1590632999999997,-0.20585304
14.175137,-2.0441686999999997,-1.1728836
14.175137,-2.0441686999999997,-1.1728836
14.175137,-2.0441686999999997,-1.1728836
14.175137,-2.0441686999999997,-1.1728836
12.7964,-2.6760897999999997,1.0771381000000002
12.7964,-2.6760897999999997,1.0771381000000002
12.7964,-2.6760897999999997,1.0771381000000002
12.7964,-2.6760897999999997,1.0771381000000002
9.177217,-0.7994758000000001,-0.34947145
9.177217,-0.7994758000000001,-0.34947145
9.177217,-0.7994758000000001,-0.34947145
9.177217,-0.7994758000000001,-0.34947145
9.119769,-2.0633178,2.0824668
9.119769,-2.0633178,2.0824668
9.119769,-2.0633178,2.0824668
5.845269,-1.1633091,1.7377827000000001
5.845269,-1.1633091,1.7377827000000001
5.845269,-1.1633091,1.7377827000000001
5.845269,-1.1633091,1.7377827000000001
5.845269,-1.1633091,1.7377827000000001
6.9080452999999995,-1.776081,1.7952299999999999
6.9080452999999995,-1.776081,1.7952299999999999
6.9080452999999995,-1.776081,1.7952299999999999
9.024023,-1.6324625,2.4175766
9.024023,-1.6324625,2.4175766
9.024023,-1.6324625,2.4175766
9.024023,-1.6324625,2.4175766
11.867668,-2.0441686999999997,2.714388
11.867668,-2.0441686999999997,2.714388
11.867668,-2.0441686999999997,2.714388
11.867668,-2.0441686999999997,2.714388
14.242159,-2.2835326,1.7665064
14.242159,-2.2835326,1.7665064
14.242159,-2.2835326,1.7665064
14.242159,-2.2835326,1.7665064
15.563448000000001,-3.6526947,2.1973617
15.563448000000001,-3.6526947,2.1973617
15.563448000000001,-3.6526947,2.1973617
15.563448000000001,-3.6526947,2.1973617
9.828286,-2.0250196,0.63670826
9.828286,-2.0250196,0.63670826
9.828286,-2.0250196,0.63670826
9.828286,-2.0250196,0.63670826
12.260224000000001,-1.948423,0.48351530000000004
12.260224000000001,-1.948423,0.48351530000000004
12.260224000000001,-1.948423,0.48351530000000004
9.071896,-1.3643749,0.40691882
9.071896,-1.3643749,0.40691882
9.071896,-1.3643749,0.40691882
9.071896,-1.3643749,0.40691882
7.022939999999999,-1.4792696,-0.27287498
7.022939999999999,-1.4792696,-0.27287498
7.022939999999999,-1.4792696,-0.27287498
7.022939999999999,-1.4792696,-0.27287498
7.0133657000000005,-1.7665064,-0.5505372
7.0133657000000005,-1.7665064,-0.5505372
7.0133657000000005,-1.7665064,-0.5505372
7.0133657000000005,-1.7665064,-0.5505372
8.516571,-1.7377827000000001,-0.359046
8.516571,-1.7377827000000001,-0.359046
8.516571,-1.7377827000000001,-0.359046
8.516571,-1.7377827000000001,-0.359046
10.622974000000001,-2.4367256,-0.03351096
10.622974000000001,-2.4367256,-0.03351096
10.622974000000001,-2.4367256,-0.03351096
10.622974000000001,-2.4367256,-0.03351096
13.686834,-1.9675721999999998,-0.2920241
13.686834,-1.9675721999999998,-0.2920241
13.686834,-1.9675721999999998,-0.2920241
13.686834,-1.9675721999999998,-0.2920241
14.74961,-2.4367256,0.98139244
14.74961,-2.4367256,0.98139244
14.74961,-2.4367256,0.98139244
8.545295,-1.6611862000000002,1.2399056
8.545295,-1.6611862000000002,1.2399056
8.545295,-1.6611862000000002,1.2399056
8.545295,-1.6611862000000002,1.2399056
8.545295,-1.6611862000000002,1.2399056
10.364462,-1.948423,1.5462915000000002
10.364462,-1.948423,1.5462915000000002
10.364462,-1.948423,1.5462915000000002
7.4154973,-1.6899098999999997,2.3505547000000004
7.4154973,-1.6899098999999997,2.3505547000000004
7.4154973,-1.6899098999999997,2.3505547000000004
7.4154973,-1.6899098999999997,2.3505547000000004
7.042089,-1.3548003,2.101616
7.042089,-1.3548003,2.101616
7.042089,-1.3548003,2.101616
7.042089,-1.3548003,2.101616
8.181462,-1.8048046999999998,2.3314054
8.181462,-1.8048046999999998,2.3314054
8.181462,-1.8048046999999998,2.3314054
8.181462,-1.8048046999999998,2.3314054
9.7899885,-2.1590632999999997,2.4654493
9.7899885,-2.1590632999999997,2.4654493
9.7899885,-2.1590632999999997,2.4654493
9.7899885,-2.1590632999999997,2.4654493
11.522984,-2.168638,1.8718264999999998
11.522984,-2.168638,1.8718264999999998
11.522984,-2.168638,1.8718264999999998
11.522984,-2.168638,1.8718264999999998
15.151742,-2.9154537,1.7282081999999999
15.151742,-2.9154537,1.7282081999999999
15.151742,-2.9154537,1.7282081999999999
15.151742,-2.9154537,1.7282081999999999
14.462373999999999,-3.3750327000000007,1.9675721999999998
14.462373999999999,-3.3750327000000007,1.9675721999999998
14.462373999999999,-3.3750327000000007,1.9675721999999998
14.462373999999999,-3.3750327000000007,1.9675721999999998
9.215514,-1.7952299999999999,0.20585304
9.215514,-1.7952299999999999,0.20585304
9.215514,-1.7952299999999999,0.20585304
9.215514,-1.7952299999999999,0.20585304
11.570856,-2.0537431,0.49308985
11.570856,-2.0537431,0.49308985
11.570856,-2.0537431,0.49308985
11.570856,-2.0537431,0.49308985
8.277207,-1.2399056,0.59841
8.277207,-1.2399056,0.59841
8.277207,-1.2399056,0.59841
8.277207,-1.2399056,0.59841
6.1612295999999995,-1.709059,-0.25372586
6.1612295999999995,-1.709059,-0.25372586
6.1612295999999995,-1.709059,-0.25372586
6.1612295999999995,-1.709059,-0.25372586
7.137835000000001,-2.5899186000000003,-0.63670826
7.137835000000001,-2.5899186000000003,-0.63670826
7.137835000000001,-2.5899186000000003,-0.63670826
7.137835000000001,-2.5899186000000003,-0.63670826
8.909127999999999,-2.3026817000000004,-0.30159867
8.909127999999999,-2.3026817000000004,-0.30159867
8.909127999999999,-2.3026817000000004,-0.30159867
11.465536,-2.4654493,-0.39734426
11.465536,-2.4654493,-0.39734426
11.465536,-2.4654493,-0.39734426
11.465536,-2.4654493,-0.39734426
13.198531,-2.3697037999999995,0.27287498
13.198531,-2.3697037999999995,0.27287498
13.198531,-2.3697037999999995,0.27287498
13.198531,-2.3697037999999995,0.27287498
13.945347,-1.9867213,1.9579976000000003
13.945347,-1.9867213,1.9579976000000003
13.945347,-1.9867213,1.9579976000000003
13.945347,-1.9867213,1.9579976000000003
8.708063000000001,-2.2165107999999996,2.360129
8.708063000000001,-2.2165107999999996,2.360129
8.708063000000001,-2.2165107999999996,2.360129
8.708063000000001,-2.2165107999999996,2.360129
9.943181,-1.0005416,1.5367169
9.943181,-1.0005416,1.5367169
9.943181,-1.0005416,1.5367169
9.943181,-1.0005416,1.5367169
7.855927,-1.1728836,1.9388485
7.855927,-1.1728836,1.9388485
7.855927,-1.1728836,1.9388485
7.855927,-1.1728836,1.9388485
6.47719,-2.1303396,2.1111906000000005
6.47719,-2.1303396,2.1111906000000005
6.47719,-2.1303396,2.1111906000000005
7.300602400000001,-1.6516117,1.6707608
7.300602400000001,-1.6516117,1.6707608
7.300602400000001,-1.6516117,1.6707608
7.300602400000001,-1.6516117,1.6707608
7.300602400000001,-1.6516117,1.6707608
8.152739,-1.8431028999999999,1.7856555
8.152739,-1.8431028999999999,1.7856555
8.152739,-1.8431028999999999,1.7856555
8.296356,-2.2835326,1.9771467
8.296356,-2.2835326,1.9771467
8.296356,-2.2835326,1.9771467
8.296356,-2.2835326,1.9771467
8.401677000000001,-2.1303396,1.9579976000000003
8.401677000000001,-2.1303396,1.9579976000000003
8.401677000000001,-2.1303396,1.9579976000000003
8.401677000000001,-2.1303396,1.9579976000000003
11.867668,-2.8771553,0.8473485999999999
11.867668,-2.8771553,0.8473485999999999
11.867668,-2.8771553,0.8473485999999999
11.867668,-2.8771553,0.8473485999999999
13.734707,-4.2654667,1.5175678999999997
13.734707,-4.2654667,1.5175678999999997
13.734707,-4.2654667,1.5175678999999997
13.734707,-4.2654667,1.5175678999999997
14.184710999999998,-3.2984362000000003,-0.9622433000000001
14.184710999999998,-3.2984362000000003,-0.9622433000000001
14.184710999999998,-3.2984362000000003,-0.9622433000000001
14.184710999999998,-3.2984362000000003,-0.9622433000000001
11.15915,-2.408002,0.44521707
11.15915,-2.408002,0.44521707
11.15915,-2.408002,0.44521707
11.15915,-2.408002,0.44521707
9.225089,-2.0824668,-0.37819514
9.225089,-2.0824668,-0.37819514
9.225089,-2.0824668,-0.37819514
9.215514,-2.867581,-0.43564250000000004
9.215514,-2.867581,-0.43564250000000004
9.215514,-2.867581,-0.43564250000000004
9.215514,-2.867581,-0.43564250000000004
9.3878565,-2.6282167000000003,-0.6271336999999999
9.3878565,-2.6282167000000003,-0.6271336999999999
9.3878565,-2.6282167000000003,-0.6271336999999999
9.3878565,-2.6282167000000003,-0.6271336999999999
9.636795,-2.8388572,-0.93351966
9.636795,-2.8388572,-0.93351966
9.636795,-2.8388572,-0.93351966
9.636795,-2.8388572,-0.93351966
10.2016945,-2.714388,-0.69415563
10.2016945,-2.714388,-0.69415563
10.2016945,-2.714388,-0.69415563
10.2016945,-2.714388,-0.69415563
11.59958,-1.7186337,0.17712937
11.59958,-1.7186337,0.17712937
11.59958,-1.7186337,0.17712937
11.59958,-1.7186337,0.17712937
12.365545,-0.8856468000000001,0.8664976999999999
12.365545,-0.8856468000000001,0.8664976999999999
12.365545,-0.8856468000000001,0.8664976999999999
12.365545,-0.8856468000000001,0.8664976999999999
8.2676325,-0.45479164,2.5899186000000003
8.2676325,-0.45479164,2.5899186000000003
8.2676325,-0.45479164,2.5899186000000003
12.145328999999998,0.34947145,1.6037389
12.145328999999998,0.34947145,1.6037389
12.145328999999998,0.34947145,1.6037389
12.145328999999998,0.34947145,1.6037389
9.18679,2.0824668,3.8824842000000004
9.18679,2.0824668,3.8824842000000004
9.18679,2.0824668,3.8824842000000004
9.18679,2.0824668,3.8824842000000004
7.8272033,0.9526688,3.1548176
7.8272033,0.9526688,3.1548176
7.8272033,0.9526688,3.1548176
7.8272033,0.9526688,3.1548176
8.918703,0.90479594,2.666515
8.918703,0.90479594,2.666515
8.918703,0.90479594,2.666515
8.918703,0.90479594,2.666515
9.742115,-0.42606795,2.3792782000000003
9.742115,-0.42606795,2.3792782000000003
9.742115,-0.42606795,2.3792782000000003
9.742115,-0.42606795,2.3792782000000003
10.891063,-1.6803354,2.168638
10.891063,-1.6803354,2.168638
10.891063,-1.6803354,2.168638
11.7336235,-2.0441686999999997,1.4792696
11.7336235,-2.0441686999999997,1.4792696
11.7336235,-2.0441686999999997,1.4792696
11.7336235,-2.0441686999999997,1.4792696
11.7336235,-2.0441686999999997,1.4792696
15.477276999999999,-3.2218397000000003,0.5888355
15.477276999999999,-3.2218397000000003,0.5888355
15.477276999999999,-3.2218397000000003,0.5888355
12.422992,-3.3080106,-0.45479164
12.422992,-3.3080106,-0.45479164
12.422992,-3.3080106,-0.45479164
12.422992,-3.3080106,-0.45479164
13.763431,-2.8197080000000003,0.16755481
13.763431,-2.8197080000000003,0.16755481
13.763431,-2.8197080000000003,0.16755481
13.763431,-2.8197080000000003,0.16755481
11.542132,-1.2590546999999999,-0.22500217
11.542132,-1.2590546999999999,-0.22500217
11.542132,-1.2590546999999999,-0.22500217
11.542132,-1.2590546999999999,-0.22500217
9.617646,-0.8281995000000001,-0.05266008
9.617646,-0.8281995000000001,-0.05266008
9.617646,-0.8281995000000001,-0.05266008
9.617646,-0.8281995000000001,-0.05266008
7.808053999999999,-1.5367169,-0.359046
7.808053999999999,-1.5367169,-0.359046
7.808053999999999,-1.5367169,-0.359046
7.808053999999999,-1.5367169,-0.359046
7.5303917,-1.5271424,-0.6750065
7.5303917,-1.5271424,-0.6750065
7.5303917,-1.5271424,-0.6750065
7.5303917,-1.5271424,-0.6750065
9.531475,-1.9388485,-0.3111732
9.531475,-1.9388485,-0.3111732
9.531475,-1.9388485,-0.3111732
11.570856,-1.5558661,0.22500217
11.570856,-1.5558661,0.22500217
11.570856,-1.5558661,0.22500217
11.570856,-1.5558661,0.22500217
14.251732999999998,-1.2590546999999999,-0.15798025
14.251732999999998,-1.2590546999999999,-0.15798025
14.251732999999998,-1.2590546999999999,-0.15798025
14.251732999999998,-1.2590546999999999,-0.15798025
9.339984,-0.69415563,0.42606795
9.339984,-0.69415563,0.42606795
9.339984,-0.69415563,0.42606795
9.339984,-0.69415563,0.42606795
10.517653999999999,-1.3452256999999999,0.32074776
10.517653999999999,-1.3452256999999999,0.32074776
10.517653999999999,-1.3452256999999999,0.32074776
10.517653999999999,-1.3452256999999999,0.32074776
10.661273,-1.5845897,2.2165107999999996
10.661273,-1.5845897,2.2165107999999996
10.661273,-1.5845897,2.2165107999999996
10.661273,-1.5845897,2.2165107999999996
9.167641999999999,-1.0101161,2.101616
9.167641999999999,-1.0101161,2.101616
9.167641999999999,-1.0101161,2.101616
9.167641999999999,-1.0101161,2.101616
10.326163000000001,-1.8814011999999998,2.4654493
10.326163000000001,-1.8814011999999998,2.4654493
10.326163000000001,-1.8814011999999998,2.4654493
10.326163000000001,-1.8814011999999998,2.4654493
11.05383,-1.9579976000000003,3.5856729
11.05383,-1.9579976000000003,3.5856729
11.05383,-1.9579976000000003,3.5856729
11.05383,-1.9579976000000003,3.5856729
10.757019,-2.6377914000000002,3.0111992
10.757019,-2.6377914000000002,3.0111992
10.757019,-2.6377914000000002,3.0111992
10.757019,-2.6377914000000002,3.0111992
13.083637,-3.0207740000000003,2.8484317999999997
13.083637,-3.0207740000000003,2.8484317999999997
13.083637,-3.0207740000000003,2.8484317999999997
13.083637,-3.0207740000000003,2.8484317999999997
13.916623999999999,-2.7909843999999997,2.321831
13.916623999999999,-2.7909843999999997,2.321831
13.916623999999999,-2.7909843999999997,2.321831
13.916623999999999,-2.7909843999999997,2.321831
9.550624000000001,-1.8909756999999998,0.90479594
9.550624000000001,-1.8909756999999998,0.90479594
9.550624000000001,-1.8909756999999998,0.90479594
12.154904,-2.3314054,0.46436617
12.154904,-2.3314054,0.46436617
12.154904,-2.3314054,0.46436617
12.154904,-2.3314054,0.46436617
11.226172,-1.7473572,0.512239
11.226172,-1.7473572,0.512239
11.226172,-1.7473572,0.512239
11.226172,-1.7473572,0.512239
8.439975,-1.3643749,-0.25372586
8.439975,-1.3643749,-0.25372586
8.439975,-1.3643749,-0.25372586
8.439975,-1.3643749,-0.25372586
7.4250717,-1.8048046999999998,-0.69415563
7.4250717,-1.8048046999999998,-0.69415563
7.4250717,-1.8048046999999998,-0.69415563
7.4250717,-1.8048046999999998,-0.69415563
9.96233,-1.6707608,-0.3877697
9.96233,-1.6707608,-0.3877697
9.96233,-1.6707608,-0.3877697
9.96233,-1.6707608,-0.3877697
12.557036,-0.45479164,-0.16755481
12.557036,-0.45479164,-0.16755481
12.557036,-0.45479164,-0.16755481
12.557036,-0.45479164,-0.16755481
13.840027,-0.17712937,-1.2877783999999999
13.840027,-0.17712937,-1.2877783999999999
13.840027,-0.17712937,-1.2877783999999999
13.840027,-0.17712937,-1.2877783999999999
11.235746,-0.69415563,0.6845810999999999
11.235746,-0.69415563,0.6845810999999999
11.235746,-0.69415563,0.6845810999999999
11.235746,-0.69415563,0.6845810999999999
8.899554,-0.00478728,-0.0718092
8.899554,-0.00478728,-0.0718092
8.899554,-0.00478728,-0.0718092
8.899554,-0.00478728,-0.0718092
10.125097,-0.7324539000000001,1.4313968000000001
10.125097,-0.7324539000000001,1.4313968000000001
10.125097,-0.7324539000000001,1.4313968000000001
8.32508,-0.40691882,1.7186337
8.32508,-0.40691882,1.7186337
8.32508,-0.40691882,1.7186337
8.32508,-0.40691882,1.7186337
8.32508,-0.40691882,1.7186337
8.66019,-0.2920241,1.9388485
8.66019,-0.2920241,1.9388485
8.66019,-0.2920241,1.9388485
9.043172,-0.9430941999999999,2.1207652
9.043172,-0.9430941999999999,2.1207652
9.043172,-0.9430941999999999,2.1207652
9.043172,-0.9430941999999999,2.1207652
10.766592999999999,-2.2835326,2.34098
10.766592999999999,-2.2835326,2.34098
10.766592999999999,-2.2835326,2.34098
10.766592999999999,-2.2835326,2.34098
13.121935,-2.4845984,2.5707695
13.121935,-2.4845984,2.5707695
13.121935,-2.4845984,2.5707695
13.121935,-2.4845984,2.5707695
15.410255,-4.1984449999999995,2.9537517999999996
15.410255,-4.1984449999999995,2.9537517999999996
15.410255,-4.1984449999999995,2.9537517999999996
15.410255,-4.1984449999999995,2.9537517999999996
9.033598,-3.3654580000000003,2.3505547000000004
9.033598,-3.3654580000000003,2.3505547000000004
9.033598,-3.3654580000000003,2.3505547000000004
9.033598,-3.3654580000000003,2.3505547000000004
10.565528,-1.8239537000000001,1.5558661
10.565528,-1.8239537000000001,1.5558661
10.565528,-1.8239537000000001,1.5558661
10.000628,-1.8143792,1.0388398
10.000628,-1.8143792,1.0388398
10.000628,-1.8143792,1.0388398
10.000628,-1.8143792,1.0388398
8.765511,-1.469695,0.3111732
8.765511,-1.469695,0.3111732
8.765511,-1.469695,0.3111732
8.765511,-1.469695,0.3111732
8.392102000000001,-1.9675721999999998,0.0
8.392102000000001,-1.9675721999999998,0.0
8.392102000000001,-1.9675721999999998,0.0
8.392102000000001,-1.9675721999999998,0.0
9.818711,-1.9005502,-0.2920241
9.818711,-1.9005502,-0.2920241
9.818711,-1.9005502,-0.2920241
9.818711,-1.9005502,-0.2920241
11.350641,-0.98139244,0.28244954
11.350641,-0.98139244,0.28244954
11.350641,-0.98139244,0.28244954
11.350641,-0.98139244,0.28244954
13.255979,0.16755481,-1.8048046999999998
13.255979,0.16755481,-1.8048046999999998
13.255979,0.16755481,-1.8048046999999998
13.255979,0.16755481,-1.8048046999999998
14.108115,-1.0675635,-0.3398969
14.108115,-1.0675635,-0.3398969
14.108115,-1.0675635,-0.3398969
8.66019,1.1537346000000002,-1.0196906
8.66019,1.1537346000000002,-1.0196906
8.66019,1.1537346000000002,-1.0196906
8.66019,1.1537346000000002,-1.0196906
8.66019,1.1537346000000002,-1.0196906
10.776167999999998,-0.92394507,0.70373017
10.776167999999998,-0.92394507,0.70373017
10.776167999999998,-0.92394507,0.70373017
7.2335806,-0.3111732,1.3452256999999999
7.2335806,-0.3111732,1.3452256999999999
7.2335806,-0.3111732,1.3452256999999999
7.2335806,-0.3111732,1.3452256999999999
9.426155,-1.3165021000000001,1.2016073
9.426155,-1.3165021000000001,1.2016073
9.426155,-1.3165021000000001,1.2016073
9.426155,-1.3165021000000001,1.2016073
8.966576,-1.8048046999999998,1.776081
8.966576,-1.8048046999999998,1.776081
8.966576,-1.8048046999999998,1.776081
8.966576,-1.8048046999999998,1.776081
10.105948,-1.8335283,3.078221
10.105948,-1.8335283,3.078221
10.105948,-1.8335283,3.078221
10.105948,-1.8335283,3.078221
12.212352000000001,-2.2739582,2.561195
12.212352000000001,-2.2739582,2.561195
12.212352000000001,-2.2739582,2.561195
12.212352000000001,-2.2739582,2.561195
15.63047,-3.8346114,3.0111992
15.63047,-3.8346114,3.0111992
15.63047,-3.8346114,3.0111992
15.63047,-3.8346114,3.0111992
9.904882,-2.0728923999999997,1.6899098999999997
9.904882,-2.0728923999999997,1.6899098999999997
9.904882,-2.0728923999999997,1.6899098999999997
10.757019,-1.1537346000000002,1.383524
10.757019,-1.1537346000000002,1.383524
10.757019,-1.1537346000000002,1.383524
10.757019,-1.1537346000000002,1.383524
10.40276,-1.1154363,1.4888442
10.40276,-1.1154363,1.4888442
10.40276,-1.1154363,1.4888442
10.40276,-1.1154363,1.4888442
8.669764500000001,-1.0388398,-0.5218136
8.669764500000001,-1.0388398,-0.5218136
8.669764500000001,-1.0388398,-0.5218136
8.669764500000001,-1.0388398,-0.5218136
8.459125,-1.3739493999999999,-1.1345854
8.459125,-1.3739493999999999,-1.1345854
8.459125,-1.3739493999999999,-1.1345854
8.459125,-1.3739493999999999,-1.1345854
8.928278,-0.9526688,-1.6611862000000002
8.928278,-0.9526688,-1.6611862000000002
8.928278,-0.9526688,-1.6611862000000002
8.928278,-0.9526688,-1.6611862000000002
12.279374,-0.16755481,-0.6845810999999999
12.279374,-0.16755481,-0.6845810999999999
12.279374,-0.16755481,-0.6845810999999999
14.510245999999999,1.0005416,-3.6143966
14.510245999999999,1.0005416,-3.6143966
14.510245999999999,1.0005416,-3.6143966
14.510245999999999,1.0005416,-3.6143966
13.916623999999999,-0.39734426,-1.1537346000000002
13.916623999999999,-0.39734426,-1.1537346000000002
13.916623999999999,-0.39734426,-1.1537346000000002
13.916623999999999,-0.39734426,-1.1537346000000002
10.287866000000001,0.48351530000000004,-0.56011176
10.287866000000001,0.48351530000000004,-0.56011176
10.287866000000001,0.48351530000000004,-0.56011176
10.287866000000001,0.48351530000000004,-0.56011176
9.5219,-0.43564250000000004,0.2920241
9.5219,-0.43564250000000004,0.2920241
9.5219,-0.43564250000000004,0.2920241
9.5219,-0.43564250000000004,0.2920241
7.5782647,-0.9526688,1.5558661
7.5782647,-0.9526688,1.5558661
7.5782647,-0.9526688,1.5558661
7.5782647,-0.9526688,1.5558661
8.229335,-1.1920328000000002,2.0920415
8.229335,-1.1920328000000002,2.0920415
8.229335,-1.1920328000000002,2.0920415
8.229335,-1.1920328000000002,2.0920415
9.64637,-0.92394507,2.2643836
9.64637,-0.92394507,2.2643836
9.64637,-0.92394507,2.2643836
11.360216000000001,-1.4984187,2.8580062
11.360216000000001,-1.4984187,2.8580062
11.360216000000001,-1.4984187,2.8580062
11.360216000000001,-1.4984187,2.8580062
11.360216000000001,-1.4984187,2.8580062
11.982562,-2.1590632999999997,1.9867213
11.982562,-2.1590632999999997,1.9867213
11.982562,-2.1590632999999997,1.9867213
16.252817,-3.7005677,2.494173
16.252817,-3.7005677,2.494173
16.252817,-3.7005677,2.494173
16.252817,-3.7005677,2.494173
10.230417999999998,-1.8143792,2.408002
10.230417999999998,-1.8143792,2.408002
10.230417999999998,-1.8143792,2.408002
10.230417999999998,-1.8143792,2.408002
9.598496,-3.6622693999999996,0.56011176
9.598496,-3.6622693999999996,0.56011176
9.598496,-3.6622693999999996,0.56011176
9.598496,-3.6622693999999996,0.56011176
10.307014,-2.8101335,1.1250108
10.307014,-2.8101335,1.1250108
10.307014,-2.8101335,1.1250108
10.307014,-2.8101335,1.1250108
7.654861,-1.9292740000000002,0.26330042
7.654861,-1.9292740000000002,0.26330042
7.654861,-1.9292740000000002,0.26330042
7.654861,-1.9292740000000002,0.26330042
8.248484,-2.34098,-0.2920241
8.248484,-2.34098,-0.2920241
8.248484,-2.34098,-0.2920241
8.248484,-2.34098,-0.2920241
10.326163000000001,-1.5654407,-0.92394507
10.326163000000001,-1.5654407,-0.92394507
10.326163000000001,-1.5654407,-0.92394507
11.905966000000001,-1.1154363,-0.93351966
11.905966000000001,-1.1154363,-0.93351966
11.905966000000001,-1.1154363,-0.93351966
11.905966000000001,-1.1154363,-0.93351966
12.643207,0.5792609000000001,-2.5707695
12.643207,0.5792609000000001,-2.5707695
12.643207,0.5792609000000001,-2.5707695
12.643207,0.5792609000000001,-2.5707695
14.223009,-1.14416,-1.1058618
14.223009,-1.14416,-1.1058618
14.223009,-1.14416,-1.1058618
14.223009,-1.14416,-1.1058618
9.876159,1.6803354,-0.33032233
9.876159,1.6803354,-0.33032233
9.876159,1.6803354,-0.33032233
9.876159,1.6803354,-0.33032233
11.829369999999999,-0.665432,-0.0718092
11.829369999999999,-0.665432,-0.0718092
11.829369999999999,-0.665432,-0.0718092
11.829369999999999,-0.665432,-0.0718092
8.2676325,-0.42606795,1.5079931999999998
8.2676325,-0.42606795,1.5079931999999998
8.2676325,-0.42606795,1.5079931999999998
7.9995449999999995,-1.8048046999999998,2.2069361
7.9995449999999995,-1.8048046999999998,2.2069361
7.9995449999999995,-1.8048046999999998,2.2069361
7.9995449999999995,-1.8048046999999998,2.2069361
7.9995449999999995,-1.8048046999999998,2.2069361
9.397431,-0.78990126,3.3175852
9.397431,-0.78990126,3.3175852
9.397431,-0.78990126,3.3175852
10.565528,-0.9430941999999999,3.4612036
10.565528,-0.9430941999999999,3.4612036
10.565528,-0.9430941999999999,3.4612036
10.565528,-0.9430941999999999,3.4612036
11.072979,-2.6760897999999997,3.3175852
11.072979,-2.6760897999999997,3.3175852
11.072979,-2.6760897999999997,3.3175852
11.072979,-2.6760897999999997,3.3175852
13.34215,-3.1356685,2.867581
13.34215,-3.1356685,2.867581
13.34215,-3.1356685,2.867581
13.34215,-3.1356685,2.867581
13.255979,-2.9346027,2.4750240000000003
13.255979,-2.9346027,2.4750240000000003
13.255979,-2.9346027,2.4750240000000003
13.255979,-2.9346027,2.4750240000000003
9.263388,-1.862252,0.5218136
9.263388,-1.862252,0.5218136
9.263388,-1.862252,0.5218136
9.263388,-1.862252,0.5218136
11.771922,-2.4750240000000003,-0.14840569
11.771922,-2.4750240000000003,-0.14840569
11.771922,-2.4750240000000003,-0.14840569
11.771922,-2.4750240000000003,-0.14840569
9.818711,-2.321831,-1.14416
9.818711,-2.321831,-1.14416
9.818711,-2.321831,-1.14416
8.506997,-2.666515,-1.5462915000000002
8.506997,-2.666515,-1.5462915000000002
8.506997,-2.666515,-1.5462915000000002
8.506997,-2.666515,-1.5462915000000002
7.7793303,-2.5420458,-1.3548003
7.7793303,-2.5420458,-1.3548003
7.7793303,-2.5420458,-1.3548003
7.7793303,-2.5420458,-1.3548003
9.253813000000001,-2.4558747000000003,-1.2686293
9.253813000000001,-2.4558747000000003,-1.2686293
9.253813000000001,-2.4558747000000003,-1.2686293
9.253813000000001,-2.4558747000000003,-1.2686293
11.1208515,-2.5803439999999997,-1.1633091
11.1208515,-2.5803439999999997,-1.1633091
11.1208515,-2.5803439999999997,-1.1633091
11.1208515,-2.5803439999999997,-1.1633091
10.996383,-0.76117754,-1.1154363
10.996383,-0.76117754,-1.1154363
10.996383,-0.76117754,-1.1154363
10.996383,-0.76117754,-1.1154363
10.862339,0.26330042,0.33032233
10.862339,0.26330042,0.33032233
10.862339,0.26330042,0.33032233
10.862339,0.26330042,0.33032233
8.909127999999999,1.8239537000000001,1.3739493999999999
8.909127999999999,1.8239537000000001,1.3739493999999999
8.909127999999999,1.8239537000000001,1.3739493999999999
11.676176,0.512239,1.3739493999999999
11.676176,0.512239,1.3739493999999999
11.676176,0.512239,1.3739493999999999
11.676176,0.512239,1.3739493999999999
9.091045,1.2303311000000001,2.6569404999999997
9.091045,1.2303311000000001,2.6569404999999997
9.091045,1.2303311000000001,2.6569404999999997
9.091045,1.2303311000000001,2.6569404999999997
8.516571,1.1250108,2.88673
8.516571,1.1250108,2.88673
8.516571,1.1250108,2.88673
8.516571,1.1250108,2.88673
8.688913000000001,-0.5313880999999999,3.2792869
8.688913000000001,-0.5313880999999999,3.2792869
8.688913000000001,-0.5313880999999999,3.2792869
8.688913000000001,-0.5313880999999999,3.2792869
8.688913000000001,-0.5313880999999999,3.2792869
9.608071,-1.3739493999999999,3.4995019999999997
9.608071,-1.3739493999999999,3.4995019999999997
9.608071,-1.3739493999999999,3.4995019999999997
10.105948,-1.1633091,3.039923
10.105948,-1.1633091,3.039923
10.105948,-1.1633091,3.039923
10.105948,-1.1633091,3.039923
10.105948,-1.1633091,3.039923
10.105948,-1.1633091,3.039923
10.105948,-1.1633091,3.039923
10.105948,-1.1633091,3.039923
13.179382,-3.9686553,0.93351966
13.179382,-3.9686553,0.93351966
13.179382,-3.9686553,0.93351966
12.834699,-3.4324798999999997,-0.48351530000000004
12.834699,-3.4324798999999997,-0.48351530000000004
12.834699,-3.4324798999999997,-0.48351530000000004
12.834699,-3.4324798999999997,-0.48351530000000004
12.403843,-2.9250283,-0.05266008
12.403843,-2.9250283,-0.05266008
12.403843,-2.9250283,-0.05266008
12.403843,-2.9250283,-0.05266008
10.249566999999999,-1.5079931999999998,-0.3877697
10.249566999999999,-1.5079931999999998,-0.3877697
10.249566999999999,-1.5079931999999998,-0.3877697
10.249566999999999,-1.5079931999999998,-0.3877697
10.249566999999999,-1.5079931999999998,-0.3877697
8.851681,-1.5941644,-0.34947145
8.851681,-1.5941644,-0.34947145
8.851681,-1.5941644,-0.34947145
8.861256,-2.0920415,-0.77075213
8.861256,-2.0920415,-0.77075213
8.861256,-2.0920415,-0.77075213
8.861256,-2.0920415,-0.77075213
9.215514,-1.9005502,-0.3877697
9.215514,-1.9005502,-0.3877697
9.215514,-1.9005502,-0.3877697
9.215514,-1.9005502,-0.3877697
9.215514,-1.9005502,-0.3877697
9.62722,-0.93351966,-0.062234644000000006
9.62722,-0.93351966,-0.062234644000000006
9.62722,-0.93351966,-0.062234644000000006
11.72405,-0.76117754,0.2441513
11.72405,-0.76117754,0.2441513
11.72405,-0.76117754,0.2441513
11.72405,-0.76117754,0.2441513
11.72405,-0.76117754,0.2441513
11.092129,-0.25372586,1.7952299999999999
11.092129,-0.25372586,1.7952299999999999
11.092129,-0.25372586,1.7952299999999999
11.092129,-0.25372586,1.7952299999999999
10.450633,0.10053288,1.1345854
10.450633,0.10053288,1.1345854
10.450633,0.10053288,1.1345854
11.925115,-0.36862057,3.4707782
11.925115,-0.36862057,3.4707782
11.925115,-0.36862057,3.4707782
11.925115,-0.36862057,3.4707782
11.925115,-0.36862057,3.4707782
9.598496,-0.25372586,3.4324798999999997
9.598496,-0.25372586,3.4324798999999997
9.598496,-0.25372586,3.4324798999999997
9.598496,-0.25372586,3.4324798999999997
9.5219,-0.77075213,3.0877957
9.5219,-0.77075213,3.0877957
9.5219,-0.77075213,3.0877957
9.5219,-0.77075213,3.0877957
9.742115,-1.1345854,2.972901
9.742115,-1.1345854,2.972901
9.742115,-1.1345854,2.972901
9.742115,-1.1345854,2.972901
10.5080805,-2.1303396,3.4133307999999998
10.5080805,-2.1303396,3.4133307999999998
10.5080805,-2.1303396,3.4133307999999998
10.5080805,-2.1303396,3.4133307999999998
12.490014,-3.4324798999999997,1.7665064
12.490014,-3.4324798999999997,1.7665064
12.490014,-3.4324798999999997,1.7665064
12.490014,-3.4324798999999997,1.7665064
15.534723999999999,-4.246317400000001,1.4888442
15.534723999999999,-4.246317400000001,1.4888442
15.534723999999999,-4.246317400000001,1.4888442
15.534723999999999,-4.246317400000001,1.4888442
10.766592999999999,-2.015445,0.69415563
10.766592999999999,-2.015445,0.69415563
10.766592999999999,-2.015445,0.69415563
10.766592999999999,-2.015445,0.69415563
14.127264000000002,-2.5803439999999997,0.16755481
14.127264000000002,-2.5803439999999997,0.16755481
14.127264000000002,-2.5803439999999997,0.16755481
14.127264000000002,-2.5803439999999997,0.16755481
11.714475,-0.78032666,-0.44521707
11.714475,-0.78032666,-0.44521707
11.714475,-0.78032666,-0.44521707
11.714475,-0.78032666,-0.44521707
9.301685,-0.34947145,-0.42606795
9.301685,-0.34947145,-0.42606795
9.301685,-0.34947145,-0.42606795
9.301685,-0.34947145,-0.42606795
8.028269,-1.7569318999999999,-0.22500217
8.028269,-1.7569318999999999,-0.22500217
8.028269,-1.7569318999999999,-0.22500217
8.028269,-1.7569318999999999,-0.22500217
8.2676325,-1.6516117,-0.44521707
8.2676325,-1.6516117,-0.44521707
8.2676325,-1.6516117,-0.44521707
8.2676325,-1.6516117,-0.44521707
9.991054,-0.9430941999999999,-0.4164934
9.991054,-0.9430941999999999,-0.4164934
9.991054,-0.9430941999999999,-0.4164934
9.991054,-0.9430941999999999,-0.4164934
12.202777000000001,-0.5792609000000001,-1.1345854
12.202777000000001,-0.5792609000000001,-1.1345854
12.202777000000001,-0.5792609000000001,-1.1345854
12.202777000000001,-0.5792609000000001,-1.1345854
14.021944,-1.7952299999999999,-0.0718092
14.021944,-1.7952299999999999,-0.0718092
14.021944,-1.7952299999999999,-0.0718092
14.021944,-1.7952299999999999,-0.0718092
10.316589,0.110107444,-0.10053288
10.316589,0.110107444,-0.10053288
10.316589,0.110107444,-0.10053288
10.316589,0.110107444,-0.10053288
13.0549135,-1.3069274,0.46436617
13.0549135,-1.3069274,0.46436617
13.0549135,-1.3069274,0.46436617
13.0549135,-1.3069274,0.46436617
10.594251,-2.0537431,1.7665064
10.594251,-2.0537431,1.7665064
10.594251,-2.0537431,1.7665064
10.594251,-2.0537431,1.7665064
10.804892,-2.321831,2.3505547000000004
10.804892,-2.321831,2.3505547000000004
10.804892,-2.321831,2.3505547000000004
10.804892,-2.321831,2.3505547000000004
10.804892,-2.321831,2.3505547000000004
10.517653999999999,-2.4750240000000003,3.0686467
10.517653999999999,-2.4750240000000003,3.0686467
10.517653999999999,-2.4750240000000003,3.0686467
10.393186,-3.5378,3.8058877
10.393186,-3.5378,3.8058877
10.393186,-3.5378,3.8058877
10.393186,-3.5378,3.8058877
11.513409,-3.930357,3.9112080000000002
11.513409,-3.930357,3.9112080000000002
11.513409,-3.930357,3.9112080000000002
11.513409,-3.930357,3.9112080000000002
14.20386,-4.4473834000000005,2.905879
14.20386,-4.4473834000000005,2.905879
14.20386,-4.4473834000000005,2.905879
14.20386,-4.4473834000000005,2.905879
14.050668,-3.4707782,2.2452345
14.050668,-3.4707782,2.2452345
14.050668,-3.4707782,2.2452345
14.050668,-3.4707782,2.2452345
11.302769,-2.5899186000000003,0.14840569
11.302769,-2.5899186000000003,0.14840569
11.302769,-2.5899186000000003,0.14840569
11.302769,-2.5899186000000003,0.14840569
13.591088000000001,-2.561195,0.16755481
13.591088000000001,-2.561195,0.16755481
13.591088000000001,-2.561195,0.16755481
13.591088000000001,-2.561195,0.16755481
13.591088000000001,-2.561195,0.16755481
9.770839,-0.48351530000000004,-1.6420371999999999
9.770839,-0.48351530000000004,-1.6420371999999999
9.770839,-0.48351530000000004,-1.6420371999999999
7.875075999999999,-0.23457673,-1.4792696
7.875075999999999,-0.23457673,-1.4792696
7.875075999999999,-0.23457673,-1.4792696
7.875075999999999,-0.23457673,-1.4792696
8.535721,-0.78032666,-1.6133133999999998
8.535721,-0.78032666,-1.6133133999999998
8.535721,-0.78032666,-1.6133133999999998
8.535721,-0.78032666,-1.6133133999999998
9.244238000000001,-0.14840569,-0.59841
9.244238000000001,-0.14840569,-0.59841
9.244238000000001,-0.14840569,-0.59841
9.244238000000001,-0.14840569,-0.59841
12.480439,-1.1537346000000002,0.0718092
12.480439,-1.1537346000000002,0.0718092
12.480439,-1.1537346000000002,0.0718092
12.480439,-1.1537346000000002,0.0718092
13.227255,-0.91437054,1.4505458999999998
13.227255,-0.91437054,1.4505458999999998
13.227255,-0.91437054,1.4505458999999998
13.227255,-0.91437054,1.4505458999999998
11.254896,-1.9771467,2.733537
11.254896,-1.9771467,2.733537
11.254896,-1.9771467,2.733537
11.254896,-1.9771467,2.733537
8.746361,-1.4984187,1.0962871
8.746361,-1.4984187,1.0962871
8.746361,-1.4984187,1.0962871
8.746361,-1.4984187,1.0962871
9.608071,-2.0537431,3.0207740000000003
9.608071,-2.0537431,3.0207740000000003
9.608071,-2.0537431,3.0207740000000003
9.608071,-2.0537431,3.0207740000000003
6.333572,-1.3930986,2.7048132000000003
6.333572,-1.3930986,2.7048132000000003
6.333572,-1.3930986,2.7048132000000003
6.333572,-1.3930986,2.7048132000000003
8.1623125,-1.4505458999999998,3.2505634
8.1623125,-1.4505458999999998,3.2505634
8.1623125,-1.4505458999999998,3.2505634
8.1623125,-1.4505458999999998,3.2505634
9.904882,-2.6760897999999997,2.4175766
9.904882,-2.6760897999999997,2.4175766
9.904882,-2.6760897999999997,2.4175766
9.904882,-2.6760897999999997,2.4175766
12.212352000000001,-4.1122737,2.800559
12.212352000000001,-4.1122737,2.800559
12.212352000000001,-4.1122737,2.800559
12.212352000000001,-4.1122737,2.800559
14.32833,-3.5569491,2.34098
14.32833,-3.5569491,2.34098
14.32833,-3.5569491,2.34098
14.32833,-3.5569491,2.34098
10.795316999999999,-2.8292825,2.6377914000000002
10.795316999999999,-2.8292825,2.6377914000000002
10.795316999999999,-2.8292825,2.6377914000000002
10.795316999999999,-2.8292825,2.6377914000000002
10.795316999999999,-2.8292825,2.6377914000000002
8.708063000000001,-2.4558747000000003,1.1728836
8.708063000000001,-2.4558747000000003,1.1728836
8.708063000000001,-2.4558747000000003,1.1728836
9.493176,-2.2739582,1.5845897
9.493176,-2.2739582,1.5845897
9.493176,-2.2739582,1.5845897
9.493176,-2.2739582,1.5845897
7.482519,-1.6037389,0.56011176
7.482519,-1.6037389,0.56011176
7.482519,-1.6037389,0.56011176
7.482519,-1.6037389,0.56011176
7.9133744,-1.7186337,0.13883112
7.9133744,-1.7186337,0.13883112
7.9133744,-1.7186337,0.13883112
7.9133744,-1.7186337,0.13883112
10.182545,-1.4122477,-0.043085523
10.182545,-1.4122477,-0.043085523
10.182545,-1.4122477,-0.043085523
10.182545,-1.4122477,-0.043085523
11.49426,-1.8718264999999998,0.3398969
11.49426,-1.8718264999999998,0.3398969
11.49426,-1.8718264999999998,0.3398969
11.49426,-1.8718264999999998,0.3398969
12.327247,-2.1207652,0.13883112
12.327247,-2.1207652,0.13883112
12.327247,-2.1207652,0.13883112
12.327247,-2.1207652,0.13883112
12.777251,-1.8526775000000002,0.10053288
12.777251,-1.8526775000000002,0.10053288
12.777251,-1.8526775000000002,0.10053288
12.777251,-1.8526775000000002,0.10053288
8.688913000000001,-0.56968635,0.90479594
8.688913000000001,-0.56968635,0.90479594
8.688913000000001,-0.56968635,0.90479594
8.688913000000001,-0.56968635,0.90479594
10.977234,-1.1633091,0.48351530000000004
10.977234,-1.1633091,0.48351530000000004
10.977234,-1.1633091,0.48351530000000004
10.977234,-1.1633091,0.48351530000000004
7.8272033,-0.8952214,1.3930986
7.8272033,-0.8952214,1.3930986
7.8272033,-0.8952214,1.3930986
7.8272033,-0.8952214,1.3930986
7.329325999999999,-0.6750065,2.0058703
7.329325999999999,-0.6750065,2.0058703
7.329325999999999,-0.6750065,2.0058703
7.329325999999999,-0.6750065,2.0058703
8.401677000000001,-1.1058618,1.5462915000000002
8.401677000000001,-1.1058618,1.5462915000000002
8.401677000000001,-1.1058618,1.5462915000000002
8.401677000000001,-1.1058618,1.5462915000000002
11.072979,-2.101616,2.6377914000000002
11.072979,-2.101616,2.6377914000000002
11.072979,-2.101616,2.6377914000000002
11.072979,-2.101616,2.6377914000000002
13.083637,-3.3941817000000003,3.2505634
13.083637,-3.3941817000000003,3.2505634
13.083637,-3.3941817000000003,3.2505634
13.083637,-3.3941817000000003,3.2505634
15.477276999999999,-3.9207826,2.8388572
15.477276999999999,-3.9207826,2.8388572
15.477276999999999,-3.9207826,2.8388572
15.477276999999999,-3.9207826,2.8388572
8.631466,-2.6282167000000003,1.8909756999999998
8.631466,-2.6282167000000003,1.8909756999999998
8.631466,-2.6282167000000003,1.8909756999999998
8.631466,-2.6282167000000003,1.8909756999999998
10.29744,-3.1643922000000004,1.2590546999999999
10.29744,-3.1643922000000004,1.2590546999999999
10.29744,-3.1643922000000004,1.2590546999999999
10.29744,-3.1643922000000004,1.2590546999999999
9.924032,-1.8048046999999998,1.7856555
9.924032,-1.8048046999999998,1.7856555
9.924032,-1.8048046999999998,1.7856555
9.924032,-1.8048046999999998,1.7856555
7.855927,-0.6845810999999999,1.2207563999999997
7.855927,-0.6845810999999999,1.2207563999999997
7.855927,-0.6845810999999999,1.2207563999999997
7.855927,-0.6845810999999999,1.2207563999999997
8.191036,-1.3548003,0.5792609000000001
8.191036,-1.3548003,0.5792609000000001
8.191036,-1.3548003,0.5792609000000001
8.191036,-1.3548003,0.5792609000000001
9.617646,-0.7324539000000001,0.359046
9.617646,-0.7324539000000001,0.359046
9.617646,-0.7324539000000001,0.359046
9.617646,-0.7324539000000001,0.359046
11.858092999999998,-0.56968635,-0.0718092
11.858092999999998,-0.56968635,-0.0718092
11.858092999999998,-0.56968635,-0.0718092
11.858092999999998,-0.56968635,-0.0718092
13.351725,-0.13883112,-1.0579889
13.351725,-0.13883112,-1.0579889
13.351725,-0.13883112,-1.0579889
13.351725,-0.13883112,-1.0579889
13.227255,-0.93351966,-1.0962871
13.227255,-0.93351966,-1.0962871
13.227255,-0.93351966,-1.0962871
13.227255,-0.93351966,-1.0962871
8.382527,0.48351530000000004,0.15798025
8.382527,0.48351530000000004,0.15798025
8.382527,0.48351530000000004,0.15798025
8.382527,0.48351530000000004,0.15798025
10.958084,-0.27287498,0.5888355
10.958084,-0.27287498,0.5888355
10.958084,-0.27287498,0.5888355
10.958084,-0.27287498,0.5888355
8.133589,0.15798025,1.7377827000000001
8.133589,0.15798025,1.7377827000000001
8.133589,0.15798025,1.7377827000000001
8.133589,0.15798025,1.7377827000000001
8.755936,-0.8090504,2.0633178
8.755936,-0.8090504,2.0633178
8.755936,-0.8090504,2.0633178
8.755936,-0.8090504,2.0633178
9.378282,-1.0484143,2.9154537
9.378282,-1.0484143,2.9154537
9.378282,-1.0484143,2.9154537
9.378282,-1.0484143,2.9154537
11.178299,-3.2792869,4.342063
11.178299,-3.2792869,4.342063
11.178299,-3.2792869,4.342063
11.178299,-3.2792869,4.342063
13.897473999999999,-4.0644007,4.1601467
13.897473999999999,-4.0644007,4.1601467
13.897473999999999,-4.0644007,4.1601467
13.897473999999999,-4.0644007,4.1601467
15.812386499999999,-4.3707867,3.3654580000000003
15.812386499999999,-4.3707867,3.3654580000000003
15.812386499999999,-4.3707867,3.3654580000000003
15.812386499999999,-4.3707867,3.3654580000000003
9.129342999999999,-2.2643836,1.4122477
9.129342999999999,-2.2643836,1.4122477
9.129342999999999,-2.2643836,1.4122477
9.129342999999999,-2.2643836,1.4122477
11.570856,-2.4750240000000003,1.1345854
11.570856,-2.4750240000000003,1.1345854
11.570856,-2.4750240000000003,1.1345854
11.570856,-2.4750240000000003,1.1345854
9.636795,-1.9388485,0.56968635
9.636795,-1.9388485,0.56968635
9.636795,-1.9388485,0.56968635
7.587839,-1.3260766000000002,-0.32074776
7.587839,-1.3260766000000002,-0.32074776
7.587839,-1.3260766000000002,-0.32074776
7.587839,-1.3260766000000002,-0.32074776
7.587839,-1.3260766000000002,-0.32074776
8.296356,-2.1207652,-0.32074776
8.296356,-2.1207652,-0.32074776
8.296356,-2.1207652,-0.32074776
8.296356,-2.1207652,-0.32074776
9.742115,-1.9867213,-0.39734426
9.742115,-1.9867213,-0.39734426
9.742115,-1.9867213,-0.39734426
9.742115,-1.9867213,-0.39734426
13.035764,-1.4792696,0.110107444
13.035764,-1.4792696,0.110107444
13.035764,-1.4792696,0.110107444
13.035764,-1.4792696,0.110107444
13.093211,-0.3398969,-0.71330476
13.093211,-0.3398969,-0.71330476
13.093211,-0.3398969,-0.71330476
13.093211,-0.3398969,-0.71330476
10.2016945,-0.98139244,1.4218222
10.2016945,-0.98139244,1.4218222
10.2016945,-0.98139244,1.4218222
9.598496,-0.3111732,0.05266008
9.598496,-0.3111732,0.05266008
9.598496,-0.3111732,0.05266008
9.598496,-0.3111732,0.05266008
9.876159,-1.0579889,1.9579976000000003
9.876159,-1.0579889,1.9579976000000003
9.876159,-1.0579889,1.9579976000000003
9.876159,-1.0579889,1.9579976000000003
7.8367777,-0.9430941999999999,1.7282081999999999
7.8367777,-0.9430941999999999,1.7282081999999999
7.8367777,-0.9430941999999999,1.7282081999999999
7.8367777,-0.9430941999999999,1.7282081999999999
8.621891999999999,-1.2590546999999999,2.2260852000000004
8.621891999999999,-1.2590546999999999,2.2260852000000004
8.621891999999999,-1.2590546999999999,2.2260852000000004
8.621891999999999,-1.2590546999999999,2.2260852000000004
9.876159,-1.3356511999999998,2.3505547000000004
9.876159,-1.3356511999999998,2.3505547000000004
9.876159,-1.3356511999999998,2.3505547000000004
9.876159,-1.3356511999999998,2.3505547000000004
11.570856,-1.8909756999999998,3.2218397000000003
11.570856,-1.8909756999999998,3.2218397000000003
11.570856,-1.8909756999999998,3.2218397000000003
12.719804,-2.6569404999999997,3.8920587999999996
12.719804,-2.6569404999999997,3.8920587999999996
12.719804,-2.6569404999999997,3.8920587999999996
12.719804,-2.6569404999999997,3.8920587999999996
12.719804,-2.6569404999999997,3.8920587999999996
15.5060005,-2.9441773999999996,3.6622693999999996
15.5060005,-2.9441773999999996,3.6622693999999996
15.5060005,-2.9441773999999996,3.6622693999999996
10.651698,-1.0867126,2.1303396
10.651698,-1.0867126,2.1303396
10.651698,-1.0867126,2.1303396
10.651698,-1.0867126,2.1303396
11.130426,-1.862252,0.5218136
11.130426,-1.862252,0.5218136
11.130426,-1.862252,0.5218136
11.130426,-1.862252,0.5218136
12.5474615,-2.561195,0.61755913
12.5474615,-2.561195,0.61755913
12.5474615,-2.561195,0.61755913
12.5474615,-2.561195,0.61755913
9.742115,-1.4026731000000001,-0.18670394
9.742115,-1.4026731000000001,-0.18670394
9.742115,-1.4026731000000001,-0.18670394
9.742115,-1.4026731000000001,-0.18670394
7.4537954,-2.0250196,-0.39734426
7.4537954,-2.0250196,-0.39734426
7.4537954,-2.0250196,-0.39734426
7.4537954,-2.0250196,-0.39734426
6.410168,-2.2260852000000004,-0.9430941999999999
6.410168,-2.2260852000000004,-0.9430941999999999
6.410168,-2.2260852000000004,-0.9430941999999999
6.410168,-2.2260852000000004,-0.9430941999999999
7.022939999999999,-1.5462915000000002,-0.36862057
7.022939999999999,-1.5462915000000002,-0.36862057
7.022939999999999,-1.5462915000000002,-0.36862057
8.727212,-1.9962958,-0.19627848
8.727212,-1.9962958,-0.19627848
8.727212,-1.9962958,-0.19627848
8.727212,-1.9962958,-0.19627848
8.727212,-1.9962958,-0.19627848
8.822957,-2.4463003,0.8856468000000001
8.822957,-2.4463003,0.8856468000000001
8.822957,-2.4463003,0.8856468000000001
13.686834,-2.1399142999999996,1.5558661
13.686834,-2.1399142999999996,1.5558661
13.686834,-2.1399142999999996,1.5558661
13.686834,-2.1399142999999996,1.5558661
8.545295,-0.7228793,2.9824755
8.545295,-0.7228793,2.9824755
8.545295,-0.7228793,2.9824755
8.545295,-0.7228793,2.9824755
11.455961,-1.9101248,2.4463003
11.455961,-1.9101248,2.4463003
11.455961,-1.9101248,2.4463003
11.455961,-1.9101248,2.4463003
10.096374,-1.5175678999999997,2.9537517999999996
10.096374,-1.5175678999999997,2.9537517999999996
10.096374,-1.5175678999999997,2.9537517999999996
10.096374,-1.5175678999999997,2.9537517999999996
9.272962,-1.4601203999999999,3.0207740000000003
9.272962,-1.4601203999999999,3.0207740000000003
9.272962,-1.4601203999999999,3.0207740000000003
9.272962,-1.4601203999999999,3.0207740000000003
9.349558,-1.469695,2.7239625
9.349558,-1.469695,2.7239625
9.349558,-1.469695,2.7239625
9.062322,-1.6994845,3.059072
9.062322,-1.6994845,3.059072
9.062322,-1.6994845,3.059072
9.062322,-1.6994845,3.059072
8.679339,-1.6324625,2.714388
8.679339,-1.6324625,2.714388
8.679339,-1.6324625,2.714388
8.679339,-1.6324625,2.714388
8.439975,-1.8814011999999998,1.9005502
8.439975,-1.8814011999999998,1.9005502
8.439975,-1.8814011999999998,1.9005502
8.439975,-1.8814011999999998,1.9005502
15.209189000000002,-4.409085299999999,2.4367256
15.209189000000002,-4.409085299999999,2.4367256
15.209189000000002,-4.409085299999999,2.4367256
15.209189000000002,-4.409085299999999,2.4367256
14.414501000000001,-4.8973875,-1.0101161
14.414501000000001,-4.8973875,-1.0101161
14.414501000000001,-4.8973875,-1.0101161
14.491097,-3.3558834,-0.5792609000000001
14.491097,-3.3558834,-0.5792609000000001
14.491097,-3.3558834,-0.5792609000000001
14.491097,-3.3558834,-0.5792609000000001
14.491097,-3.3558834,-0.5792609000000001
11.26447,-1.8526775000000002,-0.7228793
11.26447,-1.8526775000000002,-0.7228793
11.26447,-1.8526775000000002,-0.7228793
9.41658,-1.9196993000000002,-0.12925656
9.41658,-1.9196993000000002,-0.12925656
9.41658,-1.9196993000000002,-0.12925656
9.41658,-1.9196993000000002,-0.12925656
8.822957,-5.1846247000000005,-1.9388485
8.822957,-5.1846247000000005,-1.9388485
8.822957,-5.1846247000000005,-1.9388485
8.822957,-5.1846247000000005,-1.9388485
9.349558,-3.5856729,-1.9579976000000003
9.349558,-3.5856729,-1.9579976000000003
9.349558,-3.5856729,-1.9579976000000003
9.349558,-3.5856729,-1.9579976000000003
7.693159,-1.14416,-0.5792609000000001
7.693159,-1.14416,-0.5792609000000001
7.693159,-1.14416,-0.5792609000000001
7.693159,-1.14416,-0.5792609000000001
8.200611,-1.5750152,0.56968635
8.200611,-1.5750152,0.56968635
8.200611,-1.5750152,0.56968635
8.200611,-1.5750152,0.56968635
10.938935,0.64628285,0.8856468000000001
10.938935,0.64628285,0.8856468000000001
10.938935,0.64628285,0.8856468000000001
10.938935,0.64628285,0.8856468000000001
12.442142,1.1154363,3.1643922000000004
12.442142,1.1154363,3.1643922000000004
12.442142,1.1154363,3.1643922000000004
12.442142,1.1154363,3.1643922000000004
14.079391500000002,0.2154276,1.8143792
14.079391500000002,0.2154276,1.8143792
14.079391500000002,0.2154276,1.8143792
14.079391500000002,0.2154276,1.8143792
11.752773,0.7420284,3.6431203
11.752773,0.7420284,3.6431203
11.752773,0.7420284,3.6431203
11.752773,0.7420284,3.6431203
9.407005,-0.9430941999999999,3.1069447999999995
9.407005,-0.9430941999999999,3.1069447999999995
9.407005,-0.9430941999999999,3.1069447999999995
9.407005,-0.9430941999999999,3.1069447999999995
9.847435,-1.4122477,2.9537517999999996
9.847435,-1.4122477,2.9537517999999996
9.847435,-1.4122477,2.9537517999999996
9.847435,-1.4122477,2.9537517999999996
9.234664,-0.54096264,3.671844
9.234664,-0.54096264,3.671844
9.234664,-0.54096264,3.671844
9.234664,-0.54096264,3.671844
9.301685,-1.0675635,3.8920587999999996
9.301685,-1.0675635,3.8920587999999996
9.301685,-1.0675635,3.8920587999999996
9.301685,-1.0675635,3.8920587999999996
9.655944,-1.3930986,3.1452432
9.655944,-1.3930986,3.1452432
9.655944,-1.3930986,3.1452432
9.655944,-1.3930986,3.1452432
14.558119,-2.9537517999999996,2.034594
14.558119,-2.9537517999999996,2.034594
14.558119,-2.9537517999999996,2.034594
15.697492,-3.3654580000000003,1.1058618
15.697492,-3.3654580000000003,1.1058618
15.697492,-3.3654580000000003,1.1058618
15.697492,-3.3654580000000003,1.1058618
12.911294999999999,-1.3356511999999998,-0.50266445
12.911294999999999,-1.3356511999999998,-0.50266445
12.911294999999999,-1.3356511999999998,-0.50266445
12.911294999999999,-1.3356511999999998,-0.50266445
13.658110999999998,-1.5175678999999997,0.043085523
13.658110999999998,-1.5175678999999997,0.043085523
13.658110999999998,-1.5175678999999997,0.043085523
13.658110999999998,-1.5175678999999997,0.043085523
10.651698,-0.77075213,-0.71330476
10.651698,-0.77075213,-0.71330476
10.651698,-0.77075213,-0.71330476
10.651698,-0.77075213,-0.71330476
9.129342999999999,-1.4601203999999999,-0.7228793
9.129342999999999,-1.4601203999999999,-0.7228793
9.129342999999999,-1.4601203999999999,-0.7228793
9.129342999999999,-1.4601203999999999,-0.7228793
8.506997,-2.015445,-0.09095833
8.506997,-2.015445,-0.09095833
8.506997,-2.015445,-0.09095833
8.506997,-2.015445,-0.09095833
6.9176197,-1.7569318999999999,0.47394073
6.9176197,-1.7569318999999999,0.47394073
6.9176197,-1.7569318999999999,0.47394073
6.065484,-1.3548003,0.6750065
6.065484,-1.3548003,0.6750065
6.065484,-1.3548003,0.6750065
6.065484,-1.3548003,0.6750065
6.065484,-1.3548003,0.6750065
8.631466,-1.7665064,0.49308985
8.631466,-1.7665064,0.49308985
8.631466,-1.7665064,0.49308985
14.653865,-1.9005502,1.4601203999999999
14.653865,-1.9005502,1.4601203999999999
14.653865,-1.9005502,1.4601203999999999
14.653865,-1.9005502,1.4601203999999999
13.188957,-2.360129,2.8101335
13.188957,-2.360129,2.8101335
13.188957,-2.360129,2.8101335
13.188957,-2.360129,2.8101335
11.293194,-1.6899098999999997,0.7324539000000001
11.293194,-1.6899098999999997,0.7324539000000001
11.293194,-1.6899098999999997,0.7324539000000001
11.293194,-1.6899098999999997,0.7324539000000001
13.399597,-2.5228968,3.039923
13.399597,-2.5228968,3.039923
13.399597,-2.5228968,3.039923
13.399597,-2.5228968,3.039923
9.780414,-0.54096264,2.6760897999999997
9.780414,-0.54096264,2.6760897999999997
9.780414,-0.54096264,2.6760897999999997
9.780414,-0.54096264,2.6760897999999997
9.148492999999998,-1.4122477,2.972901
9.148492999999998,-1.4122477,2.972901
9.148492999999998,-1.4122477,2.972901
9.148492999999998,-1.4122477,2.972901
9.904882,-2.321831,3.8729098
9.904882,-2.321831,3.8729098
9.904882,-2.321831,3.8729098
9.5889225,-2.3984275,3.930357
9.5889225,-2.3984275,3.930357
9.5889225,-2.3984275,3.930357
9.5889225,-2.3984275,3.930357
11.972988,-2.4654493,2.7718353
11.972988,-2.4654493,2.7718353
11.972988,-2.4654493,2.7718353
11.972988,-2.4654493,2.7718353
16.817715,-3.690993,1.383524
16.817715,-3.690993,1.383524
16.817715,-3.690993,1.383524
16.817715,-3.690993,1.383524
13.552791000000001,-2.733537,0.5888355
13.552791000000001,-2.733537,0.5888355
13.552791000000001,-2.733537,0.5888355
13.552791000000001,-2.733537,0.5888355
11.293194,-1.9675721999999998,-0.85692316
11.293194,-1.9675721999999998,-0.85692316
11.293194,-1.9675721999999998,-0.85692316
11.293194,-1.9675721999999998,-0.85692316
13.23683,-2.5516202,0.0718092
13.23683,-2.5516202,0.0718092
13.23683,-2.5516202,0.0718092
10.479357,-0.5888355,-0.13883112
10.479357,-0.5888355,-0.13883112
10.479357,-0.5888355,-0.13883112
10.479357,-0.5888355,-0.13883112
7.9899707,-1.3069274,-0.17712937
7.9899707,-1.3069274,-0.17712937
7.9899707,-1.3069274,-0.17712937
7.9899707,-1.3069274,-0.17712937
7.195282000000001,-1.9771467,-0.023936402000000002
7.195282000000001,-1.9771467,-0.023936402000000002
7.195282000000001,-1.9771467,-0.023936402000000002
7.195282000000001,-1.9771467,-0.023936402000000002
7.195282000000001,-1.9771467,-0.023936402000000002
7.9420977,-0.71330476,0.4164934
7.9420977,-0.71330476,0.4164934
7.9420977,-0.71330476,0.4164934
9.799562,-1.3069274,0.28244954
9.799562,-1.3069274,0.28244954
9.799562,-1.3069274,0.28244954
9.799562,-1.3069274,0.28244954
9.799562,-1.3069274,0.28244954
12.442142,-1.1058618,-0.37819514
12.442142,-1.1058618,-0.37819514
12.442142,-1.1058618,-0.37819514
13.016615,-1.6994845,0.77075213
13.016615,-1.6994845,0.77075213
13.016615,-1.6994845,0.77075213
13.016615,-1.6994845,0.77075213
9.138917999999999,-2.1111906000000005,0.26330042
9.138917999999999,-2.1111906000000005,0.26330042
9.138917999999999,-2.1111906000000005,0.26330042
9.138917999999999,-2.1111906000000005,0.26330042
10.986808,-2.3122563,1.5750152
10.986808,-2.3122563,1.5750152
10.986808,-2.3122563,1.5750152
10.986808,-2.3122563,1.5750152
9.31126,-2.6569404999999997,2.647366
9.31126,-2.6569404999999997,2.647366
9.31126,-2.6569404999999997,2.647366
9.837861,-2.7814097,2.1303396
9.837861,-2.7814097,2.1303396
9.837861,-2.7814097,2.1303396
9.837861,-2.7814097,2.1303396
9.837861,-2.7814097,2.1303396
10.843189,-3.8154623999999995,2.4558747000000003
10.843189,-3.8154623999999995,2.4558747000000003
10.843189,-3.8154623999999995,2.4558747000000003
11.762347,-3.2984362000000003,2.494173
11.762347,-3.2984362000000003,2.494173
11.762347,-3.2984362000000003,2.494173
11.762347,-3.2984362000000003,2.494173
11.762347,-3.2984362000000003,2.494173
11.762347,-3.059072,2.8292825
11.762347,-3.059072,2.8292825
11.762347,-3.059072,2.8292825
11.762347,-3.059072,2.8292825
14.826207,-4.456958,2.513322
14.826207,-4.456958,2.513322
14.826207,-4.456958,2.513322
11.695326,-3.0877957,1.4505458999999998
11.695326,-3.0877957,1.4505458999999998
11.695326,-3.0877957,1.4505458999999998
11.695326,-3.0877957,1.4505458999999998
10.393186,-1.9005502,0.56011176
10.393186,-1.9005502,0.56011176
10.393186,-1.9005502,0.56011176
10.393186,-1.9005502,0.56011176
12.231501,-2.3697037999999995,0.8856468000000001
12.231501,-2.3697037999999995,0.8856468000000001
12.231501,-2.3697037999999995,0.8856468000000001
12.231501,-2.3697037999999995,0.8856468000000001
10.670848,-0.9718179,0.13883112
10.670848,-0.9718179,0.13883112
10.670848,-0.9718179,0.13883112
10.670848,-0.9718179,0.13883112
8.755936,-1.4122477,0.2441513
8.755936,-1.4122477,0.2441513
8.755936,-1.4122477,0.2441513
8.755936,-1.4122477,0.2441513
8.755936,-1.4122477,0.2441513
7.635712,-0.6558574,-1.2973529
7.635712,-0.6558574,-1.2973529
7.635712,-0.6558574,-1.2973529
8.909127999999999,-0.85692316,-1.4313968000000001
8.909127999999999,-0.85692316,-1.4313968000000001
8.909127999999999,-0.85692316,-1.4313968000000001
8.909127999999999,-0.85692316,-1.4313968000000001
11.484685,-1.1345854,-1.0484143
11.484685,-1.1345854,-1.0484143
11.484685,-1.1345854,-1.0484143
11.484685,-1.1345854,-1.0484143
13.093211,-0.48351530000000004,-1.5845897
13.093211,-0.48351530000000004,-1.5845897
13.093211,-0.48351530000000004,-1.5845897
13.093211,-0.48351530000000004,-1.5845897
12.863422,-1.383524,1.4313968000000001
12.863422,-1.383524,1.4313968000000001
12.863422,-1.383524,1.4313968000000001
12.863422,-1.383524,1.4313968000000001
10.239991999999999,0.42606795,-0.023936402000000002
10.239991999999999,0.42606795,-0.023936402000000002
10.239991999999999,0.42606795,-0.023936402000000002
10.239991999999999,0.42606795,-0.023936402000000002
10.82404,-1.2111819,1.6037389
10.82404,-1.2111819,1.6037389
10.82404,-1.2111819,1.6037389
10.82404,-1.2111819,1.6037389
8.2676325,-0.56968635,1.6516117
8.2676325,-0.56968635,1.6516117
8.2676325,-0.56968635,1.6516117
9.569773,-1.3643749,2.034594
9.569773,-1.3643749,2.034594
9.569773,-1.3643749,2.034594
9.569773,-1.3643749,2.034594
11.101703,-0.9430941999999999,2.9920502
11.101703,-0.9430941999999999,2.9920502
11.101703,-0.9430941999999999,2.9920502
11.101703,-0.9430941999999999,2.9920502
11.762347,-1.2782038,4.102699299999999
11.762347,-1.2782038,4.102699299999999
11.762347,-1.2782038,4.102699299999999
11.762347,-1.2782038,4.102699299999999
14.002794,-1.4984187,3.1165195
14.002794,-1.4984187,3.1165195
14.002794,-1.4984187,3.1165195
14.002794,-1.4984187,3.1165195
12.920869,-2.714388,3.0207740000000003
12.920869,-2.714388,3.0207740000000003
12.920869,-2.714388,3.0207740000000003
12.920869,-2.714388,3.0207740000000003
10.182545,-1.6324625,0.3111732
10.182545,-1.6324625,0.3111732
10.182545,-1.6324625,0.3111732
12.930444,-1.9005502,0.9430941999999999
12.930444,-1.9005502,0.9430941999999999
12.930444,-1.9005502,0.9430941999999999
12.930444,-1.9005502,0.9430941999999999
10.766592999999999,-1.0579889,0.043085523
10.766592999999999,-1.0579889,0.043085523
10.766592999999999,-1.0579889,0.043085523
10.766592999999999,-1.0579889,0.043085523
9.129342999999999,-1.3165021000000001,-0.081383765
9.129342999999999,-1.3165021000000001,-0.081383765
9.129342999999999,-1.3165021000000001,-0.081383765
9.129342999999999,-1.3165021000000001,-0.081383765
8.4686985,-1.6803354,-0.40691882
8.4686985,-1.6803354,-0.40691882
8.4686985,-1.6803354,-0.40691882
8.4686985,-1.6803354,-0.40691882
8.889978999999999,-1.2303311000000001,-0.0718092
8.889978999999999,-1.2303311000000001,-0.0718092
8.889978999999999,-1.2303311000000001,-0.0718092
8.889978999999999,-1.2303311000000001,-0.0718092
10.211267999999999,-1.2399056,0.6271336999999999
10.211267999999999,-1.2399056,0.6271336999999999
10.211267999999999,-1.2399056,0.6271336999999999
10.211267999999999,-1.2399056,0.6271336999999999
12.882571,-0.9526688,-0.4164934
12.882571,-0.9526688,-0.4164934
12.882571,-0.9526688,-0.4164934
11.982562,-1.7282081999999999,1.4601203999999999
11.982562,-1.7282081999999999,1.4601203999999999
11.982562,-1.7282081999999999,1.4601203999999999
11.982562,-1.7282081999999999,1.4601203999999999
11.982562,-1.7282081999999999,1.4601203999999999
9.41658,-0.49308985,-0.2441513
9.41658,-0.49308985,-0.2441513
9.41658,-0.49308985,-0.2441513
10.412334,-1.5750152,1.3643749
10.412334,-1.5750152,1.3643749
10.412334,-1.5750152,1.3643749
10.412334,-1.5750152,1.3643749
8.277207,-0.83777404,1.4601203999999999
8.277207,-0.83777404,1.4601203999999999
8.277207,-0.83777404,1.4601203999999999
8.277207,-0.83777404,1.4601203999999999
9.96233,-1.4984187,1.4505458999999998
9.96233,-1.4984187,1.4505458999999998
9.96233,-1.4984187,1.4505458999999998
9.96233,-1.4984187,1.4505458999999998
11.063405,-1.4601203999999999,2.8197080000000003
11.063405,-1.4601203999999999,2.8197080000000003
11.063405,-1.4601203999999999,2.8197080000000003
11.063405,-1.4601203999999999,2.8197080000000003
11.503835,-1.0962871,3.7005677
11.503835,-1.0962871,3.7005677
11.503835,-1.0962871,3.7005677
11.503835,-1.0962871,3.7005677
12.987891000000001,-1.709059,2.9920502
12.987891000000001,-1.709059,2.9920502
12.987891000000001,-1.709059,2.9920502
12.987891000000001,-1.709059,2.9920502
16.377285,-3.1548176,3.1356685
16.377285,-3.1548176,3.1356685
16.377285,-3.1548176,3.1356685
9.569773,-1.1154363,1.7952299999999999
9.569773,-1.1154363,1.7952299999999999
9.569773,-1.1154363,1.7952299999999999
9.569773,-1.1154363,1.7952299999999999
11.810221,-2.0537431,0.9622433000000001
11.810221,-2.0537431,0.9622433000000001
11.810221,-2.0537431,0.9622433000000001
11.810221,-2.0537431,0.9622433000000001
11.1208515,-2.168638,0.33032233
11.1208515,-2.168638,0.33032233
11.1208515,-2.168638,0.33032233
11.1208515,-2.168638,0.33032233
9.359133,-1.0675635,-0.2441513
9.359133,-1.0675635,-0.2441513
9.359133,-1.0675635,-0.2441513
9.359133,-1.0675635,-0.2441513
9.158066999999999,-2.1303396,-0.93351966
9.158066999999999,-2.1303396,-0.93351966
9.158066999999999,-2.1303396,-0.93351966
9.158066999999999,-2.1303396,-0.93351966
10.172971,-2.561195,-1.4313968000000001
10.172971,-2.561195,-1.4313968000000001
10.172971,-2.561195,-1.4313968000000001
10.172971,-2.561195,-1.4313968000000001
10.144247,-0.043085523,-1.0005416
10.144247,-0.043085523,-1.0005416
10.144247,-0.043085523,-1.0005416
10.144247,-0.043085523,-1.0005416
12.049584,-0.16755481,-0.83777404
12.049584,-0.16755481,-0.83777404
12.049584,-0.16755481,-0.83777404
14.299605999999999,-0.98139244,0.69415563
14.299605999999999,-0.98139244,0.69415563
14.299605999999999,-0.98139244,0.69415563
14.299605999999999,-0.98139244,0.69415563
9.8953085,0.8856468000000001,0.3877697
9.8953085,0.8856468000000001,0.3877697
9.8953085,0.8856468000000001,0.3877697
9.8953085,0.8856468000000001,0.3877697
11.168725,-1.383524,0.751603
11.168725,-1.383524,0.751603
11.168725,-1.383524,0.751603
11.168725,-1.383524,0.751603
8.401677000000001,-1.0101161,2.254809
8.401677000000001,-1.0101161,2.254809
8.401677000000001,-1.0101161,2.254809
8.401677000000001,-1.0101161,2.254809
8.305931,-1.1824582000000001,1.6420371999999999
8.305931,-1.1824582000000001,1.6420371999999999
8.305931,-1.1824582000000001,1.6420371999999999
9.004874000000001,-1.0867126,2.101616
9.004874000000001,-1.0867126,2.101616
9.004874000000001,-1.0867126,2.101616
9.004874000000001,-1.0867126,2.101616
9.004874000000001,-1.0867126,2.101616
10.938935,-1.2590546999999999,2.494173
10.938935,-1.2590546999999999,2.494173
10.938935,-1.2590546999999999,2.494173
11.810221,-2.015445,2.8101335
11.810221,-2.015445,2.8101335
11.810221,-2.015445,2.8101335
11.810221,-2.015445,2.8101335
12.90172,-2.8580062,2.3505547000000004
12.90172,-2.8580062,2.3505547000000004
12.90172,-2.8580062,2.3505547000000004
12.90172,-2.8580062,2.3505547000000004
15.477276999999999,-2.8388572,2.4463003
15.477276999999999,-2.8388572,2.4463003
15.477276999999999,-2.8388572,2.4463003
15.477276999999999,-2.8388572,2.4463003
10.5080805,-1.5462915000000002,1.4218222
10.5080805,-1.5462915000000002,1.4218222
10.5080805,-1.5462915000000002,1.4218222
10.5080805,-1.5462915000000002,1.4218222
11.379365,-1.8239537000000001,0.2154276
11.379365,-1.8239537000000001,0.2154276
11.379365,-1.8239537000000001,0.2154276
11.379365,-1.8239537000000001,0.2154276
11.867668,-1.6324625,0.751603
11.867668,-1.6324625,0.751603
11.867668,-1.6324625,0.751603
11.867668,-1.6324625,0.751603
10.019777000000001,-0.7228793,0.0718092
10.019777000000001,-0.7228793,0.0718092
10.019777000000001,-0.7228793,0.0718092
8.679339,-2.1877869999999997,-0.8856468000000001
8.679339,-2.1877869999999997,-0.8856468000000001
8.679339,-2.1877869999999997,-0.8856468000000001
8.679339,-2.1877869999999997,-0.8856468000000001
8.679339,-2.1877869999999997,-0.8856468000000001
8.506997,-2.6282167000000003,-1.2016073
8.506997,-2.6282167000000003,-1.2016073
8.506997,-2.6282167000000003,-1.2016073
8.363379,-1.8143792,-0.93351966
8.363379,-1.8143792,-0.93351966
8.363379,-1.8143792,-0.93351966
8.363379,-1.8143792,-0.93351966
7.386773599999999,-1.7282081999999999,-1.0484143
7.386773599999999,-1.7282081999999999,-1.0484143
7.386773599999999,-1.7282081999999999,-1.0484143
7.386773599999999,-1.7282081999999999,-1.0484143
6.505913700000001,-1.9675721999999998,-0.48351530000000004
6.505913700000001,-1.9675721999999998,-0.48351530000000004
6.505913700000001,-1.9675721999999998,-0.48351530000000004
6.505913700000001,-1.9675721999999998,-0.48351530000000004
11.082554,-2.427151,0.45479164
11.082554,-2.427151,0.45479164
11.082554,-2.427151,0.45479164
11.082554,-2.427151,0.45479164
11.972988,-2.4175766,2.7718353
11.972988,-2.4175766,2.7718353
11.972988,-2.4175766,2.7718353
11.972988,-2.4175766,2.7718353
12.490014,-1.6516117,2.0920415
12.490014,-1.6516117,2.0920415
12.490014,-1.6516117,2.0920415
13.935773000000001,-0.56011176,1.9005502
13.935773000000001,-0.56011176,1.9005502
13.935773000000001,-0.56011176,1.9005502
13.935773000000001,-0.56011176,1.9005502
9.85701,0.5218136,3.7101421
9.85701,0.5218136,3.7101421
9.85701,0.5218136,3.7101421
9.85701,0.5218136,3.7101421
8.985725,-0.76117754,3.451629
8.985725,-0.76117754,3.451629
8.985725,-0.76117754,3.451629
8.985725,-0.76117754,3.451629
8.44955,-1.4792696,2.9346027
8.44955,-1.4792696,2.9346027
8.44955,-1.4792696,2.9346027
8.44955,-1.4792696,2.9346027
8.526146,-1.1250108,2.5994933
8.526146,-1.1250108,2.5994933
8.526146,-1.1250108,2.5994933
8.526146,-1.1250108,2.5994933
9.320834,-1.3356511999999998,1.7665064
9.320834,-1.3356511999999998,1.7665064
9.320834,-1.3356511999999998,1.7665064
9.320834,-1.3356511999999998,1.7665064
11.972988,-3.3175852,1.3643749
11.972988,-3.3175852,1.3643749
11.972988,-3.3175852,1.3643749
14.357054000000002,-7.156984,1.1920328000000002
14.357054000000002,-7.156984,1.1920328000000002
14.357054000000002,-7.156984,1.1920328000000002
14.357054000000002,-7.156984,1.1920328000000002
14.357054000000002,-7.156984,1.1920328000000002
12.269799,-3.3558834,-0.6750065
12.269799,-3.3558834,-0.6750065
12.269799,-3.3558834,-0.6750065
12.269799,-3.3558834,-0.6750065
14.548545,-5.7208,-0.110107444
14.548545,-5.7208,-0.110107444
14.548545,-5.7208,-0.110107444
14.548545,-5.7208,-0.110107444
12.58576,-4.4186597,-1.8143792
12.58576,-4.4186597,-1.8143792
12.58576,-4.4186597,-1.8143792
12.58576,-4.4186597,-1.8143792
10.019777000000001,-2.3697037999999995,-1.0771381000000002
10.019777000000001,-2.3697037999999995,-1.0771381000000002
10.019777000000001,-2.3697037999999995,-1.0771381000000002
8.593167999999999,-2.733537,-1.1728836
8.593167999999999,-2.733537,-1.1728836
8.593167999999999,-2.733537,-1.1728836
8.593167999999999,-2.733537,-1.1728836
8.152739,-1.9579976000000003,-0.39734426
8.152739,-1.9579976000000003,-0.39734426
8.152739,-1.9579976000000003,-0.39734426
8.152739,-1.9579976000000003,-0.39734426
8.152739,-1.9579976000000003,-0.39734426
7.4250717,-0.8473485999999999,-0.359046
7.4250717,-0.8473485999999999,-0.359046
7.4250717,-0.8473485999999999,-0.359046
7.4250717,-0.8473485999999999,-0.359046
7.7793303,-0.83777404,0.54096264
7.7793303,-0.83777404,0.54096264
7.7793303,-0.83777404,0.54096264
12.154904,-0.27287498,1.8526775000000002
12.154904,-0.27287498,1.8526775000000002
12.154904,-0.27287498,1.8526775000000002
12.154904,-0.27287498,1.8526775000000002
10.479357,-0.9526688,3.8058877
10.479357,-0.9526688,3.8058877
10.479357,-0.9526688,3.8058877
10.479357,-0.9526688,3.8058877
10.479357,-0.9526688,3.8058877
13.504917,-1.9771467,1.8048046999999998
13.504917,-1.9771467,1.8048046999999998
13.504917,-1.9771467,1.8048046999999998
12.987891000000001,-1.6611862000000002,4.5239797
12.987891000000001,-1.6611862000000002,4.5239797
12.987891000000001,-1.6611862000000002,4.5239797
12.987891000000001,-1.6611862000000002,4.5239797
12.987891000000001,-1.6611862000000002,4.5239797
9.560199,-1.2782038,3.212265
9.560199,-1.2782038,3.212265
9.560199,-1.2782038,3.212265
9.560199,-1.2782038,3.212265
8.66019,-1.1154363,2.9154537
8.66019,-1.1154363,2.9154537
8.66019,-1.1154363,2.9154537
8.698488000000001,-1.4409714,2.972901
8.698488000000001,-1.4409714,2.972901
8.698488000000001,-1.4409714,2.972901
8.698488000000001,-1.4409714,2.972901
8.698488000000001,-1.4409714,2.972901
9.5219,-2.0537431,2.733537
9.5219,-2.0537431,2.733537
9.5219,-2.0537431,2.733537
9.5219,-2.0537431,2.733537
10.268716,-2.4845984,2.494173
10.268716,-2.4845984,2.494173
10.268716,-2.4845984,2.494173
10.268716,-2.4845984,2.494173
13.610238,-3.2792869,2.2069361
13.610238,-3.2792869,2.2069361
13.610238,-3.2792869,2.2069361
13.610238,-3.2792869,2.2069361
13.926198000000001,-3.1739669999999998,1.3452256999999999
13.926198000000001,-3.1739669999999998,1.3452256999999999
13.926198000000001,-3.1739669999999998,1.3452256999999999
13.926198000000001,-3.1739669999999998,1.3452256999999999
13.849601999999999,-1.5558661,0.33032233
13.849601999999999,-1.5558661,0.33032233
13.849601999999999,-1.5558661,0.33032233
13.849601999999999,-1.5558661,0.33032233
13.112360999999998,-1.2590546999999999,0.5792609000000001
13.112360999999998,-1.2590546999999999,0.5792609000000001
13.112360999999998,-1.2590546999999999,0.5792609000000001
13.112360999999998,-1.2590546999999999,0.5792609000000001
11.187874,-0.83777404,-0.17712937
11.187874,-0.83777404,-0.17712937
11.187874,-0.83777404,-0.17712937
11.187874,-0.83777404,-0.17712937
8.880403999999999,-1.5558661,-0.3111732
8.880403999999999,-1.5558661,-0.3111732
8.880403999999999,-1.5558661,-0.3111732
8.880403999999999,-1.5558661,-0.3111732
7.300602400000001,-1.2494801000000002,-0.61755913
7.300602400000001,-1.2494801000000002,-0.61755913
7.300602400000001,-1.2494801000000002,-0.61755913
7.300602400000001,-1.2494801000000002,-0.61755913
7.329325999999999,-1.2016073,-0.45479164
7.329325999999999,-1.2016073,-0.45479164
7.329325999999999,-1.2016073,-0.45479164
7.329325999999999,-1.2016073,-0.45479164
9.062322,-1.3165021000000001,-0.28244954
9.062322,-1.3165021000000001,-0.28244954
9.062322,-1.3165021000000001,-0.28244954
9.062322,-1.3165021000000001,-0.28244954
13.303852,-1.2016073,-0.59841
13.303852,-1.2016073,-0.59841
13.303852,-1.2016073,-0.59841
13.303852,-1.2016073,-0.59841
11.925115,-1.9292740000000002,2.2356597999999996
11.925115,-1.9292740000000002,2.2356597999999996
11.925115,-1.9292740000000002,2.2356597999999996
11.925115,-1.9292740000000002,2.2356597999999996
10.0868,-0.7324539000000001,-0.081383765
10.0868,-0.7324539000000001,-0.081383765
10.0868,-0.7324539000000001,-0.081383765
10.0868,-0.7324539000000001,-0.081383765
12.949593,-1.8048046999999998,1.5462915000000002
12.949593,-1.8048046999999998,1.5462915000000002
12.949593,-1.8048046999999998,1.5462915000000002
12.949593,-1.8048046999999998,1.5462915000000002
10.584677000000001,-1.5367169,2.1973617
10.584677000000001,-1.5367169,2.1973617
10.584677000000001,-1.5367169,2.1973617
10.584677000000001,-1.5367169,2.1973617
10.680422,-1.6516117,2.8292825
10.680422,-1.6516117,2.8292825
10.680422,-1.6516117,2.8292825
10.680422,-1.6516117,2.8292825
11.245321,-1.5367169,3.6622693999999996
11.245321,-1.5367169,3.6622693999999996
11.245321,-1.5367169,3.6622693999999996
11.245321,-1.5367169,3.6622693999999996
10.862339,-2.1782124,3.6814184
10.862339,-2.1782124,3.6814184
10.862339,-2.1782124,3.6814184
10.862339,-2.1782124,3.6814184
10.862339,-2.1782124,3.6814184
12.719804,-3.5378,2.8101335
12.719804,-3.5378,2.8101335
12.719804,-3.5378,2.8101335
15.975154000000002,-3.7388659,2.2643836
15.975154000000002,-3.7388659,2.2643836
15.975154000000002,-3.7388659,2.2643836
15.975154000000002,-3.7388659,2.2643836
10.354887,-1.7473572,1.2303311000000001
10.354887,-1.7473572,1.2303311000000001
10.354887,-1.7473572,1.2303311000000001
10.354887,-1.7473572,1.2303311000000001
12.432567,-2.1399142999999996,-0.043085523
12.432567,-2.1399142999999996,-0.043085523
12.432567,-2.1399142999999996,-0.043085523
12.432567,-2.1399142999999996,-0.043085523
12.35597,-1.2494801000000002,0.30159867
12.35597,-1.2494801000000002,0.30159867
12.35597,-1.2494801000000002,0.30159867
12.35597,-1.2494801000000002,0.30159867
10.651698,-1.2877783999999999,-0.26330042
10.651698,-1.2877783999999999,-0.26330042
10.651698,-1.2877783999999999,-0.26330042
10.651698,-1.2877783999999999,-0.26330042
9.043172,-2.0441686999999997,-0.2441513
9.043172,-2.0441686999999997,-0.2441513
9.043172,-2.0441686999999997,-0.2441513
9.043172,-2.0441686999999997,-0.2441513
7.865501400000001,-1.5941644,-0.7228793
7.865501400000001,-1.5941644,-0.7228793
7.865501400000001,-1.5941644,-0.7228793
7.865501400000001,-1.5941644,-0.7228793
7.894225,-1.0388398,-0.26330042
7.894225,-1.0388398,-0.26330042
7.894225,-1.0388398,-0.26330042
9.924032,-1.3165021000000001,0.27287498
9.924032,-1.3165021000000001,0.27287498
9.924032,-1.3165021000000001,0.27287498
9.924032,-1.3165021000000001,0.27287498
9.924032,-1.3165021000000001,0.27287498
12.7964,-1.2207563999999997,0.15798025
12.7964,-1.2207563999999997,0.15798025
12.7964,-1.2207563999999997,0.15798025
13.035764,-1.4984187,2.4558747000000003
13.035764,-1.4984187,2.4558747000000003
13.035764,-1.4984187,2.4558747000000003
13.035764,-1.4984187,2.4558747000000003
13.035764,-1.4984187,2.4558747000000003
10.891063,-1.0005416,0.42606795
10.891063,-1.0005416,0.42606795
10.891063,-1.0005416,0.42606795
10.891063,-1.0005416,0.42606795
10.354887,-2.3697037999999995,1.9579976000000003
10.354887,-2.3697037999999995,1.9579976000000003
10.354887,-2.3697037999999995,1.9579976000000003
7.635712,-1.4122477,1.4313968000000001
7.635712,-1.4122477,1.4313968000000001
7.635712,-1.4122477,1.4313968000000001
7.635712,-1.4122477,1.4313968000000001
7.635712,-1.4122477,1.4313968000000001
9.043172,-1.4888442,1.5367169
9.043172,-1.4888442,1.5367169
9.043172,-1.4888442,1.5367169
9.043172,-1.4888442,1.5367169
10.881488000000001,-0.8473485999999999,2.8963046
10.881488000000001,-0.8473485999999999,2.8963046
10.881488000000001,-0.8473485999999999,2.8963046
10.881488000000001,-0.8473485999999999,2.8963046
11.915541000000001,-1.8143792,3.2888615
11.915541000000001,-1.8143792,3.2888615
11.915541000000001,-1.8143792,3.2888615
12.557036,-2.0824668,2.800559
12.557036,-2.0824668,2.800559
12.557036,-2.0824668,2.800559
12.557036,-2.0824668,2.800559
12.557036,-2.0824668,2.800559
14.998548499999998,-2.6569404999999997,2.5516202
14.998548499999998,-2.6569404999999997,2.5516202
14.998548499999998,-2.6569404999999997,2.5516202
14.998548499999998,-2.6569404999999997,2.5516202
11.312344,-2.0920415,1.9101248
11.312344,-2.0920415,1.9101248
11.312344,-2.0920415,1.9101248
9.75169,-1.5654407,0.0718092
9.75169,-1.5654407,0.0718092
9.75169,-1.5654407,0.0718092
9.75169,-1.5654407,0.0718092
9.75169,-1.5654407,0.0718092
11.848517999999999,-2.0920415,1.0962871
11.848517999999999,-2.0920415,1.0962871
11.848517999999999,-2.0920415,1.0962871
11.848517999999999,-2.0920415,1.0962871
9.675094,-0.751603,0.081383765
9.675094,-0.751603,0.081383765
9.675094,-0.751603,0.081383765
9.675094,-0.751603,0.081383765
8.803808,-1.4505458999999998,-0.37819514
8.803808,-1.4505458999999998,-0.37819514
8.803808,-1.4505458999999998,-0.37819514
8.803808,-1.4505458999999998,-0.37819514
8.985725,-1.9196993000000002,-0.48351530000000004
8.985725,-1.9196993000000002,-0.48351530000000004
8.985725,-1.9196993000000002,-0.48351530000000004
9.7899885,-1.6899098999999997,0.39734426
9.7899885,-1.6899098999999997,0.39734426
9.7899885,-1.6899098999999997,0.39734426
9.7899885,-1.6899098999999997,0.39734426
10.680422,-1.4792696,0.05266008
10.680422,-1.4792696,0.05266008
10.680422,-1.4792696,0.05266008
10.680422,-1.4792696,0.05266008
10.680422,-1.4792696,0.05266008
12.46129,-1.4218222,-0.50266445
12.46129,-1.4218222,-0.50266445
12.46129,-1.4218222,-0.50266445
12.46129,-1.4218222,-0.50266445
10.900637,-1.6899098999999997,1.5462915000000002
10.900637,-1.6899098999999997,1.5462915000000002
10.900637,-1.6899098999999997,1.5462915000000002
9.54105,0.10053288,-0.54096264
9.54105,0.10053288,-0.54096264
9.54105,0.10053288,-0.54096264
9.54105,0.10053288,-0.54096264
10.230417999999998,-1.3643749,0.93351966
10.230417999999998,-1.3643749,0.93351966
10.230417999999998,-1.3643749,0.93351966
10.230417999999998,-1.3643749,0.93351966
9.014449,-0.71330476,1.7473572
9.014449,-0.71330476,1.7473572
9.014449,-0.71330476,1.7473572
9.014449,-0.71330476,1.7473572
9.770839,-1.0388398,1.776081
9.770839,-1.0388398,1.776081
9.770839,-1.0388398,1.776081
9.770839,-1.0388398,1.776081
9.770839,-1.0388398,1.776081
10.488931,-0.8473485999999999,1.7186337
10.488931,-0.8473485999999999,1.7186337
10.488931,-0.8473485999999999,1.7186337
11.4272375,-1.2973529,2.4750240000000003
11.4272375,-1.2973529,2.4750240000000003
11.4272375,-1.2973529,2.4750240000000003
11.4272375,-1.2973529,2.4750240000000003
12.087883,-1.9579976000000003,2.6377914000000002
12.087883,-1.9579976000000003,2.6377914000000002
12.087883,-1.9579976000000003,2.6377914000000002
12.087883,-1.9579976000000003,2.6377914000000002
15.190041,-2.9824755,2.6760897999999997
15.190041,-2.9824755,2.6760897999999997
15.190041,-2.9824755,2.6760897999999997
15.190041,-2.9824755,2.6760897999999997
10.622974000000001,-2.2356597999999996,2.2165107999999996
10.622974000000001,-2.2356597999999996,2.2165107999999996
10.622974000000001,-2.2356597999999996,2.2165107999999996
10.622974000000001,-2.2356597999999996,2.2165107999999996
9.608071,-1.7186337,0.3877697
9.608071,-1.7186337,0.3877697
9.608071,-1.7186337,0.3877697
9.608071,-1.7186337,0.3877697
11.829369999999999,-2.3026817000000004,0.3877697
11.829369999999999,-2.3026817000000004,0.3877697
11.829369999999999,-2.3026817000000004,0.3877697
11.829369999999999,-2.3026817000000004,0.3877697
11.829369999999999,-2.3026817000000004,0.3877697
9.703816999999999,-1.7186337,-1.2973529
9.703816999999999,-1.7186337,-1.2973529
9.703816999999999,-1.7186337,-1.2973529
9.234664,-2.647366,-2.0824668
9.234664,-2.647366,-2.0824668
9.234664,-2.647366,-2.0824668
9.234664,-2.647366,-2.0824668
9.684667999999999,-3.8824842000000004,-1.8143792
9.684667999999999,-3.8824842000000004,-1.8143792
9.684667999999999,-3.8824842000000004,-1.8143792
9.684667999999999,-3.8824842000000004,-1.8143792
9.914457,-3.8920587999999996,-0.37819514
9.914457,-3.8920587999999996,-0.37819514
9.914457,-3.8920587999999996,-0.37819514
9.914457,-3.8920587999999996,-0.37819514
11.360216000000001,-5.17505,0.062234644000000006
11.360216000000001,-5.17505,0.062234644000000006
11.360216000000001,-5.17505,0.062234644000000006
11.360216000000001,-5.17505,0.062234644000000006
11.254896,-5.5101595,0.8760723
11.254896,-5.5101595,0.8760723
11.254896,-5.5101595,0.8760723
11.254896,-5.5101595,0.8760723
10.048501,-5.9218655,1.6994845
10.048501,-5.9218655,1.6994845
10.048501,-5.9218655,1.6994845
10.048501,-5.9218655,1.6994845
6.9559183,-2.3122563,2.4367256
6.9559183,-2.3122563,2.4367256
6.9559183,-2.3122563,2.4367256
6.9559183,-2.3122563,2.4367256
7.5495410000000005,-3.4420545,4.3133397
7.5495410000000005,-3.4420545,4.3133397
7.5495410000000005,-3.4420545,4.3133397
7.5495410000000005,-3.4420545,4.3133397
6.505913700000001,-4.3516379999999995,4.284616000000001
6.505913700000001,-4.3516379999999995,4.284616000000001
6.505913700000001,-4.3516379999999995,4.284616000000001
6.505913700000001,-4.3516379999999995,4.284616000000001
5.232497,-5.634629,3.690993
5.232497,-5.634629,3.690993
5.232497,-5.634629,3.690993
5.481436,-5.806971,2.9250283
5.481436,-5.806971,2.9250283
5.481436,-5.806971,2.9250283
5.481436,-5.806971,2.9250283
6.620808599999999,-5.672927,4.016528
6.620808599999999,-5.672927,4.016528
6.620808599999999,-5.672927,4.016528
6.620808599999999,-5.672927,4.016528
5.462287,-8.066567,2.101616
5.462287,-8.066567,2.101616
5.462287,-8.066567,2.101616
5.462287,-8.066567,2.101616
7.0612383,-6.7165539999999995,2.0537431
7.0612383,-6.7165539999999995,2.0537431
7.0612383,-6.7165539999999995,2.0537431
7.0612383,-6.7165539999999995,2.0537431
7.683584700000001,-4.466532,1.9292740000000002
7.683584700000001,-4.466532,1.9292740000000002
7.683584700000001,-4.466532,1.9292740000000002
7.683584700000001,-4.466532,1.9292740000000002
10.910212,-4.96441,4.2175937
10.910212,-4.96441,4.2175937
10.910212,-4.96441,4.2175937
10.910212,-4.96441,4.2175937
7.9133744,-4.5144053,1.7952299999999999
7.9133744,-4.5144053,1.7952299999999999
7.9133744,-4.5144053,1.7952299999999999
7.9133744,-4.5144053,1.7952299999999999
9.75169,-4.5527034,1.5079931999999998
9.75169,-4.5527034,1.5079931999999998
9.75169,-4.5527034,1.5079931999999998
8.631466,-3.5856729,1.3930986
8.631466,-3.5856729,1.3930986
8.631466,-3.5856729,1.3930986
8.631466,-3.5856729,1.3930986
7.348475,-3.518651,0.6750065
7.348475,-3.518651,0.6750065
7.348475,-3.518651,0.6750065
7.348475,-3.518651,0.6750065
8.487848,-3.7388659,0.5218136
8.487848,-3.7388659,0.5218136
8.487848,-3.7388659,0.5218136
8.487848,-3.7388659,0.5218136
10.670848,-2.9441773999999996,0.90479594
10.670848,-2.9441773999999996,0.90479594
10.670848,-2.9441773999999996,0.90479594
10.670848,-2.9441773999999996,0.90479594
14.184710999999998,-2.6952388,1.1250108
14.184710999999998,-2.6952388,1.1250108
14.184710999999998,-2.6952388,1.1250108
14.184710999999998,-2.6952388,1.1250108
14.357054000000002,-2.0920415,0.014361841
14.357054000000002,-2.0920415,0.014361841
14.357054000000002,-2.0920415,0.014361841
14.357054000000002,-2.0920415,0.014361841
12.786825,-2.7814097,1.2303311000000001
12.786825,-2.7814097,1.2303311000000001
12.786825,-2.7814097,1.2303311000000001
7.875075999999999,-0.3111732,1.5654407
7.875075999999999,-0.3111732,1.5654407
7.875075999999999,-0.3111732,1.5654407
7.875075999999999,-0.3111732,1.5654407
7.875075999999999,-0.3111732,1.5654407
9.2825365,-0.49308985,1.5558661
9.2825365,-0.49308985,1.5558661
9.2825365,-0.49308985,1.5558661
5.778247400000001,-1.1154363,1.4505458999999998
5.778247400000001,-1.1154363,1.4505458999999998
5.778247400000001,-1.1154363,1.4505458999999998
5.778247400000001,-1.1154363,1.4505458999999998
6.065484,-1.6803354,1.3165021000000001
6.065484,-1.6803354,1.3165021000000001
6.065484,-1.6803354,1.3165021000000001
6.065484,-1.6803354,1.3165021000000001
7.597413499999999,-2.034594,1.14416
7.597413499999999,-2.034594,1.14416
7.597413499999999,-2.034594,1.14416
7.597413499999999,-2.034594,1.14416
9.31126,-2.494173,1.2399056
9.31126,-2.494173,1.2399056
9.31126,-2.494173,1.2399056
9.31126,-2.494173,1.2399056
9.742115,-2.4463003,1.3165021000000001
9.742115,-2.4463003,1.3165021000000001
9.742115,-2.4463003,1.3165021000000001
9.742115,-2.4463003,1.3165021000000001
11.446387,-2.4367256,1.5941644
11.446387,-2.4367256,1.5941644
11.446387,-2.4367256,1.5941644
11.446387,-2.4367256,1.5941644
11.446387,-2.4367256,1.5941644
14.854931,-2.9920502,1.5271424
14.854931,-2.9920502,1.5271424
14.854931,-2.9920502,1.5271424
10.843189,-3.2505634,1.5654407
10.843189,-3.2505634,1.5654407
10.843189,-3.2505634,1.5654407
10.843189,-3.2505634,1.5654407
8.679339,-2.2931072999999995,0.85692316
8.679339,-2.2931072999999995,0.85692316
8.679339,-2.2931072999999995,0.85692316
8.679339,-2.2931072999999995,0.85692316
10.000628,-1.9962958,1.4505458999999998
10.000628,-1.9962958,1.4505458999999998
10.000628,-1.9962958,1.4505458999999998
10.000628,-1.9962958,1.4505458999999998
9.263388,-2.101616,0.13883112
9.263388,-2.101616,0.13883112
9.263388,-2.101616,0.13883112
9.263388,-2.101616,0.13883112
8.497422,-2.8771553,-0.6558574
8.497422,-2.8771553,-0.6558574
8.497422,-2.8771553,-0.6558574
8.497422,-2.8771553,-0.6558574
8.248484,-2.6377914000000002,-0.5218136
8.248484,-2.6377914000000002,-0.5218136
8.248484,-2.6377914000000002,-0.5218136
8.363379,-2.1877869999999997,-0.22500217
8.363379,-2.1877869999999997,-0.22500217
8.363379,-2.1877869999999997,-0.22500217
8.363379,-2.1877869999999997,-0.22500217
8.401677000000001,-2.2165107999999996,-0.09095833
8.401677000000001,-2.2165107999999996,-0.09095833
8.401677000000001,-2.2165107999999996,-0.09095833
8.401677000000001,-2.2165107999999996,-0.09095833
8.583592999999999,-2.4845984,0.83777404
8.583592999999999,-2.4845984,0.83777404
8.583592999999999,-2.4845984,0.83777404
8.583592999999999,-2.4845984,0.83777404
13.495343,-1.9101248,0.28244954
13.495343,-1.9101248,0.28244954
13.495343,-1.9101248,0.28244954
13.495343,-1.9101248,0.28244954
9.368708,-2.9346027,2.3792782000000003
9.368708,-2.9346027,2.3792782000000003
9.368708,-2.9346027,2.3792782000000003
9.368708,-2.9346027,2.3792782000000003
7.271878699999999,-1.8239537000000001,2.408002
7.271878699999999,-1.8239537000000001,2.408002
7.271878699999999,-1.8239537000000001,2.408002
7.271878699999999,-1.8239537000000001,2.408002
10.709146,-1.4888442,2.1399142999999996
10.709146,-1.4888442,2.1399142999999996
10.709146,-1.4888442,2.1399142999999996
9.071896,-2.4558747000000003,2.1590632999999997
9.071896,-2.4558747000000003,2.1590632999999997
9.071896,-2.4558747000000003,2.1590632999999997
9.071896,-2.4558747000000003,2.1590632999999997
9.071896,-2.4558747000000003,2.1590632999999997
9.339984,-2.8484317999999997,2.1877869999999997
9.339984,-2.8484317999999997,2.1877869999999997
9.339984,-2.8484317999999997,2.1877869999999997
9.196365,-2.2739582,1.8718264999999998
9.196365,-2.2739582,1.8718264999999998
9.196365,-2.2739582,1.8718264999999998
9.196365,-2.2739582,1.8718264999999998
9.177217,-2.408002,1.5271424
9.177217,-2.408002,1.5271424
9.177217,-2.408002,1.5271424
9.177217,-2.408002,1.5271424
11.570856,-2.9920502,2.0058703
11.570856,-2.9920502,2.0058703
11.570856,-2.9920502,2.0058703
11.570856,-2.9920502,2.0058703
8.028269,-1.9771467,1.9388485
8.028269,-1.9771467,1.9388485
8.028269,-1.9771467,1.9388485
8.028269,-1.9771467,1.9388485
9.62722,-2.3984275,1.5654407
9.62722,-2.3984275,1.5654407
9.62722,-2.3984275,1.5654407
9.62722,-2.3984275,1.5654407
9.703816999999999,-2.6952388,1.5367169
9.703816999999999,-2.6952388,1.5367169
9.703816999999999,-2.6952388,1.5367169
9.703816999999999,-2.6952388,1.5367169
9.464453,-3.059072,1.1250108
9.464453,-3.059072,1.1250108
9.464453,-3.059072,1.1250108
9.7899885,-2.5324712000000003,1.6228879999999999
9.7899885,-2.5324712000000003,1.6228879999999999
9.7899885,-2.5324712000000003,1.6228879999999999
9.7899885,-2.5324712000000003,1.6228879999999999
9.636795,-2.5994933,1.776081
9.636795,-2.5994933,1.776081
9.636795,-2.5994933,1.776081
9.636795,-2.5994933,1.776081
9.502751,-2.321831,1.9771467
9.502751,-2.321831,1.9771467
9.502751,-2.321831,1.9771467
9.502751,-2.321831,1.9771467
9.435728999999998,-2.1111906000000005,2.1399142999999996
9.435728999999998,-2.1111906000000005,2.1399142999999996
9.435728999999998,-2.1111906000000005,2.1399142999999996
9.435728999999998,-2.1111906000000005,2.1399142999999996
9.426155,-1.948423,2.2835326
9.426155,-1.948423,2.2835326
9.426155,-1.948423,2.2835326
9.426155,-1.948423,2.2835326
9.435728999999998,-1.9196993000000002,2.0920415
9.435728999999998,-1.9196993000000002,2.0920415
9.435728999999998,-1.9196993000000002,2.0920415
9.474028,-2.2069361,1.8143792
9.474028,-2.2069361,1.8143792
9.474028,-2.2069361,1.8143792
9.474028,-2.2069361,1.8143792
9.454879,-2.3984275,1.6611862000000002
9.454879,-2.3984275,1.6611862000000002
9.454879,-2.3984275,1.6611862000000002
9.454879,-2.3984275,1.6611862000000002
9.454879,-2.4750240000000003,1.7952299999999999
9.454879,-2.4750240000000003,1.7952299999999999
9.454879,-2.4750240000000003,1.7952299999999999
9.454879,-2.4750240000000003,1.7952299999999999
9.569773,-2.494173,1.9101248
9.569773,-2.494173,1.9101248
9.569773,-2.494173,1.9101248
9.569773,-2.494173,1.9101248
9.703816999999999,-2.5899186000000003,1.7282081999999999
9.703816999999999,-2.5899186000000003,1.7282081999999999
9.703816999999999,-2.5899186000000003,1.7282081999999999
9.703816999999999,-2.5899186000000003,1.7282081999999999
9.598496,-2.5994933,1.709059
9.598496,-2.5994933,1.709059
9.598496,-2.5994933,1.709059
9.598496,-2.5994933,1.709059
9.579348,-2.4558747000000003,1.6803354
9.579348,-2.4558747000000003,1.6803354
9.579348,-2.4558747000000003,1.6803354
9.655944,-2.3888528,1.6228879999999999
9.655944,-2.3888528,1.6228879999999999
9.655944,-2.3888528,1.6228879999999999
9.655944,-2.3888528,1.6228879999999999
9.655944,-2.3888528,1.6228879999999999
9.617646,-2.3026817000000004,1.7377827000000001
9.617646,-2.3026817000000004,1.7377827000000001
9.617646,-2.3026817000000004,1.7377827000000001
9.502751,-2.149489,1.8335283
9.502751,-2.149489,1.8335283
9.502751,-2.149489,1.8335283
9.502751,-2.149489,1.8335283
9.493176,-2.149489,1.7569318999999999
9.493176,-2.149489,1.7569318999999999
9.493176,-2.149489,1.7569318999999999
9.493176,-2.149489,1.7569318999999999
9.502751,-2.1973617,1.6420371999999999
9.502751,-2.1973617,1.6420371999999999
9.502751,-2.1973617,1.6420371999999999
9.502751,-2.1973617,1.6420371999999999
9.483603,-2.2356597999999996,1.5941644
9.483603,-2.2356597999999996,1.5941644
9.483603,-2.2356597999999996,1.5941644
9.483603,-2.2356597999999996,1.5941644
9.483603,-2.3314054,1.5941644
9.483603,-2.3314054,1.5941644
9.483603,-2.3314054,1.5941644
9.483603,-2.3314054,1.5941644
9.598496,-2.4463003,1.5941644
9.598496,-2.4463003,1.5941644
9.598496,-2.4463003,1.5941644
9.598496,-2.4463003,1.5941644
9.579348,-2.4367256,1.7186337
9.579348,-2.4367256,1.7186337
9.579348,-2.4367256,1.7186337
9.550624000000001,-2.4558747000000003,1.7473572
9.550624000000001,-2.4558747000000003,1.7473572
9.550624000000001,-2.4558747000000003,1.7473572
9.550624000000001,-2.4558747000000003,1.7473572
9.85701,-2.3697037999999995,2.1590632999999997
9.85701,-2.3697037999999995,2.1590632999999997
9.85701,-2.3697037999999995,2.1590632999999997
9.85701,-2.3697037999999995,2.1590632999999997
9.426155,-1.9962958,2.867581
9.426155,-1.9962958,2.867581
9.426155,-1.9962958,2.867581
9.426155,-1.9962958,2.867581
9.100619,-2.2260852000000004,4.0356774
9.100619,-2.2260852000000004,4.0356774
9.100619,-2.2260852000000004,4.0356774
9.100619,-2.2260852000000004,4.0356774
10.239991999999999,-1.9005502,4.696322
10.239991999999999,-1.9005502,4.696322
10.239991999999999,-1.9005502,4.696322
10.239991999999999,-1.9005502,4.696322
10.125097,-1.9675721999999998,3.2697124
10.125097,-1.9675721999999998,3.2697124
10.125097,-1.9675721999999998,3.2697124
9.904882,-2.561195,2.6569404999999997
9.904882,-2.561195,2.6569404999999997
9.904882,-2.561195,2.6569404999999997
9.904882,-2.561195,2.6569404999999997
9.904882,-2.561195,2.6569404999999997
9.579348,-2.6090677,2.360129
9.579348,-2.6090677,2.360129
9.579348,-2.6090677,2.360129
9.177217,-2.3792782000000003,2.3314054
9.177217,-2.3792782000000003,2.3314054
9.177217,-2.3792782000000003,2.3314054
9.177217,-2.3792782000000003,2.3314054
8.698488000000001,-2.321831,2.7048132000000003
8.698488000000001,-2.321831,2.7048132000000003
8.698488000000001,-2.321831,2.7048132000000003
8.698488000000001,-2.321831,2.7048132000000003
8.842107,-2.5516202,3.8250370000000005
8.842107,-2.5516202,3.8250370000000005
8.842107,-2.5516202,3.8250370000000005
8.842107,-2.5516202,3.8250370000000005
8.842107,-2.5516202,3.8250370000000005
9.071896,-2.6856642,4.4186597
9.071896,-2.6856642,4.4186597
9.071896,-2.6856642,4.4186597
9.225089,-3.6431203,4.6675982000000005
9.225089,-3.6431203,4.6675982000000005
9.225089,-3.6431203,4.6675982000000005
9.225089,-3.6431203,4.6675982000000005
8.497422,-3.1643922000000004,4.811217
8.497422,-3.1643922000000004,4.811217
8.497422,-3.1643922000000004,4.811217
8.497422,-3.1643922000000004,4.811217
7.731457700000001,-1.4218222,4.926111
7.731457700000001,-1.4218222,4.926111
7.731457700000001,-1.4218222,4.926111
7.731457700000001,-1.4218222,4.926111
7.089962,-0.56011176,5.232497
7.089962,-0.56011176,5.232497
7.089962,-0.56011176,5.232497
7.089962,-0.56011176,5.232497
7.051664,-0.062234644000000006,5.2707953000000005
7.051664,-0.062234644000000006,5.2707953000000005
7.051664,-0.062234644000000006,5.2707953000000005
7.051664,-0.062234644000000006,5.2707953000000005
7.042089,0.6271336999999999,5.8548436
7.042089,0.6271336999999999,5.8548436
7.042089,0.6271336999999999,5.8548436
7.4442205,0.23457673,5.941015
7.4442205,0.23457673,5.941015
7.4442205,0.23457673,5.941015
7.4442205,0.23457673,5.941015
7.405922400000001,0.9430941999999999,6.630383
7.405922400000001,0.9430941999999999,6.630383
7.405922400000001,0.9430941999999999,6.630383
7.405922400000001,0.9430941999999999,6.630383
7.8367777,-0.54096264,7.1665583
7.8367777,-0.54096264,7.1665583
7.8367777,-0.54096264,7.1665583
7.8367777,-0.54096264,7.1665583
7.8272033,-0.46436617,7.626137299999999
7.8272033,-0.46436617,7.626137299999999
7.8272033,-0.46436617,7.626137299999999
7.8272033,-0.46436617,7.626137299999999
7.8846507,-0.19627848,8.334655
7.8846507,-0.19627848,8.334655
7.8846507,-0.19627848,8.334655
7.8846507,-0.19627848,8.334655
7.2335806,-0.32074776,8.056992999999999
7.2335806,-0.32074776,8.056992999999999
7.2335806,-0.32074776,8.056992999999999
7.2335806,-0.32074776,8.056992999999999
6.1420803,-0.5218136,7.4729443
6.1420803,-0.5218136,7.4729443
6.1420803,-0.5218136,7.4729443
6.103782,-0.39734426,8.143164
6.103782,-0.39734426,8.143164
6.103782,-0.39734426,8.143164
6.103782,-0.39734426,8.143164
6.103782,-0.39734426,8.143164
5.8931417,-0.40691882,8.497422
5.8931417,-0.40691882,8.497422
5.8931417,-0.40691882,8.497422
5.3378177,-0.110107444,8.392102000000001
5.3378177,-0.110107444,8.392102000000001
5.3378177,-0.110107444,8.392102000000001
5.3378177,-0.110107444,8.392102000000001
4.2271686,0.512239,8.34423
4.2271686,0.512239,8.34423
4.2271686,0.512239,8.34423
4.2271686,0.512239,8.34423
4.2271686,0.512239,8.34423
3.2026904,0.76117754,7.377198700000001
3.2026904,0.76117754,7.377198700000001
3.2026904,0.76117754,7.377198700000001
2.6282167000000003,0.59841,7.7123084
2.6282167000000003,0.59841,7.7123084
2.6282167000000003,0.59841,7.7123084
2.6282167000000003,0.59841,7.7123084
2.0824668,0.78032666,7.865501400000001
2.0824668,0.78032666,7.865501400000001
2.0824668,0.78032666,7.865501400000001
2.0824668,0.78032666,7.865501400000001
1.7473572,1.1728836,8.200611
1.7473572,1.1728836,8.200611
1.7473572,1.1728836,8.200611
1.7473572,1.1728836,8.200611
9.18679,-5.1176023,5.797396
9.18679,-5.1176023,5.797396
9.18679,-5.1176023,5.797396
12.135756,-7.281453,4.4473834000000005
12.135756,-7.281453,4.4473834000000005
12.135756,-7.281453,4.4473834000000005
12.135756,-7.281453,4.4473834000000005
9.5889225,-12.490014,-3.8154623999999995
9.5889225,-12.490014,-3.8154623999999995
9.5889225,-12.490014,-3.8154623999999995
9.5889225,-12.490014,-3.8154623999999995
8.076141,-5.6825019999999995,-1.3643749
8.076141,-5.6825019999999995,-1.3643749
8.076141,-5.6825019999999995,-1.3643749
8.076141,-5.6825019999999995,-1.3643749
7.961247,-4.1792955,-1.709059
7.961247,-4.1792955,-1.709059
7.961247,-4.1792955,-1.709059
7.961247,-4.1792955,-1.709059
9.091045,-5.0122824,-2.3984275
9.091045,-5.0122824,-2.3984275
9.091045,-5.0122824,-2.3984275
9.091045,-5.0122824,-2.3984275
9.6942425,-4.801642,-1.4218222
9.6942425,-4.801642,-1.4218222
9.6942425,-4.801642,-1.4218222
9.6942425,-4.801642,-1.4218222
9.914457,-4.763344,0.15798025
9.914457,-4.763344,0.15798025
9.914457,-4.763344,0.15798025
9.914457,-4.763344,0.15798025
9.100619,-5.098453500000001,-0.30159867
9.100619,-5.098453500000001,-0.30159867
9.100619,-5.098453500000001,-0.30159867
9.100619,-5.098453500000001,-0.30159867
9.41658,-3.5090763999999997,-1.4792696
9.41658,-3.5090763999999997,-1.4792696
9.41658,-3.5090763999999997,-1.4792696
9.41658,-3.5090763999999997,-1.4792696
9.339984,-3.4324798999999997,-0.85692316
9.339984,-3.4324798999999997,-0.85692316
9.339984,-3.4324798999999997,-0.85692316
9.349558,-3.9399316,-0.56011176
9.349558,-3.9399316,-0.56011176
9.349558,-3.9399316,-0.56011176
9.349558,-3.9399316,-0.56011176
9.435728999999998,-3.4037561000000003,-1.1537346000000002
9.435728999999998,-3.4037561000000003,-1.1537346000000002
9.435728999999998,-3.4037561000000003,-1.1537346000000002
9.435728999999998,-3.4037561000000003,-1.1537346000000002
9.349558,-3.2601378,-0.99096704
9.349558,-3.2601378,-0.99096704
9.349558,-3.2601378,-0.99096704
9.349558,-3.2601378,-0.99096704
9.435728999999998,-3.1643922000000004,-1.2207563999999997
9.435728999999998,-3.1643922000000004,-1.2207563999999997
9.435728999999998,-3.1643922000000004,-1.2207563999999997
9.435728999999998,-3.1643922000000004,-1.2207563999999997
9.64637,-3.0016246,-0.98139244
9.64637,-3.0016246,-0.98139244
9.64637,-3.0016246,-0.98139244
9.64637,-3.0016246,-0.98139244
9.378282,-3.212265,-0.8090504
9.378282,-3.212265,-0.8090504
9.378282,-3.212265,-0.8090504
9.378282,-3.212265,-0.8090504
9.435728999999998,-3.2792869,-1.0005416
9.435728999999998,-3.2792869,-1.0005416
9.435728999999998,-3.2792869,-1.0005416
9.445304,-3.4229053999999994,-0.91437054
9.445304,-3.4229053999999994,-0.91437054
9.445304,-3.4229053999999994,-0.91437054
9.445304,-3.4229053999999994,-0.91437054
9.41658,-3.5856729,-1.0196906
9.41658,-3.5856729,-1.0196906
9.41658,-3.5856729,-1.0196906
9.41658,-3.5856729,-1.0196906
9.5219,-2.972901,-0.76117754
9.5219,-2.972901,-0.76117754
9.5219,-2.972901,-0.76117754
9.5219,-2.972901,-0.76117754
9.54105,-2.7814097,-0.76117754
9.54105,-2.7814097,-0.76117754
9.54105,-2.7814097,-0.76117754
9.54105,-2.7814097,-0.76117754
9.378282,-3.2984362000000003,-0.85692316
9.378282,-3.2984362000000003,-0.85692316
9.378282,-3.2984362000000003,-0.85692316
9.378282,-3.2984362000000003,-0.85692316
9.493176,-3.3558834,-0.78032666
9.493176,-3.3558834,-0.78032666
9.493176,-3.3558834,-0.78032666
9.3878565,-3.2218397000000003,-0.8281995000000001
9.3878565,-3.2218397000000003,-0.8281995000000001
9.3878565,-3.2218397000000003,-0.8281995000000001
9.3878565,-3.2218397000000003,-0.8281995000000001
9.3878565,-3.2218397000000003,-0.8281995000000001
9.378282,-3.3558834,-0.93351966
9.378282,-3.3558834,-0.93351966
9.378282,-3.3558834,-0.93351966
9.445304,-3.5473747,-0.8664976999999999
9.445304,-3.5473747,-0.8664976999999999
9.445304,-3.5473747,-0.8664976999999999
9.445304,-3.5473747,-0.8664976999999999
9.349558,-3.3654580000000003,-0.8760723
9.349558,-3.3654580000000003,-0.8760723
9.349558,-3.3654580000000003,-0.8760723
9.349558,-3.3654580000000003,-0.8760723
9.445304,-3.4612036,-0.90479594
9.445304,-3.4612036,-0.90479594
9.445304,-3.4612036,-0.90479594
9.445304,-3.4612036,-0.90479594
9.407005,-3.2792869,-0.8281995000000001
9.407005,-3.2792869,-0.8281995000000001
9.407005,-3.2792869,-0.8281995000000001
9.407005,-3.2792869,-0.8281995000000001
9.435728999999998,-3.4803526,-0.91437054
9.435728999999998,-3.4803526,-0.91437054
9.435728999999998,-3.4803526,-0.91437054
9.435728999999998,-3.4803526,-0.91437054
9.454879,-3.1739669999999998,-0.8760723
9.454879,-3.1739669999999998,-0.8760723
9.454879,-3.1739669999999998,-0.8760723
9.454879,-3.1739669999999998,-0.8760723
9.41658,-3.384607,-0.8281995000000001
9.41658,-3.384607,-0.8281995000000001
9.41658,-3.384607,-0.8281995000000001
9.435728999999998,-3.2792869,-0.85692316
9.435728999999998,-3.2792869,-0.85692316
9.435728999999998,-3.2792869,-0.85692316
9.435728999999998,-3.2792869,-0.85692316
9.435728999999998,-3.2792869,-0.85692316
9.454879,-3.2697124,-0.8281995000000001
9.454879,-3.2697124,-0.8281995000000001
9.454879,-3.2697124,-0.8281995000000001
9.445304,-3.3271596,-0.8664976999999999
9.445304,-3.3271596,-0.8664976999999999
9.445304,-3.3271596,-0.8664976999999999
9.445304,-3.3271596,-0.8664976999999999
9.426155,-3.3271596,-0.78990126
9.426155,-3.3271596,-0.78990126
9.426155,-3.3271596,-0.78990126
9.426155,-3.3271596,-0.78990126
9.435728999999998,-3.231414,-0.8186249
9.435728999999998,-3.231414,-0.8186249
9.435728999999998,-3.231414,-0.8186249
9.435728999999998,-3.231414,-0.8186249
9.435728999999998,-3.2697124,-0.8186249
9.435728999999998,-3.2697124,-0.8186249
9.435728999999998,-3.2697124,-0.8186249
9.435728999999998,-3.2697124,-0.8186249
9.435728999999998,-3.2697124,-0.8186249
9.435728999999998,-3.2697124,-0.8186249
9.435728999999998,-3.2697124,-0.8186249
9.435728999999998,-3.3463089999999998,-0.83777404
9.435728999999998,-3.3463089999999998,-0.83777404
9.435728999999998,-3.3463089999999998,-0.83777404
9.435728999999998,-3.3463089999999998,-0.83777404
9.41658,-3.3271596,-0.7994758000000001
9.41658,-3.3271596,-0.7994758000000001
9.41658,-3.3271596,-0.7994758000000001
9.41658,-3.3271596,-0.7994758000000001
9.454879,-3.2601378,-0.8186249
9.454879,-3.2601378,-0.8186249
9.454879,-3.2601378,-0.8186249
9.454879,-3.2601378,-0.8186249
9.464453,-3.384607,-0.77075213
9.464453,-3.384607,-0.77075213
9.464453,-3.384607,-0.77075213
9.464453,-3.384607,-0.77075213
9.407005,-3.2218397000000003,-0.83777404
9.407005,-3.2218397000000003,-0.83777404
9.407005,-3.2218397000000003,-0.83777404
9.531475,-3.1548176,-0.78990126
9.531475,-3.1548176,-0.78990126
9.531475,-3.1548176,-0.78990126
9.531475,-3.1548176,-0.78990126
9.320834,-3.3175852,-0.85692316
9.320834,-3.3175852,-0.85692316
9.320834,-3.3175852,-0.85692316
9.320834,-3.3175852,-0.85692316
9.474028,-3.2792869,-0.7994758000000001
9.474028,-3.2792869,-0.7994758000000001
9.474028,-3.2792869,-0.7994758000000001
9.474028,-3.2792869,-0.7994758000000001
9.445304,-3.3080106,-0.8090504
9.445304,-3.3080106,-0.8090504
9.445304,-3.3080106,-0.8090504
9.445304,-3.3080106,-0.8090504
9.493176,-3.384607,-0.78990126
9.493176,-3.384607,-0.78990126
9.493176,-3.384607,-0.78990126
