accx,accy,accz
-0.83777404,4.9835587,5.041005999999999
-0.751603,4.236743,4.9356860000000005
-0.751603,4.236743,4.9356860000000005
-0.751603,4.236743,4.9356860000000005
-0.751603,4.236743,4.9356860000000005
0.05266008,2.5707695,5.1846247000000005
0.05266008,2.5707695,5.1846247000000005
0.05266008,2.5707695,5.1846247000000005
0.05266008,2.5707695,5.1846247000000005
0.49308985,2.8484317999999997,5.8931417
0.49308985,2.8484317999999997,5.8931417
0.49308985,2.8484317999999997,5.8931417
-1.8431028999999999,0.36862057,6.936769
-1.8431028999999999,0.36862057,6.936769
-1.8431028999999999,0.36862057,6.936769
-1.8431028999999999,0.36862057,6.936769
-1.8431028999999999,0.36862057,6.936769
-5.3378177,-2.101616,7.434646000000001
-5.3378177,-2.101616,7.434646000000001
-5.3378177,-2.101616,7.434646000000001
-8.832532,-2.905879,6.9271946
-8.832532,-2.905879,6.9271946
-8.832532,-2.905879,6.9271946
-8.832532,-2.905879,6.9271946
-11.446387,-3.7484405,4.456958
-11.446387,-3.7484405,4.456958
-11.446387,-3.7484405,4.456958
-11.446387,-3.7484405,4.456958
-13.686834,-3.5378,1.5654407
-13.686834,-3.5378,1.5654407
-13.686834,-3.5378,1.5654407
-13.686834,-3.5378,1.5654407
-12.336822,-7.35805,-1.3260766000000002
-12.336822,-7.35805,-1.3260766000000002
-12.336822,-7.35805,-1.3260766000000002
-12.336822,-7.35805,-1.3260766000000002
-10.259142,-4.849515,0.99096704
-10.259142,-4.849515,0.99096704
-10.259142,-4.849515,0.99096704
-10.259142,-4.849515,0.99096704
-8.363379,-7.195282000000001,-2.4558747000000003
-8.363379,-7.195282000000001,-2.4558747000000003
-8.363379,-7.195282000000001,-2.4558747000000003
-8.363379,-7.195282000000001,-2.4558747000000003
-8.258059,-5.299519,-0.25372586
-8.258059,-5.299519,-0.25372586
-8.258059,-5.299519,-0.25372586
-8.612317,-4.6293,-1.2590546999999999
-8.612317,-4.6293,-1.2590546999999999
-8.612317,-4.6293,-1.2590546999999999
-8.612317,-4.6293,-1.2590546999999999
-8.612317,-4.6293,-1.2590546999999999
-9.263388,-3.7005677,-1.0771381000000002
-9.263388,-3.7005677,-1.0771381000000002
-9.263388,-3.7005677,-1.0771381000000002
-9.320834,-2.9154537,-0.43564250000000004
-9.320834,-2.9154537,-0.43564250000000004
-9.320834,-2.9154537,-0.43564250000000004
-9.320834,-2.9154537,-0.43564250000000004
-9.119769,-2.5037475,-0.09095833
-9.119769,-2.5037475,-0.09095833
-9.119769,-2.5037475,-0.09095833
-9.119769,-2.5037475,-0.09095833
-8.976150500000001,-2.2452345,0.14840569
-8.976150500000001,-2.2452345,0.14840569
-8.976150500000001,-2.2452345,0.14840569
-8.976150500000001,-2.2452345,0.14840569
-8.966576,-2.3792782000000003,0.26330042
-8.966576,-2.3792782000000003,0.26330042
-8.966576,-2.3792782000000003,0.26330042
-8.966576,-2.3792782000000003,0.26330042
-9.138917999999999,-2.9154537,-0.014361841
-9.138917999999999,-2.9154537,-0.014361841
-9.138917999999999,-2.9154537,-0.014361841
-9.138917999999999,-2.9154537,-0.014361841
-8.966576,-2.867581,-0.18670394
-8.966576,-2.867581,-0.18670394
-8.966576,-2.867581,-0.18670394
-8.966576,-2.867581,-0.18670394
-9.004874000000001,-2.7909843999999997,-0.0718092
-9.004874000000001,-2.7909843999999997,-0.0718092
-9.004874000000001,-2.7909843999999997,-0.0718092
-9.167641999999999,-2.7239625,-0.043085523
-9.167641999999999,-2.7239625,-0.043085523
-9.167641999999999,-2.7239625,-0.043085523
-9.167641999999999,-2.7239625,-0.043085523
-9.2825365,-2.6569404999999997,-0.081383765
-9.2825365,-2.6569404999999997,-0.081383765
-9.2825365,-2.6569404999999997,-0.081383765
-9.2825365,-2.6569404999999997,-0.081383765
-9.110194,-2.7814097,-0.03351096
-9.110194,-2.7814097,-0.03351096
-9.110194,-2.7814097,-0.03351096
-9.110194,-2.7814097,-0.03351096
-9.196365,-2.6377914000000002,0.11968201
-9.196365,-2.6377914000000002,0.11968201
-9.196365,-2.6377914000000002,0.11968201
-9.196365,-2.6377914000000002,0.11968201
-9.091045,-2.427151,0.2441513
-9.091045,-2.427151,0.2441513
-9.091045,-2.427151,0.2441513
-9.091045,-2.427151,0.2441513
-9.158066999999999,-2.4558747000000003,0.13883112
-9.158066999999999,-2.4558747000000003,0.13883112
-9.158066999999999,-2.4558747000000003,0.13883112
-9.330409,-2.3505547000000004,0.09095833
-9.330409,-2.3505547000000004,0.09095833
-9.330409,-2.3505547000000004,0.09095833
-9.330409,-2.3505547000000004,0.09095833
-9.330409,-2.3505547000000004,0.09095833
-9.339984,-2.2643836,0.16755481
-9.339984,-2.2643836,0.16755481
-9.339984,-2.2643836,0.16755481
-9.129342999999999,-2.5324712000000003,0.0
-9.129342999999999,-2.5324712000000003,0.0
-9.129342999999999,-2.5324712000000003,0.0
-9.129342999999999,-2.5324712000000003,0.0
-9.158066999999999,-2.6377914000000002,-0.03351096
-9.158066999999999,-2.6377914000000002,-0.03351096
-9.158066999999999,-2.6377914000000002,-0.03351096
-9.158066999999999,-2.6377914000000002,-0.03351096
-9.234664,-2.360129,0.15798025
-9.234664,-2.360129,0.15798025
-9.234664,-2.360129,0.15798025
-9.234664,-2.360129,0.15798025
-9.263388,-2.4654493,0.11968201
-9.263388,-2.4654493,0.11968201
-9.263388,-2.4654493,0.11968201
-9.263388,-2.4654493,0.11968201
-9.272962,-2.494173,0.11968201
-9.272962,-2.494173,0.11968201
-9.272962,-2.494173,0.11968201
-9.272962,-2.494173,0.11968201
-9.167641999999999,-2.4463003,0.20585304
-9.167641999999999,-2.4463003,0.20585304
-9.167641999999999,-2.4463003,0.20585304
-9.167641999999999,-2.4463003,0.20585304
-9.196365,-2.34098,0.26330042
-9.196365,-2.34098,0.26330042
-9.196365,-2.34098,0.26330042
-9.167641999999999,-2.3792782000000003,0.20585304
-9.167641999999999,-2.3792782000000003,0.20585304
-9.167641999999999,-2.3792782000000003,0.20585304
-9.167641999999999,-2.3792782000000003,0.20585304
-9.234664,-2.3026817000000004,0.2154276
-9.234664,-2.3026817000000004,0.2154276
-9.234664,-2.3026817000000004,0.2154276
-9.234664,-2.3026817000000004,0.2154276
-9.263388,-2.2643836,0.19627848
-9.263388,-2.2643836,0.19627848
-9.263388,-2.2643836,0.19627848
-9.263388,-2.2643836,0.19627848
-9.234664,-2.2452345,0.18670394
-9.234664,-2.2452345,0.18670394
-9.234664,-2.2452345,0.18670394
-9.234664,-2.2452345,0.18670394
-9.18679,-2.2452345,0.2154276
-9.18679,-2.2452345,0.2154276
-9.18679,-2.2452345,0.2154276
-9.18679,-2.2452345,0.2154276
-9.225089,-2.2069361,0.26330042
-9.225089,-2.2069361,0.26330042
-9.225089,-2.2069361,0.26330042
-9.225089,-2.2069361,0.26330042
-9.272962,-2.1973617,0.26330042
-9.272962,-2.1973617,0.26330042
-9.272962,-2.1973617,0.26330042
-9.253813000000001,-2.1877869999999997,0.28244954
-9.253813000000001,-2.1877869999999997,0.28244954
-9.253813000000001,-2.1877869999999997,0.28244954
-9.253813000000001,-2.1877869999999997,0.28244954
-9.234664,-2.1973617,0.2920241
-9.234664,-2.1973617,0.2920241
-9.234664,-2.1973617,0.2920241
-9.234664,-2.1973617,0.2920241
-9.234664,-2.2260852000000004,0.26330042
-9.234664,-2.2260852000000004,0.26330042
-9.234664,-2.2260852000000004,0.26330042
-9.234664,-2.2260852000000004,0.26330042
-9.225089,-2.2356597999999996,0.32074776
-9.225089,-2.2356597999999996,0.32074776
-9.225089,-2.2356597999999996,0.32074776
-9.225089,-2.2356597999999996,0.32074776
-9.263388,-2.2165107999999996,0.30159867
-9.263388,-2.2165107999999996,0.30159867
-9.263388,-2.2165107999999996,0.30159867
-9.263388,-2.2165107999999996,0.30159867
-9.225089,-2.2260852000000004,0.25372586
-9.225089,-2.2260852000000004,0.25372586
-9.225089,-2.2260852000000004,0.25372586
-9.225089,-2.2165107999999996,0.28244954
-9.225089,-2.2165107999999996,0.28244954
-9.225089,-2.2165107999999996,0.28244954
-9.225089,-2.2165107999999996,0.28244954
-9.225089,-2.2165107999999996,0.28244954
-9.301685,-2.2452345,0.28244954
-9.301685,-2.2452345,0.28244954
-9.301685,-2.2452345,0.28244954
-9.253813000000001,-2.2356597999999996,0.30159867
-9.253813000000001,-2.2356597999999996,0.30159867
-9.253813000000001,-2.2356597999999996,0.30159867
-9.253813000000001,-2.2356597999999996,0.30159867
-9.263388,-2.2260852000000004,0.30159867
-9.263388,-2.2260852000000004,0.30159867
-9.263388,-2.2260852000000004,0.30159867
-9.263388,-2.2260852000000004,0.30159867
-9.244238000000001,-2.2069361,0.32074776
-9.244238000000001,-2.2069361,0.32074776
-9.244238000000001,-2.2069361,0.32074776
-9.244238000000001,-2.2069361,0.32074776
-9.244238000000001,-2.1973617,0.34947145
-9.244238000000001,-2.1973617,0.34947145
-9.244238000000001,-2.1973617,0.34947145
-9.244238000000001,-2.1973617,0.34947145
-9.272962,-2.2069361,0.33032233
-9.272962,-2.2069361,0.33032233
-9.272962,-2.2069361,0.33032233
-9.272962,-2.2069361,0.33032233
-9.253813000000001,-2.1973617,0.3398969
-9.253813000000001,-2.1973617,0.3398969
-9.253813000000001,-2.1973617,0.3398969
-9.253813000000001,-2.1973617,0.3398969
-9.225089,-2.2165107999999996,0.34947145
-9.225089,-2.2165107999999996,0.34947145
-9.225089,-2.2165107999999996,0.34947145
-9.263388,-2.1973617,0.3398969
-9.263388,-2.1973617,0.3398969
-9.263388,-2.1973617,0.3398969
-9.263388,-2.1973617,0.3398969
-9.263388,-2.1973617,0.3398969
-9.244238000000001,-2.2069361,0.3398969
-9.244238000000001,-2.2069361,0.3398969
-9.244238000000001,-2.2069361,0.3398969
-9.225089,-2.168638,0.33032233
-9.225089,-2.168638,0.33032233
-9.225089,-2.168638,0.33032233
-9.225089,-2.168638,0.33032233
-9.272962,-2.1877869999999997,0.32074776
-9.272962,-2.1877869999999997,0.32074776
-9.272962,-2.1877869999999997,0.32074776
-9.272962,-2.1877869999999997,0.32074776
-9.215514,-2.1877869999999997,0.28244954
-9.215514,-2.1877869999999997,0.28244954
-9.215514,-2.1877869999999997,0.28244954
-9.215514,-2.1877869999999997,0.28244954
-9.225089,-2.2260852000000004,0.27287498
-9.225089,-2.2260852000000004,0.27287498
-9.225089,-2.2260852000000004,0.27287498
-9.225089,-2.2260852000000004,0.27287498
-9.368708,-2.2165107999999996,0.3398969
-9.368708,-2.2165107999999996,0.3398969
-9.368708,-2.2165107999999996,0.3398969
-9.368708,-2.2165107999999996,0.3398969
-9.2825365,-2.1782124,0.4164934
-9.2825365,-2.1782124,0.4164934
-9.2825365,-2.1782124,0.4164934
-9.2825365,-2.1782124,0.4164934
-9.215514,-2.168638,0.4164934
-9.215514,-2.168638,0.4164934
-9.215514,-2.168638,0.4164934
-9.330409,-2.1877869999999997,0.37819514
-9.330409,-2.1877869999999997,0.37819514
-9.330409,-2.1877869999999997,0.37819514
-9.330409,-2.1877869999999997,0.37819514
-9.253813000000001,-2.1973617,0.36862057
-9.253813000000001,-2.1973617,0.36862057
-9.253813000000001,-2.1973617,0.36862057
-9.253813000000001,-2.1973617,0.36862057
-9.244238000000001,-2.1973617,0.34947145
-9.244238000000001,-2.1973617,0.34947145
-9.244238000000001,-2.1973617,0.34947145
-9.244238000000001,-2.1973617,0.34947145
-9.18679,-2.2260852000000004,0.34947145
-9.18679,-2.2260852000000004,0.34947145
-9.18679,-2.2260852000000004,0.34947145
-9.18679,-2.2260852000000004,0.34947145
-9.148492999999998,-2.1303396,0.32074776
-9.148492999999998,-2.1303396,0.32074776
-9.148492999999998,-2.1303396,0.32074776
-9.148492999999998,-2.1303396,0.32074776
-9.292110000000001,-2.2835326,0.27287498
-9.292110000000001,-2.2835326,0.27287498
-9.292110000000001,-2.2835326,0.27287498
-9.301685,-2.2260852000000004,0.34947145
-9.301685,-2.2260852000000004,0.34947145
-9.301685,-2.2260852000000004,0.34947145
-9.301685,-2.2260852000000004,0.34947145
-9.215514,-2.1877869999999997,0.34947145
-9.215514,-2.1877869999999997,0.34947145
-9.215514,-2.1877869999999997,0.34947145
-9.215514,-2.1877869999999997,0.34947145
-9.20594,-2.1111906000000005,0.34947145
-9.20594,-2.1111906000000005,0.34947145
-9.20594,-2.1111906000000005,0.34947145
-9.20594,-2.1111906000000005,0.34947145
-9.378282,-2.1399142999999996,0.32074776
-9.378282,-2.1399142999999996,0.32074776
-9.378282,-2.1399142999999996,0.32074776
-9.378282,-2.1399142999999996,0.32074776
-9.244238000000001,-2.1207652,0.3111732
-9.244238000000001,-2.1207652,0.3111732
-9.244238000000001,-2.1207652,0.3111732
-9.244238000000001,-2.1207652,0.3111732
-9.20594,-2.1303396,0.3111732
-9.20594,-2.1303396,0.3111732
-9.20594,-2.1303396,0.3111732
-9.20594,-2.1303396,0.3111732
-9.2825365,-2.0920415,0.3398969
-9.2825365,-2.0920415,0.3398969
-9.2825365,-2.0920415,0.3398969
-9.215514,-2.1590632999999997,0.28244954
-9.215514,-2.1590632999999997,0.28244954
-9.215514,-2.1590632999999997,0.28244954
-9.215514,-2.1590632999999997,0.28244954
-9.215514,-2.1590632999999997,0.28244954
-9.272962,-2.1207652,0.26330042
-9.272962,-2.1207652,0.26330042
-9.272962,-2.1207652,0.26330042
-9.234664,-2.1399142999999996,0.25372586
-9.234664,-2.1399142999999996,0.25372586
-9.234664,-2.1399142999999996,0.25372586
-9.234664,-2.1399142999999996,0.25372586
-9.31126,-2.1303396,0.3111732
-9.31126,-2.1303396,0.3111732
-9.31126,-2.1303396,0.3111732
-9.31126,-2.1303396,0.3111732
-9.272962,-2.1973617,0.22500217
-9.272962,-2.1973617,0.22500217
-9.272962,-2.1973617,0.22500217
-9.272962,-2.1973617,0.22500217
-9.158066999999999,-2.1590632999999997,0.20585304
-9.158066999999999,-2.1590632999999997,0.20585304
-9.158066999999999,-2.1590632999999997,0.20585304
-9.158066999999999,-2.1590632999999997,0.20585304
-9.301685,-2.1877869999999997,0.25372586
-9.301685,-2.1877869999999997,0.25372586
-9.301685,-2.1877869999999997,0.25372586
-9.301685,-2.1877869999999997,0.25372586
-9.234664,-2.2069361,0.23457673
-9.234664,-2.2069361,0.23457673
-9.234664,-2.2069361,0.23457673
-9.234664,-2.2069361,0.23457673
-9.41658,-2.149489,0.2441513
-9.41658,-2.149489,0.2441513
-9.41658,-2.149489,0.2441513
-9.378282,-2.1207652,0.34947145
-9.378282,-2.1207652,0.34947145
-9.378282,-2.1207652,0.34947145
-9.378282,-2.1207652,0.34947145
-9.272962,-2.1973617,0.4164934
-9.272962,-2.1973617,0.4164934
-9.272962,-2.1973617,0.4164934
-9.272962,-2.1973617,0.4164934
-9.253813000000001,-2.2739582,0.30159867
-9.253813000000001,-2.2739582,0.30159867
-9.253813000000001,-2.2739582,0.30159867
-9.253813000000001,-2.2739582,0.30159867
-9.253813000000001,-2.1590632999999997,0.22500217
-9.253813000000001,-2.1590632999999997,0.22500217
-9.253813000000001,-2.1590632999999997,0.22500217
-9.253813000000001,-2.1590632999999997,0.22500217
-9.244238000000001,-2.1590632999999997,0.22500217
-9.244238000000001,-2.1590632999999997,0.22500217
-9.244238000000001,-2.1590632999999997,0.22500217
-9.244238000000001,-2.1590632999999997,0.22500217
-9.272962,-2.2835326,0.18670394
-9.272962,-2.2835326,0.18670394
-9.272962,-2.2835326,0.18670394
-9.272962,-2.2835326,0.18670394
-9.20594,-2.1877869999999997,0.2154276
-9.20594,-2.1877869999999997,0.2154276
-9.20594,-2.1877869999999997,0.2154276
-9.20594,-2.1877869999999997,0.2154276
-9.20594,-2.168638,0.22500217
-9.20594,-2.168638,0.22500217
-9.20594,-2.168638,0.22500217
-9.20594,-2.101616,0.2441513
-9.20594,-2.101616,0.2441513
-9.20594,-2.101616,0.2441513
-9.20594,-2.101616,0.2441513
-9.320834,-2.2260852000000004,0.2441513
-9.320834,-2.2260852000000004,0.2441513
-9.320834,-2.2260852000000004,0.2441513
-9.320834,-2.2260852000000004,0.2441513
-9.454879,-2.1782124,0.37819514
-9.454879,-2.1782124,0.37819514
-9.454879,-2.1782124,0.37819514
-9.454879,-2.1782124,0.37819514
-9.359133,-2.1207652,0.4164934
-9.359133,-2.1207652,0.4164934
-9.359133,-2.1207652,0.4164934
-9.359133,-2.1207652,0.4164934
-9.100619,-2.1303396,0.27287498
-9.100619,-2.1303396,0.27287498
-9.100619,-2.1303396,0.27287498
-9.100619,-2.1303396,0.27287498
-9.330409,-2.0537431,0.28244954
-9.330409,-2.0537431,0.28244954
-9.330409,-2.0537431,0.28244954
-9.330409,-2.0537431,0.28244954
-9.435728999999998,-2.1111906000000005,0.359046
-9.435728999999998,-2.1111906000000005,0.359046
-9.435728999999998,-2.1111906000000005,0.359046
-9.215514,-2.168638,0.23457673
-9.215514,-2.168638,0.23457673
-9.215514,-2.168638,0.23457673
-9.215514,-2.168638,0.23457673
-9.148492999999998,-2.0537431,0.27287498
-9.148492999999998,-2.0537431,0.27287498
-9.148492999999998,-2.0537431,0.27287498
-9.148492999999998,-2.0537431,0.27287498
-9.148492999999998,-2.0633178,0.23457673
-9.148492999999998,-2.0633178,0.23457673
-9.148492999999998,-2.0633178,0.23457673
-9.148492999999998,-2.0633178,0.23457673
-9.253813000000001,-2.015445,0.25372586
-9.253813000000001,-2.015445,0.25372586
-9.253813000000001,-2.015445,0.25372586
-9.253813000000001,-2.015445,0.25372586
-9.263388,-1.9962958,0.3398969
-9.263388,-1.9962958,0.3398969
-9.263388,-1.9962958,0.3398969
-9.263388,-1.9962958,0.3398969
-9.253813000000001,-2.0633178,0.3877697
-9.253813000000001,-2.0633178,0.3877697
-9.253813000000001,-2.0633178,0.3877697
-9.253813000000001,-2.0633178,0.3877697
-9.31126,-2.0728923999999997,0.40691882
-9.31126,-2.0728923999999997,0.40691882
-9.31126,-2.0728923999999997,0.40691882
-9.330409,-2.0824668,0.39734426
-9.330409,-2.0824668,0.39734426
-9.330409,-2.0824668,0.39734426
-9.330409,-2.0824668,0.39734426
-9.330409,-2.0824668,0.39734426
-9.20594,-2.101616,0.39734426
-9.20594,-2.101616,0.39734426
-9.20594,-2.101616,0.39734426
-9.167641999999999,-2.1303396,0.26330042
-9.167641999999999,-2.1303396,0.26330042
-9.167641999999999,-2.1303396,0.26330042
-9.167641999999999,-2.1303396,0.26330042
-9.454879,-2.254809,0.2154276
-9.454879,-2.254809,0.2154276
-9.454879,-2.254809,0.2154276
-9.454879,-2.254809,0.2154276
-9.407005,-2.3314054,0.44521707
-9.407005,-2.3314054,0.44521707
-9.407005,-2.3314054,0.44521707
-9.407005,-2.3314054,0.44521707
-9.244238000000001,-2.1973617,0.46436617
-9.244238000000001,-2.1973617,0.46436617
-9.244238000000001,-2.1973617,0.46436617
-9.244238000000001,-2.1973617,0.46436617
-9.3878565,-2.2931072999999995,0.3111732
-9.3878565,-2.2931072999999995,0.3111732
-9.3878565,-2.2931072999999995,0.3111732
-9.3878565,-2.2931072999999995,0.3111732
-9.215514,-2.2835326,0.39734426
-9.215514,-2.2835326,0.39734426
-9.215514,-2.2835326,0.39734426
-9.033598,-2.1590632999999997,0.44521707
-9.033598,-2.1590632999999997,0.44521707
-9.033598,-2.1590632999999997,0.44521707
-9.033598,-2.1590632999999997,0.44521707
-9.196365,-2.1590632999999997,0.34947145
-9.196365,-2.1590632999999997,0.34947145
-9.196365,-2.1590632999999997,0.34947145
-9.196365,-2.1590632999999997,0.34947145
-9.292110000000001,-2.149489,0.32074776
-9.292110000000001,-2.149489,0.32074776
-9.292110000000001,-2.149489,0.32074776
-9.292110000000001,-2.149489,0.32074776
-9.253813000000001,-2.0824668,0.4164934
-9.253813000000001,-2.0824668,0.4164934
-9.253813000000001,-2.0824668,0.4164934
-9.253813000000001,-2.0824668,0.4164934
-9.167641999999999,-2.2069361,0.46436617
-9.167641999999999,-2.2069361,0.46436617
-9.167641999999999,-2.2069361,0.46436617
-9.167641999999999,-2.2069361,0.46436617
-9.177217,-2.2356597999999996,0.49308985
-9.177217,-2.2356597999999996,0.49308985
-9.177217,-2.2356597999999996,0.49308985
-9.177217,-2.2356597999999996,0.49308985
-9.272962,-2.2835326,0.48351530000000004
-9.272962,-2.2835326,0.48351530000000004
-9.272962,-2.2835326,0.48351530000000004
-9.272962,-2.321831,0.46436617
-9.272962,-2.321831,0.46436617
-9.272962,-2.321831,0.46436617
-9.272962,-2.321831,0.46436617
-9.272962,-2.321831,0.46436617
-9.292110000000001,-2.2931072999999995,0.48351530000000004
-9.292110000000001,-2.2931072999999995,0.48351530000000004
-9.292110000000001,-2.2931072999999995,0.48351530000000004
-9.263388,-2.2452345,0.49308985
-9.263388,-2.2452345,0.49308985
-9.263388,-2.2452345,0.49308985
-9.263388,-2.2452345,0.49308985
-9.253813000000001,-2.1782124,0.47394073
-9.253813000000001,-2.1782124,0.47394073
-9.253813000000001,-2.1782124,0.47394073
-9.253813000000001,-2.1782124,0.47394073
-9.253813000000001,-2.101616,0.44521707
-9.253813000000001,-2.101616,0.44521707
-9.253813000000001,-2.101616,0.44521707
-9.253813000000001,-2.101616,0.44521707
-9.215514,-2.0824668,0.46436617
-9.215514,-2.0824668,0.46436617
-9.215514,-2.0824668,0.46436617
-9.215514,-2.0824668,0.46436617
-9.225089,-2.1207652,0.43564250000000004
-9.225089,-2.1207652,0.43564250000000004
-9.225089,-2.1207652,0.43564250000000004
-9.225089,-2.1207652,0.43564250000000004
-9.244238000000001,-2.1399142999999996,0.42606795
-9.244238000000001,-2.1399142999999996,0.42606795
-9.244238000000001,-2.1399142999999996,0.42606795
-9.244238000000001,-2.1399142999999996,0.42606795
-9.225089,-2.1877869999999997,0.43564250000000004
-9.225089,-2.1877869999999997,0.43564250000000004
-9.225089,-2.1877869999999997,0.43564250000000004
-9.272962,-2.2165107999999996,0.46436617
-9.272962,-2.2165107999999996,0.46436617
-9.272962,-2.2165107999999996,0.46436617
-9.272962,-2.2165107999999996,0.46436617
-9.225089,-2.2643836,0.48351530000000004
-9.225089,-2.2643836,0.48351530000000004
-9.225089,-2.2643836,0.48351530000000004
-9.225089,-2.2643836,0.48351530000000004
-9.244238000000001,-2.2165107999999996,0.48351530000000004
-9.244238000000001,-2.2165107999999996,0.48351530000000004
-9.244238000000001,-2.2165107999999996,0.48351530000000004
-9.244238000000001,-2.2165107999999996,0.48351530000000004
-9.272962,-2.2260852000000004,0.45479164
-9.272962,-2.2260852000000004,0.45479164
-9.272962,-2.2260852000000004,0.45479164
-9.272962,-2.2260852000000004,0.45479164
-9.244238000000001,-2.2165107999999996,0.46436617
-9.244238000000001,-2.2165107999999996,0.46436617
-9.244238000000001,-2.2165107999999996,0.46436617
-9.244238000000001,-2.2165107999999996,0.46436617
-9.234664,-2.1877869999999997,0.44521707
-9.234664,-2.1877869999999997,0.44521707
-9.234664,-2.1877869999999997,0.44521707
-9.234664,-2.1877869999999997,0.44521707
-9.234664,-2.1877869999999997,0.44521707
-9.234664,-2.1877869999999997,0.44521707
-9.234664,-2.1877869999999997,0.44521707
-9.253813000000001,-2.1782124,0.48351530000000004
-9.253813000000001,-2.1782124,0.48351530000000004
-9.253813000000001,-2.1782124,0.48351530000000004
-9.253813000000001,-2.1782124,0.48351530000000004
-9.215514,-2.1399142999999996,0.46436617
-9.215514,-2.1399142999999996,0.46436617
-9.215514,-2.1399142999999996,0.46436617
-9.215514,-2.1399142999999996,0.46436617
-9.263388,-2.1399142999999996,0.45479164
-9.263388,-2.1399142999999996,0.45479164
-9.263388,-2.1399142999999996,0.45479164
-9.292110000000001,-2.1973617,0.43564250000000004
-9.292110000000001,-2.1973617,0.43564250000000004
-9.292110000000001,-2.1973617,0.43564250000000004
-9.292110000000001,-2.1973617,0.43564250000000004
-9.292110000000001,-2.1973617,0.43564250000000004
-9.244238000000001,-2.254809,0.47394073
-9.244238000000001,-2.254809,0.47394073
-9.244238000000001,-2.254809,0.47394073
-9.225089,-2.2835326,0.512239
-9.225089,-2.2835326,0.512239
-9.225089,-2.2835326,0.512239
-9.225089,-2.2835326,0.512239
-9.272962,-2.2835326,0.46436617
-9.272962,-2.2835326,0.46436617
-9.272962,-2.2835326,0.46436617
-9.272962,-2.2835326,0.46436617
-9.272962,-2.3026817000000004,0.45479164
-9.272962,-2.3026817000000004,0.45479164
-9.272962,-2.3026817000000004,0.45479164
-9.272962,-2.3026817000000004,0.45479164
-9.196365,-2.2452345,0.512239
-9.196365,-2.2452345,0.512239
-9.196365,-2.2452345,0.512239
-9.196365,-2.2452345,0.512239
-9.244238000000001,-2.2452345,0.5505372
-9.244238000000001,-2.2452345,0.5505372
-9.244238000000001,-2.2452345,0.5505372
-9.244238000000001,-2.2452345,0.5505372
-9.148492999999998,-2.2260852000000004,0.56011176
-9.148492999999998,-2.2260852000000004,0.56011176
-9.148492999999998,-2.2260852000000004,0.56011176
-9.196365,-2.2165107999999996,0.48351530000000004
-9.196365,-2.2165107999999996,0.48351530000000004
-9.196365,-2.2165107999999996,0.48351530000000004
-9.196365,-2.2165107999999996,0.48351530000000004
-9.138917999999999,-2.1973617,0.5218136
-9.138917999999999,-2.1973617,0.5218136
-9.138917999999999,-2.1973617,0.5218136
-9.138917999999999,-2.1973617,0.5218136
-9.215514,-2.2165107999999996,0.50266445
-9.215514,-2.2165107999999996,0.50266445
-9.215514,-2.2165107999999996,0.50266445
-9.215514,-2.2165107999999996,0.50266445
-9.272962,-2.2069361,0.48351530000000004
-9.272962,-2.2069361,0.48351530000000004
-9.272962,-2.2069361,0.48351530000000004
-9.272962,-2.2069361,0.48351530000000004
-9.177217,-2.149489,0.50266445
-9.177217,-2.149489,0.50266445
-9.177217,-2.149489,0.50266445
-9.177217,-2.149489,0.50266445
-9.225089,-2.149489,0.42606795
-9.225089,-2.149489,0.42606795
-9.225089,-2.149489,0.42606795
-9.225089,-2.149489,0.42606795
-9.196365,-2.1207652,0.4164934
-9.196365,-2.1207652,0.4164934
-9.196365,-2.1207652,0.4164934
-9.244238000000001,-2.2260852000000004,0.359046
-9.244238000000001,-2.2260852000000004,0.359046
-9.244238000000001,-2.2260852000000004,0.359046
-9.244238000000001,-2.2260852000000004,0.359046
-9.244238000000001,-2.2260852000000004,0.359046
-9.31126,-2.1399142999999996,0.3877697
-9.31126,-2.1399142999999996,0.3877697
-9.31126,-2.1399142999999996,0.3877697
-9.253813000000001,-2.101616,0.36862057
-9.253813000000001,-2.101616,0.36862057
-9.253813000000001,-2.101616,0.36862057
-9.253813000000001,-2.101616,0.36862057
-9.20594,-2.0441686999999997,0.34947145
-9.20594,-2.0441686999999997,0.34947145
-9.20594,-2.0441686999999997,0.34947145
-9.20594,-2.0441686999999997,0.34947145
-9.31126,-2.034594,0.33032233
-9.31126,-2.034594,0.33032233
-9.31126,-2.034594,0.33032233
-9.31126,-2.034594,0.33032233
-9.330409,-2.101616,0.3877697
-9.330409,-2.101616,0.3877697
-9.330409,-2.101616,0.3877697
-9.330409,-2.101616,0.3877697
-9.31126,-2.2356597999999996,0.45479164
-9.31126,-2.2356597999999996,0.45479164
-9.31126,-2.2356597999999996,0.45479164
-9.31126,-2.2356597999999996,0.45479164
-9.024023,-2.101616,0.46436617
-9.024023,-2.101616,0.46436617
-9.024023,-2.101616,0.46436617
-9.024023,-2.101616,0.46436617
-9.119769,-2.2356597999999996,0.18670394
-9.119769,-2.2356597999999996,0.18670394
-9.119769,-2.2356597999999996,0.18670394
-9.474028,-2.2165107999999996,-0.062234644000000006
-9.474028,-2.2165107999999996,-0.062234644000000006
-9.474028,-2.2165107999999996,-0.062234644000000006
-9.474028,-2.2165107999999996,-0.062234644000000006
-9.474028,-2.2165107999999996,-0.062234644000000006
-9.31126,-2.34098,-0.03351096
-9.31126,-2.34098,-0.03351096
-9.31126,-2.34098,-0.03351096
-9.54105,-2.4175766,0.023936402000000002
-9.54105,-2.4175766,0.023936402000000002
-9.54105,-2.4175766,0.023936402000000002
-9.54105,-2.4175766,0.023936402000000002
-9.234664,-2.7431116,-0.081383765
-9.234664,-2.7431116,-0.081383765
-9.234664,-2.7431116,-0.081383765
-9.234664,-2.7431116,-0.081383765
-8.842107,-3.059072,0.014361841
-8.842107,-3.059072,0.014361841
-8.842107,-3.059072,0.014361841
-8.842107,-3.059072,0.014361841
-9.091045,-4.322914,0.2441513
-9.091045,-4.322914,0.2441513
-9.091045,-4.322914,0.2441513
-9.091045,-4.322914,0.2441513
-9.052747,-4.7920675,0.99096704
-9.052747,-4.7920675,0.99096704
-9.052747,-4.7920675,0.99096704
-9.655944,-4.782493,1.14416
-9.655944,-4.782493,1.14416
-9.655944,-4.782493,1.14416
-9.655944,-4.782493,1.14416
-10.058076,-4.772918,1.0101161
-10.058076,-4.772918,1.0101161
-10.058076,-4.772918,1.0101161
-10.058076,-4.772918,1.0101161
-9.684667999999999,-4.849515,0.40691882
-9.684667999999999,-4.849515,0.40691882
-9.684667999999999,-4.849515,0.40691882
-9.684667999999999,-4.849515,0.40691882
-8.401677000000001,-4.389936,0.8281995000000001
-8.401677000000001,-4.389936,0.8281995000000001
-8.401677000000001,-4.389936,0.8281995000000001
-8.401677000000001,-4.389936,0.8281995000000001
-7.769756,-3.4707782,0.59841
-7.769756,-3.4707782,0.59841
-7.769756,-3.4707782,0.59841
-7.769756,-3.4707782,0.59841
-8.124015,-3.0016246,0.20585304
-8.124015,-3.0016246,0.20585304
-8.124015,-3.0016246,0.20585304
-8.727212,-1.9388485,0.33032233
-8.727212,-1.9388485,0.33032233
-8.727212,-1.9388485,0.33032233
-8.727212,-1.9388485,0.33032233
-8.727212,-1.9388485,0.33032233
-10.038927000000001,-0.23457673,-0.22500217
-10.038927000000001,-0.23457673,-0.22500217
-10.038927000000001,-0.23457673,-0.22500217
-12.298523,0.49308985,-0.63670826
-12.298523,0.49308985,-0.63670826
-12.298523,0.49308985,-0.63670826
-12.298523,0.49308985,-0.63670826
-10.757019,-0.45479164,-0.23457673
-10.757019,-0.45479164,-0.23457673
-10.757019,-0.45479164,-0.23457673
-10.757019,-0.45479164,-0.23457673
-8.736787,-0.63670826,0.39734426
-8.736787,-0.63670826,0.39734426
-8.736787,-0.63670826,0.39734426
-8.736787,-0.63670826,0.39734426
-8.181462,-0.9718179,0.09095833
-8.181462,-0.9718179,0.09095833
-8.181462,-0.9718179,0.09095833
-8.181462,-0.9718179,0.09095833
-8.2676325,-2.2260852000000004,0.081383765
-8.2676325,-2.2260852000000004,0.081383765
-8.2676325,-2.2260852000000004,0.081383765
-8.2676325,-2.2260852000000004,0.081383765
-9.818711,-3.518651,0.47394073
-9.818711,-3.518651,0.47394073
-9.818711,-3.518651,0.47394073
-9.818711,-3.518651,0.47394073
-12.260224000000001,-3.9495062999999995,0.78032666
-12.260224000000001,-3.9495062999999995,0.78032666
-12.260224000000001,-3.9495062999999995,0.78032666
-15.448553,-3.8920587999999996,1.1250108
-15.448553,-3.8920587999999996,1.1250108
-15.448553,-3.8920587999999996,1.1250108
-15.448553,-3.8920587999999996,1.1250108
-15.448553,-3.8920587999999996,1.1250108
-12.3463955,-2.3888528,0.8281995000000001
-12.3463955,-2.3888528,0.8281995000000001
-12.3463955,-2.3888528,0.8281995000000001
-13.859176999999999,-2.1973617,-1.1058618
-13.859176999999999,-2.1973617,-1.1058618
-13.859176999999999,-2.1973617,-1.1058618
-13.859176999999999,-2.1973617,-1.1058618
-13.035764,-2.149489,-1.5845897
-13.035764,-2.149489,-1.5845897
-13.035764,-2.149489,-1.5845897
-13.035764,-2.149489,-1.5845897
-10.737869,-1.3739493999999999,-0.9526688
-10.737869,-1.3739493999999999,-0.9526688
-10.737869,-1.3739493999999999,-0.9526688
-10.737869,-1.3739493999999999,-0.9526688
-8.937852000000001,-0.8760723,-1.1250108
-8.937852000000001,-0.8760723,-1.1250108
-8.937852000000001,-0.8760723,-1.1250108
-8.937852000000001,-0.8760723,-1.1250108
-7.128260000000001,-0.751603,-1.3739493999999999
-7.128260000000001,-0.751603,-1.3739493999999999
-7.128260000000001,-0.751603,-1.3739493999999999
-7.128260000000001,-0.751603,-1.3739493999999999
-7.7984796,-1.14416,-0.9526688
-7.7984796,-1.14416,-0.9526688
-7.7984796,-1.14416,-0.9526688
-9.502751,-0.85692316,-0.92394507
-9.502751,-0.85692316,-0.92394507
-9.502751,-0.85692316,-0.92394507
-9.502751,-0.85692316,-0.92394507
-10.709146,-0.26330042,-0.70373017
-10.709146,-0.26330042,-0.70373017
-10.709146,-0.26330042,-0.70373017
-10.709146,-0.26330042,-0.70373017
-10.316589,-1.9292740000000002,0.39734426
-10.316589,-1.9292740000000002,0.39734426
-10.316589,-1.9292740000000002,0.39734426
-10.316589,-1.9292740000000002,0.39734426
-14.43365,-1.5079931999999998,-0.37819514
-14.43365,-1.5079931999999998,-0.37819514
-14.43365,-1.5079931999999998,-0.37819514
-14.43365,-1.5079931999999998,-0.37819514
-13.715557999999998,-1.3930986,-0.6271336999999999
-13.715557999999998,-1.3930986,-0.6271336999999999
-13.715557999999998,-1.3930986,-0.6271336999999999
-13.715557999999998,-1.3930986,-0.6271336999999999
-8.277207,-1.9292740000000002,0.83777404
-8.277207,-1.9292740000000002,0.83777404
-8.277207,-1.9292740000000002,0.83777404
-8.277207,-1.9292740000000002,0.83777404
-7.9899707,-1.9101248,-0.023936402000000002
-7.9899707,-1.9101248,-0.023936402000000002
-7.9899707,-1.9101248,-0.023936402000000002
-9.780414,-3.6431203,-0.00478728
-9.780414,-3.6431203,-0.00478728
-9.780414,-3.6431203,-0.00478728
-9.780414,-3.6431203,-0.00478728
-10.2016945,-4.409085299999999,1.1250108
-10.2016945,-4.409085299999999,1.1250108
-10.2016945,-4.409085299999999,1.1250108
-10.2016945,-4.409085299999999,1.1250108
-12.509163000000001,-4.131423000000001,1.2016073
-12.509163000000001,-4.131423000000001,1.2016073
-12.509163000000001,-4.131423000000001,1.2016073
-12.509163000000001,-4.131423000000001,1.2016073
-15.075145999999998,-3.6622693999999996,0.6750065
-15.075145999999998,-3.6622693999999996,0.6750065
-15.075145999999998,-3.6622693999999996,0.6750065
-15.075145999999998,-3.6622693999999996,0.6750065
-13.907048999999999,-2.2356597999999996,-0.44521707
-13.907048999999999,-2.2356597999999996,-0.44521707
-13.907048999999999,-2.2356597999999996,-0.44521707
-13.907048999999999,-2.2356597999999996,-0.44521707
-14.491097,-2.1782124,-1.5462915000000002
-14.491097,-2.1782124,-1.5462915000000002
-14.491097,-2.1782124,-1.5462915000000002
-14.491097,-2.1782124,-1.5462915000000002
-12.308098,-1.709059,-1.5367169
-12.308098,-1.709059,-1.5367169
-12.308098,-1.709059,-1.5367169
-9.167641999999999,-0.40691882,-0.90479594
-9.167641999999999,-0.40691882,-0.90479594
-9.167641999999999,-0.40691882,-0.90479594
-9.167641999999999,-0.40691882,-0.90479594
-9.167641999999999,-0.40691882,-0.90479594
-6.5633610000000004,-0.2441513,-0.8760723
-6.5633610000000004,-0.2441513,-0.8760723
-6.5633610000000004,-0.2441513,-0.8760723
-6.486765,-0.98139244,-1.2973529
-6.486765,-0.98139244,-1.2973529
-6.486765,-0.98139244,-1.2973529
-6.486765,-0.98139244,-1.2973529
-8.372953,-0.64628285,-1.2782038
-8.372953,-0.64628285,-1.2782038
-8.372953,-0.64628285,-1.2782038
-8.372953,-0.64628285,-1.2782038
-9.129342999999999,-0.90479594,-0.6271336999999999
-9.129342999999999,-0.90479594,-0.6271336999999999
-9.129342999999999,-0.90479594,-0.6271336999999999
-9.129342999999999,-0.90479594,-0.6271336999999999
-10.536804,-1.9196993000000002,-0.081383765
-10.536804,-1.9196993000000002,-0.081383765
-10.536804,-1.9196993000000002,-0.081383765
-10.536804,-1.9196993000000002,-0.081383765
-13.954922,-1.948423,-0.081383765
-13.954922,-1.948423,-0.081383765
-13.954922,-1.948423,-0.081383765
-13.954922,-1.948423,-0.081383765
-14.66344,-1.8814011999999998,0.023936402000000002
-14.66344,-1.8814011999999998,0.023936402000000002
-14.66344,-1.8814011999999998,0.023936402000000002
-14.66344,-1.8814011999999998,0.023936402000000002
-8.229335,-2.561195,1.9962958
-8.229335,-2.561195,1.9962958
-8.229335,-2.561195,1.9962958
-7.616563,-2.1782124,1.6037389
-7.616563,-2.1782124,1.6037389
-7.616563,-2.1782124,1.6037389
-7.616563,-2.1782124,1.6037389
-8.822957,-2.733537,0.50266445
-8.822957,-2.733537,0.50266445
-8.822957,-2.733537,0.50266445
-8.822957,-2.733537,0.50266445
-10.058076,-2.9824755,1.2399056
-10.058076,-2.9824755,1.2399056
-10.058076,-2.9824755,1.2399056
-10.058076,-2.9824755,1.2399056
-12.135756,-3.6143966,1.2016073
-12.135756,-3.6143966,1.2016073
-12.135756,-3.6143966,1.2016073
-12.135756,-3.6143966,1.2016073
-15.544298999999999,-4.045252,0.47394073
-15.544298999999999,-4.045252,0.47394073
-15.544298999999999,-4.045252,0.47394073
-15.544298999999999,-4.045252,0.47394073
-12.46129,-2.714388,0.36862057
-12.46129,-2.714388,0.36862057
-12.46129,-2.714388,0.36862057
-13.390023000000001,-2.408002,-1.1058618
-13.390023000000001,-2.408002,-1.1058618
-13.390023000000001,-2.408002,-1.1058618
-13.390023000000001,-2.408002,-1.1058618
-13.390023000000001,-2.408002,-1.1058618
-12.059159,-1.4601203999999999,-0.8760723
-12.059159,-1.4601203999999999,-0.8760723
-12.059159,-1.4601203999999999,-0.8760723
-8.755936,0.25372586,0.0
-8.755936,0.25372586,0.0
-8.755936,0.25372586,0.0
-8.755936,0.25372586,0.0
-7.0037910000000005,0.32074776,-1.2494801000000002
-7.0037910000000005,0.32074776,-1.2494801000000002
-7.0037910000000005,0.32074776,-1.2494801000000002
-7.0037910000000005,0.32074776,-1.2494801000000002
-6.764427,-0.99096704,-1.4888442
-6.764427,-0.99096704,-1.4888442
-6.764427,-0.99096704,-1.4888442
-6.764427,-0.99096704,-1.4888442
-7.693159,-0.63670826,-1.4122477
-7.693159,-0.63670826,-1.4122477
-7.693159,-0.63670826,-1.4122477
-7.693159,-0.63670826,-1.4122477
-8.947427000000001,-0.33032233,-1.4026731000000001
-8.947427000000001,-0.33032233,-1.4026731000000001
-8.947427000000001,-0.33032233,-1.4026731000000001
-8.947427000000001,-0.33032233,-1.4026731000000001
-12.279374,-1.8335283,-0.92394507
-12.279374,-1.8335283,-0.92394507
-12.279374,-1.8335283,-0.92394507
-12.279374,-1.8335283,-0.92394507
-13.524067,-2.5899186000000003,0.5888355
-13.524067,-2.5899186000000003,0.5888355
-13.524067,-2.5899186000000003,0.5888355
-14.76876,-0.6079846,-1.6133133999999998
-14.76876,-0.6079846,-1.6133133999999998
-14.76876,-0.6079846,-1.6133133999999998
-14.76876,-0.6079846,-1.6133133999999998
-14.76876,-0.6079846,-1.6133133999999998
-10.94851,-0.7994758000000001,0.63670826
-10.94851,-0.7994758000000001,0.63670826
-10.94851,-0.7994758000000001,0.63670826
-6.3527207,-2.9441773999999996,0.48351530000000004
-6.3527207,-2.9441773999999996,0.48351530000000004
-6.3527207,-2.9441773999999996,0.48351530000000004
-6.3527207,-2.9441773999999996,0.48351530000000004
-6.5154879999999995,-2.7909843999999997,0.03351096
-6.5154879999999995,-2.7909843999999997,0.03351096
-6.5154879999999995,-2.7909843999999997,0.03351096
-6.5154879999999995,-2.7909843999999997,0.03351096
-9.368708,-2.5707695,0.50266445
-9.368708,-2.5707695,0.50266445
-9.368708,-2.5707695,0.50266445
-9.368708,-2.5707695,0.50266445
-11.858092999999998,-3.5473747,1.1728836
-11.858092999999998,-3.5473747,1.1728836
-11.858092999999998,-3.5473747,1.1728836
-11.858092999999998,-3.5473747,1.1728836
-14.625141000000001,-3.2505634,0.40691882
-14.625141000000001,-3.2505634,0.40691882
-14.625141000000001,-3.2505634,0.40691882
-14.960251000000001,-3.231414,0.56968635
-14.960251000000001,-3.231414,0.56968635
-14.960251000000001,-3.231414,0.56968635
-14.960251000000001,-3.231414,0.56968635
-14.960251000000001,-3.231414,0.56968635
-11.992137,-2.2643836,-0.49308985
-11.992137,-2.2643836,-0.49308985
-11.992137,-2.2643836,-0.49308985
-13.390023000000001,-1.709059,-1.3165021000000001
-13.390023000000001,-1.709059,-1.3165021000000001
-13.390023000000001,-1.709059,-1.3165021000000001
-13.390023000000001,-1.709059,-1.3165021000000001
-10.498505999999999,-0.110107444,-0.56968635
-10.498505999999999,-0.110107444,-0.56968635
-10.498505999999999,-0.110107444,-0.56968635
-10.498505999999999,-0.110107444,-0.56968635
-7.8367777,0.359046,-0.751603
-7.8367777,0.359046,-0.751603
-7.8367777,0.359046,-0.751603
-7.8367777,0.359046,-0.751603
-6.5154879999999995,0.09095833,-1.4984187
-6.5154879999999995,0.09095833,-1.4984187
-6.5154879999999995,0.09095833,-1.4984187
-6.5154879999999995,0.09095833,-1.4984187
-6.898471000000001,-0.47394073,-1.3356511999999998
-6.898471000000001,-0.47394073,-1.3356511999999998
-6.898471000000001,-0.47394073,-1.3356511999999998
-6.898471000000001,-0.47394073,-1.3356511999999998
-8.870830999999999,-0.512239,-1.14416
-8.870830999999999,-0.512239,-1.14416
-8.870830999999999,-0.512239,-1.14416
-11.838944,-0.54096264,-1.14416
-11.838944,-0.54096264,-1.14416
-11.838944,-0.54096264,-1.14416
-11.838944,-0.54096264,-1.14416
-13.121935,-2.666515,0.45479164
-13.121935,-2.666515,0.45479164
-13.121935,-2.666515,0.45479164
-13.121935,-2.666515,0.45479164
-13.284702,-0.44521707,-1.0101161
-13.284702,-0.44521707,-1.0101161
-13.284702,-0.44521707,-1.0101161
-13.284702,-0.44521707,-1.0101161
-12.480439,-0.5218136,-0.8952214
-12.480439,-0.5218136,-0.8952214
-12.480439,-0.5218136,-0.8952214
-12.480439,-0.5218136,-0.8952214
-7.482519,-3.039923,0.50266445
-7.482519,-3.039923,0.50266445
-7.482519,-3.039923,0.50266445
-7.482519,-3.039923,0.50266445
-7.2623043,-2.666515,0.5313880999999999
-7.2623043,-2.666515,0.5313880999999999
-7.2623043,-2.666515,0.5313880999999999
-7.2623043,-2.666515,0.5313880999999999
-8.602742,-2.3314054,1.0005416
-8.602742,-2.3314054,1.0005416
-8.602742,-2.3314054,1.0005416
-11.178299,-3.7005677,1.1154363
-11.178299,-3.7005677,1.1154363
-11.178299,-3.7005677,1.1154363
-11.178299,-3.7005677,1.1154363
-11.178299,-3.7005677,1.1154363
-13.533641000000001,-4.3803616,0.8856468000000001
-13.533641000000001,-4.3803616,0.8856468000000001
-13.533641000000001,-4.3803616,0.8856468000000001
-15.410255,-4.504830999999999,1.3260766000000002
-15.410255,-4.504830999999999,1.3260766000000002
-15.410255,-4.504830999999999,1.3260766000000002
-15.410255,-4.504830999999999,1.3260766000000002
-12.872996,-3.3367343000000003,-0.42606795
-12.872996,-3.3367343000000003,-0.42606795
-12.872996,-3.3367343000000003,-0.42606795
-12.872996,-3.3367343000000003,-0.42606795
-14.280457,-2.4367256,-1.1824582000000001
-14.280457,-2.4367256,-1.1824582000000001
-14.280457,-2.4367256,-1.1824582000000001
-14.280457,-2.4367256,-1.1824582000000001
-13.99322,-1.1824582000000001,-0.9622433000000001
-13.99322,-1.1824582000000001,-0.9622433000000001
-13.99322,-1.1824582000000001,-0.9622433000000001
-13.99322,-1.1824582000000001,-0.9622433000000001
-10.594251,-0.45479164,-1.4313968000000001
-10.594251,-0.45479164,-1.4313968000000001
-10.594251,-0.45479164,-1.4313968000000001
-10.594251,-0.45479164,-1.4313968000000001
-7.980396300000001,0.4164934,-1.7377827000000001
-7.980396300000001,0.4164934,-1.7377827000000001
-7.980396300000001,0.4164934,-1.7377827000000001
-7.980396300000001,0.4164934,-1.7377827000000001
-6.1420803,-0.09095833,-1.3452256999999999
-6.1420803,-0.09095833,-1.3452256999999999
-6.1420803,-0.09095833,-1.3452256999999999
-6.7165539999999995,-0.2920241,-1.3643749
-6.7165539999999995,-0.2920241,-1.3643749
-6.7165539999999995,-0.2920241,-1.3643749
-6.7165539999999995,-0.2920241,-1.3643749
-9.866585,-0.2920241,-1.0867126
-9.866585,-0.2920241,-1.0867126
-9.866585,-0.2920241,-1.0867126
-9.866585,-0.2920241,-1.0867126
-11.666602000000001,-1.3930986,-0.2441513
-11.666602000000001,-1.3930986,-0.2441513
-11.666602000000001,-1.3930986,-0.2441513
-11.666602000000001,-1.3930986,-0.2441513
-12.3463955,-2.5899186000000003,0.2154276
-12.3463955,-2.5899186000000003,0.2154276
-12.3463955,-2.5899186000000003,0.2154276
-12.3463955,-2.5899186000000003,0.2154276
-14.443225,-1.1728836,-1.3452256999999999
-14.443225,-1.1728836,-1.3452256999999999
-14.443225,-1.1728836,-1.3452256999999999
-14.443225,-1.1728836,-1.3452256999999999
-11.637878,-1.5845897,0.45479164
-11.637878,-1.5845897,0.45479164
-11.637878,-1.5845897,0.45479164
-11.637878,-1.5845897,0.45479164
-9.024023,-2.5037475,0.44521707
-9.024023,-2.5037475,0.44521707
-9.024023,-2.5037475,0.44521707
-8.937852000000001,-2.9441773999999996,0.2920241
-8.937852000000001,-2.9441773999999996,0.2920241
-8.937852000000001,-2.9441773999999996,0.2920241
-8.937852000000001,-2.9441773999999996,0.2920241
-10.058076,-3.2984362000000003,1.0579889
-10.058076,-3.2984362000000003,1.0579889
-10.058076,-3.2984362000000003,1.0579889
-10.058076,-3.2984362000000003,1.0579889
-12.394267999999999,-5.730374299999999,0.8952214
-12.394267999999999,-5.730374299999999,0.8952214
-12.394267999999999,-5.730374299999999,0.8952214
-12.394267999999999,-5.730374299999999,0.8952214
-14.404926000000001,-5.38569,1.5271424
-14.404926000000001,-5.38569,1.5271424
-14.404926000000001,-5.38569,1.5271424
-14.404926000000001,-5.38569,1.5271424
-13.600663,-4.7537694,0.28244954
-13.600663,-4.7537694,0.28244954
-13.600663,-4.7537694,0.28244954
-13.600663,-4.7537694,0.28244954
-15.812386499999999,-1.0484143,-1.9579976000000003
-15.812386499999999,-1.0484143,-1.9579976000000003
-15.812386499999999,-1.0484143,-1.9579976000000003
-15.391106,-0.8090504,-1.1058618
-15.391106,-0.8090504,-1.1058618
-15.391106,-0.8090504,-1.1058618
-15.391106,-0.8090504,-1.1058618
-15.391106,-0.8090504,-1.1058618
-11.695326,-0.78032666,-1.1250108
-11.695326,-0.78032666,-1.1250108
-11.695326,-0.78032666,-1.1250108
-8.353804,0.05266008,-1.6994845
-8.353804,0.05266008,-1.6994845
-8.353804,0.05266008,-1.6994845
-8.353804,0.05266008,-1.6994845
-6.7165539999999995,0.28244954,-1.6803354
-6.7165539999999995,0.28244954,-1.6803354
-6.7165539999999995,0.28244954,-1.6803354
-6.7165539999999995,0.28244954,-1.6803354
-7.137835000000001,0.10053288,-1.4218222
-7.137835000000001,0.10053288,-1.4218222
-7.137835000000001,0.10053288,-1.4218222
-7.137835000000001,0.10053288,-1.4218222
-9.177217,0.5218136,-1.5750152
-9.177217,0.5218136,-1.5750152
-9.177217,0.5218136,-1.5750152
-9.177217,0.5218136,-1.5750152
-11.963413000000001,-0.91437054,-1.7377827000000001
-11.963413000000001,-0.91437054,-1.7377827000000001
-11.963413000000001,-0.91437054,-1.7377827000000001
-11.963413000000001,-0.91437054,-1.7377827000000001
-13.457045,-3.5282254,0.34947145
-13.457045,-3.5282254,0.34947145
-13.457045,-3.5282254,0.34947145
-13.457045,-3.5282254,0.34947145
-15.400681,-0.0718092,-2.168638
-15.400681,-0.0718092,-2.168638
-15.400681,-0.0718092,-2.168638
-12.978316,-1.3739493999999999,0.2154276
-12.978316,-1.3739493999999999,0.2154276
-12.978316,-1.3739493999999999,0.2154276
-12.978316,-1.3739493999999999,0.2154276
-12.978316,-1.3739493999999999,0.2154276
-8.564445,-2.360129,1.2973529
-8.564445,-2.360129,1.2973529
-8.564445,-2.360129,1.2973529
-8.487848,-3.0303482999999996,0.12925656
-8.487848,-3.0303482999999996,0.12925656
-8.487848,-3.0303482999999996,0.12925656
-8.487848,-3.0303482999999996,0.12925656
-10.709146,-3.6622693999999996,0.64628285
-10.709146,-3.6622693999999996,0.64628285
-10.709146,-3.6622693999999996,0.64628285
-10.709146,-3.6622693999999996,0.64628285
-12.537887,-5.6633525,1.2494801000000002
-12.537887,-5.6633525,1.2494801000000002
-12.537887,-5.6633525,1.2494801000000002
-12.537887,-5.6633525,1.2494801000000002
-14.452798999999999,-5.519734,1.1728836
-14.452798999999999,-5.519734,1.1728836
-14.452798999999999,-5.519734,1.1728836
-14.452798999999999,-5.519734,1.1728836
-13.667685500000001,-3.7484405,0.5888355
-13.667685500000001,-3.7484405,0.5888355
-13.667685500000001,-3.7484405,0.5888355
-13.667685500000001,-3.7484405,0.5888355
-14.20386,-2.6856642,-1.2686293
-14.20386,-2.6856642,-1.2686293
-14.20386,-2.6856642,-1.2686293
-16.19537,-2.2931072999999995,-1.383524
-16.19537,-2.2931072999999995,-1.383524
-16.19537,-2.2931072999999995,-1.383524
-16.19537,-2.2931072999999995,-1.383524
-13.390023000000001,-1.0579889,-1.8048046999999998
-13.390023000000001,-1.0579889,-1.8048046999999998
-13.390023000000001,-1.0579889,-1.8048046999999998
-13.390023000000001,-1.0579889,-1.8048046999999998
-10.019777000000001,0.33032233,-1.7569318999999999
-10.019777000000001,0.33032233,-1.7569318999999999
-10.019777000000001,0.33032233,-1.7569318999999999
-10.019777000000001,0.33032233,-1.7569318999999999
-6.8410234,0.7324539000000001,-1.383524
-6.8410234,0.7324539000000001,-1.383524
-6.8410234,0.7324539000000001,-1.383524
-6.8410234,0.7324539000000001,-1.383524
-5.5963306,-0.12925656,-1.5175678999999997
-5.5963306,-0.12925656,-1.5175678999999997
-5.5963306,-0.12925656,-1.5175678999999997
-5.5963306,-0.12925656,-1.5175678999999997
-6.8601727,0.110107444,-1.8431028999999999
-6.8601727,0.110107444,-1.8431028999999999
-6.8601727,0.110107444,-1.8431028999999999
-6.8601727,0.110107444,-1.8431028999999999
-10.967659,-0.6845810999999999,-1.6899098999999997
-10.967659,-0.6845810999999999,-1.6899098999999997
-10.967659,-0.6845810999999999,-1.6899098999999997
-12.997466000000001,-3.4707782,0.19627848
-12.997466000000001,-3.4707782,0.19627848
-12.997466000000001,-3.4707782,0.19627848
-12.997466000000001,-3.4707782,0.19627848
-12.997466000000001,-3.4707782,0.19627848
-15.371957,-1.3260766000000002,-1.3165021000000001
-15.371957,-1.3260766000000002,-1.3165021000000001
-15.371957,-1.3260766000000002,-1.3165021000000001
-13.7730055,-0.99096704,-0.3111732
-13.7730055,-0.99096704,-0.3111732
-13.7730055,-0.99096704,-0.3111732
-13.7730055,-0.99096704,-0.3111732
-9.579348,-2.5707695,0.6750065
-9.579348,-2.5707695,0.6750065
-9.579348,-2.5707695,0.6750065
-9.579348,-2.5707695,0.6750065
-9.320834,-3.0494976,-0.37819514
-9.320834,-3.0494976,-0.37819514
-9.320834,-3.0494976,-0.37819514
-9.320834,-3.0494976,-0.37819514
-11.130426,-3.2697124,0.42606795
-11.130426,-3.2697124,0.42606795
-11.130426,-3.2697124,0.42606795
-11.130426,-3.2697124,0.42606795
-12.978316,-5.2133484,0.91437054
-12.978316,-5.2133484,0.91437054
-12.978316,-5.2133484,0.91437054
-14.299605999999999,-5.222923000000001,0.8473485999999999
-14.299605999999999,-5.222923000000001,0.8473485999999999
-14.299605999999999,-5.222923000000001,0.8473485999999999
-14.299605999999999,-5.222923000000001,0.8473485999999999
-14.299605999999999,-5.222923000000001,0.8473485999999999
-11.896391,-4.169721,0.3877697
-11.896391,-4.169721,0.3877697
-11.896391,-4.169721,0.3877697
-13.093211,-3.9112080000000002,-1.1537346000000002
-13.093211,-3.9112080000000002,-1.1537346000000002
-13.093211,-3.9112080000000002,-1.1537346000000002
-13.093211,-3.9112080000000002,-1.1537346000000002
-16.367712,-2.015445,-1.8335283
-16.367712,-2.015445,-1.8335283
-16.367712,-2.015445,-1.8335283
-16.367712,-2.015445,-1.8335283
-13.169807,-0.34947145,-1.3930986
-13.169807,-0.34947145,-1.3930986
-13.169807,-0.34947145,-1.3930986
-13.169807,-0.34947145,-1.3930986
-9.64637,0.19627848,-1.6037389
-9.64637,0.19627848,-1.6037389
-9.64637,0.19627848,-1.6037389
-9.64637,0.19627848,-1.6037389
-7.128260000000001,0.09095833,-1.6611862000000002
-7.128260000000001,0.09095833,-1.6611862000000002
-7.128260000000001,0.09095833,-1.6611862000000002
-7.128260000000001,0.09095833,-1.6611862000000002
-7.8367777,-0.39734426,-1.7665064
-7.8367777,-0.39734426,-1.7665064
-7.8367777,-0.39734426,-1.7665064
-7.8367777,-0.39734426,-1.7665064
-8.880403999999999,0.45479164,-1.4888442
-8.880403999999999,0.45479164,-1.4888442
-8.880403999999999,0.45479164,-1.4888442
-9.885734,-0.6271336999999999,-1.1728836
-9.885734,-0.6271336999999999,-1.1728836
-9.885734,-0.6271336999999999,-1.1728836
-9.885734,-0.6271336999999999,-1.1728836
-11.398514,-1.7665064,-0.28244954
-11.398514,-1.7665064,-0.28244954
-11.398514,-1.7665064,-0.28244954
-11.398514,-1.7665064,-0.28244954
-14.567694,-1.4313968000000001,-0.7228793
-14.567694,-1.4313968000000001,-0.7228793
-14.567694,-1.4313968000000001,-0.7228793
-14.567694,-1.4313968000000001,-0.7228793
-11.896391,-1.8143792,-0.49308985
-11.896391,-1.8143792,-0.49308985
-11.896391,-1.8143792,-0.49308985
-11.896391,-1.8143792,-0.49308985
-9.655944,-2.1782124,0.8952214
-9.655944,-2.1782124,0.8952214
-9.655944,-2.1782124,0.8952214
-9.655944,-2.1782124,0.8952214
-10.19212,-2.9250283,-0.28244954
-10.19212,-2.9250283,-0.28244954
-10.19212,-2.9250283,-0.28244954
-12.90172,-4.284616000000001,0.34947145
-12.90172,-4.284616000000001,0.34947145
-12.90172,-4.284616000000001,0.34947145
-12.90172,-4.284616000000001,0.34947145
-12.90172,-4.284616000000001,0.34947145
-14.088965,-5.806971,0.5888355
-14.088965,-5.806971,0.5888355
-14.088965,-5.806971,0.5888355
-14.385777,-4.96441,0.7994758000000001
-14.385777,-4.96441,0.7994758000000001
-14.385777,-4.96441,0.7994758000000001
-14.385777,-4.96441,0.7994758000000001
-12.193203,-3.7101421,0.03351096
-12.193203,-3.7101421,0.03351096
-12.193203,-3.7101421,0.03351096
-12.193203,-3.7101421,0.03351096
-14.031518,-3.9686553,-1.1250108
-14.031518,-3.9686553,-1.1250108
-14.031518,-3.9686553,-1.1250108
-14.031518,-3.9686553,-1.1250108
-14.060242,-1.7569318999999999,-1.4313968000000001
-14.060242,-1.7569318999999999,-1.4313968000000001
-14.060242,-1.7569318999999999,-1.4313968000000001
-14.060242,-1.7569318999999999,-1.4313968000000001
-11.590005999999999,-0.12925656,-1.2111819
-11.590005999999999,-0.12925656,-1.2111819
-11.590005999999999,-0.12925656,-1.2111819
-11.590005999999999,-0.12925656,-1.2111819
-9.368708,0.014361841,-1.6133133999999998
-9.368708,0.014361841,-1.6133133999999998
-9.368708,0.014361841,-1.6133133999999998
-9.368708,0.014361841,-1.6133133999999998
-7.741032000000001,-0.2154276,-1.8143792
-7.741032000000001,-0.2154276,-1.8143792
-7.741032000000001,-0.2154276,-1.8143792
-8.497422,-0.17712937,-2.015445
-8.497422,-0.17712937,-2.015445
-8.497422,-0.17712937,-2.015445
-8.497422,-0.17712937,-2.015445
-8.497422,-0.17712937,-2.015445
-9.435728999999998,0.14840569,-1.9388485
-9.435728999999998,0.14840569,-1.9388485
-9.435728999999998,0.14840569,-1.9388485
-10.852764,-3.0494976,-0.32074776
-10.852764,-3.0494976,-0.32074776
-10.852764,-3.0494976,-0.32074776
-10.852764,-3.0494976,-0.32074776
-12.212352000000001,-1.3069274,-0.751603
-12.212352000000001,-1.3069274,-0.751603
-12.212352000000001,-1.3069274,-0.751603
-12.212352000000001,-1.3069274,-0.751603
-13.083637,-0.5218136,-1.4888442
-13.083637,-0.5218136,-1.4888442
-13.083637,-0.5218136,-1.4888442
-13.083637,-0.5218136,-1.4888442
-9.301685,-2.6090677,0.64628285
-9.301685,-2.6090677,0.64628285
-9.301685,-2.6090677,0.64628285
-9.301685,-2.6090677,0.64628285
-10.0868,-1.9771467,0.09095833
-10.0868,-1.9771467,0.09095833
-10.0868,-1.9771467,0.09095833
-11.484685,-3.193116,0.2154276
-11.484685,-3.193116,0.2154276
-11.484685,-3.193116,0.2154276
-11.484685,-3.193116,0.2154276
-13.227255,-4.581427,1.4026731000000001
-13.227255,-4.581427,1.4026731000000001
-13.227255,-4.581427,1.4026731000000001
-13.227255,-4.581427,1.4026731000000001
-13.638962,-5.8261199999999995,1.8526775000000002
-13.638962,-5.8261199999999995,1.8526775000000002
-13.638962,-5.8261199999999995,1.8526775000000002
-13.638962,-5.8261199999999995,1.8526775000000002
-13.045339,-5.17505,1.9675721999999998
-13.045339,-5.17505,1.9675721999999998
-13.045339,-5.17505,1.9675721999999998
-13.045339,-5.17505,1.9675721999999998
-12.011286,-3.9878044000000004,-0.3111732
-12.011286,-3.9878044000000004,-0.3111732
-12.011286,-3.9878044000000004,-0.3111732
-12.011286,-3.9878044000000004,-0.3111732
-16.118773,-2.867581,-1.3739493999999999
-16.118773,-2.867581,-1.3739493999999999
-16.118773,-2.867581,-1.3739493999999999
-16.118773,-2.867581,-1.3739493999999999
-15.525148999999999,-1.1154363,-1.7282081999999999
-15.525148999999999,-1.1154363,-1.7282081999999999
-15.525148999999999,-1.1154363,-1.7282081999999999
-15.525148999999999,-1.1154363,-1.7282081999999999
-11.695326,-0.20585304,-1.7952299999999999
-11.695326,-0.20585304,-1.7952299999999999
-11.695326,-0.20585304,-1.7952299999999999
-8.641041,0.4164934,-2.101616
-8.641041,0.4164934,-2.101616
-8.641041,0.4164934,-2.101616
-8.641041,0.4164934,-2.101616
-5.941015,-0.22500217,-1.8335283
-5.941015,-0.22500217,-1.8335283
-5.941015,-0.22500217,-1.8335283
-5.941015,-0.22500217,-1.8335283
-8.095291,0.19627848,-1.8909756999999998
-8.095291,0.19627848,-1.8909756999999998
-8.095291,0.19627848,-1.8909756999999998
-8.095291,0.19627848,-1.8909756999999998
-9.5889225,0.2441513,-1.6994845
-9.5889225,0.2441513,-1.6994845
-9.5889225,0.2441513,-1.6994845
-9.5889225,0.2441513,-1.6994845
-11.475111,-3.2888615,0.22500217
-11.475111,-3.2888615,0.22500217
-11.475111,-3.2888615,0.22500217
-11.475111,-3.2888615,0.22500217
-15.601747,-1.4122477,-1.4984187
-15.601747,-1.4122477,-1.4984187
-15.601747,-1.4122477,-1.4984187
-15.601747,-1.4122477,-1.4984187
-14.500670999999999,-0.6079846,-0.359046
-14.500670999999999,-0.6079846,-0.359046
-14.500670999999999,-0.6079846,-0.359046
-8.861256,-2.867581,0.93351966
-8.861256,-2.867581,0.93351966
-8.861256,-2.867581,0.93351966
-8.861256,-2.867581,0.93351966
-8.861256,-2.867581,0.93351966
-9.62722,-4.0931244,-0.50266445
-9.62722,-4.0931244,-0.50266445
-9.62722,-4.0931244,-0.50266445
-11.245321,-4.294190400000001,-0.0718092
-11.245321,-4.294190400000001,-0.0718092
-11.245321,-4.294190400000001,-0.0718092
-11.245321,-4.294190400000001,-0.0718092
-12.777251,-5.797396,1.0292653
-12.777251,-5.797396,1.0292653
-12.777251,-5.797396,1.0292653
-12.777251,-5.797396,1.0292653
-13.600663,-6.831449,0.8760723
-13.600663,-6.831449,0.8760723
-13.600663,-6.831449,0.8760723
-13.600663,-6.831449,0.8760723
-12.5474615,-5.2516465,1.3930986
-12.5474615,-5.2516465,1.3930986
-12.5474615,-5.2516465,1.3930986
-12.5474615,-5.2516465,1.3930986
-13.974070999999999,-3.8346114,-1.0005416
-13.974070999999999,-3.8346114,-1.0005416
-13.974070999999999,-3.8346114,-1.0005416
-13.974070999999999,-3.8346114,-1.0005416
-15.879408999999999,-2.5803439999999997,-1.3739493999999999
-15.879408999999999,-2.5803439999999997,-1.3739493999999999
-15.879408999999999,-2.5803439999999997,-1.3739493999999999
-15.879408999999999,-2.5803439999999997,-1.3739493999999999
-13.074062,-0.77075213,-1.5271424
-13.074062,-0.77075213,-1.5271424
-13.074062,-0.77075213,-1.5271424
-10.642124,-0.2154276,-1.9101248
-10.642124,-0.2154276,-1.9101248
-10.642124,-0.2154276,-1.9101248
-10.642124,-0.2154276,-1.9101248
-8.124015,0.48351530000000004,-1.7665064
-8.124015,0.48351530000000004,-1.7665064
-8.124015,0.48351530000000004,-1.7665064
-8.124015,0.48351530000000004,-1.7665064
-6.0750585,-0.3111732,-1.5654407
-6.0750585,-0.3111732,-1.5654407
-6.0750585,-0.3111732,-1.5654407
-6.0750585,-0.3111732,-1.5654407
-7.4154973,-0.062234644000000006,-1.8909756999999998
-7.4154973,-0.062234644000000006,-1.8909756999999998
-7.4154973,-0.062234644000000006,-1.8909756999999998
-7.4154973,-0.062234644000000006,-1.8909756999999998
-9.225089,-0.8281995000000001,-0.78990126
-9.225089,-0.8281995000000001,-0.78990126
-9.225089,-0.8281995000000001,-0.78990126
-9.225089,-0.8281995000000001,-0.78990126
-12.011286,-1.3643749,-0.6079846
-12.011286,-1.3643749,-0.6079846
-12.011286,-1.3643749,-0.6079846
-16.319838,-2.1973617,-0.85692316
-16.319838,-2.1973617,-0.85692316
-16.319838,-2.1973617,-0.85692316
-16.319838,-2.1973617,-0.85692316
-13.169807,-2.0537431,-0.50266445
-13.169807,-2.0537431,-0.50266445
-13.169807,-2.0537431,-0.50266445
-13.169807,-2.0537431,-0.50266445
-10.029352000000001,-1.4313968000000001,0.48351530000000004
-10.029352000000001,-1.4313968000000001,0.48351530000000004
-10.029352000000001,-1.4313968000000001,0.48351530000000004
-10.029352000000001,-1.4313968000000001,0.48351530000000004
-10.575102000000001,-2.5037475,-0.00478728
-10.575102000000001,-2.5037475,-0.00478728
-10.575102000000001,-2.5037475,-0.00478728
-10.575102000000001,-2.5037475,-0.00478728
-11.59958,-4.1122737,0.64628285
-11.59958,-4.1122737,0.64628285
-11.59958,-4.1122737,0.64628285
-11.59958,-4.1122737,0.64628285
-12.633633,-5.021857,1.2973529
-12.633633,-5.021857,1.2973529
-12.633633,-5.021857,1.2973529
-12.633633,-5.021857,1.2973529
-13.792154,-5.950589,1.6037389
-13.792154,-5.950589,1.6037389
-13.792154,-5.950589,1.6037389
-13.150659,-4.456958,0.54096264
-13.150659,-4.456958,0.54096264
-13.150659,-4.456958,0.54096264
-13.150659,-4.456958,0.54096264
-13.150659,-4.456958,0.54096264
-13.983645000000001,-2.88673,-0.8473485999999999
-13.983645000000001,-2.88673,-0.8473485999999999
-13.983645000000001,-2.88673,-0.8473485999999999
-17.420912,-2.321831,-1.9005502
-17.420912,-2.321831,-1.9005502
-17.420912,-2.321831,-1.9005502
-17.420912,-2.321831,-1.9005502
-14.318755,-0.8952214,-1.9771467
-14.318755,-0.8952214,-1.9771467
-14.318755,-0.8952214,-1.9771467
-14.318755,-0.8952214,-1.9771467
-10.804892,0.2441513,-1.7665064
-10.804892,0.2441513,-1.7665064
-10.804892,0.2441513,-1.7665064
-10.804892,0.2441513,-1.7665064
-8.11444,0.40691882,-1.8239537000000001
-8.11444,0.40691882,-1.8239537000000001
-8.11444,0.40691882,-1.8239537000000001
-8.11444,0.40691882,-1.8239537000000001
-7.1186857,0.54096264,-1.9292740000000002
-7.1186857,0.54096264,-1.9292740000000002
-7.1186857,0.54096264,-1.9292740000000002
-7.1186857,0.54096264,-1.9292740000000002
-7.2240057,1.9196993000000002,-1.8814011999999998
-7.2240057,1.9196993000000002,-1.8814011999999998
-7.2240057,1.9196993000000002,-1.8814011999999998
-7.2240057,1.9196993000000002,-1.8814011999999998
-9.129342999999999,-0.22500217,-1.2016073
-9.129342999999999,-0.22500217,-1.2016073
-9.129342999999999,-0.22500217,-1.2016073
-11.934689500000001,-1.9962958,-0.6271336999999999
-11.934689500000001,-1.9962958,-0.6271336999999999
-11.934689500000001,-1.9962958,-0.6271336999999999
-11.934689500000001,-1.9962958,-0.6271336999999999
-15.860259,-0.98139244,-1.2877783999999999
-15.860259,-0.98139244,-1.2877783999999999
-15.860259,-0.98139244,-1.2877783999999999
-15.860259,-0.98139244,-1.2877783999999999
-15.180466000000001,-1.2686293,-2.034594
-15.180466000000001,-1.2686293,-2.034594
-15.180466000000001,-1.2686293,-2.034594
-15.180466000000001,-1.2686293,-2.034594
-11.800646,-2.1111906000000005,1.0292653
-11.800646,-2.1111906000000005,1.0292653
-11.800646,-2.1111906000000005,1.0292653
-11.800646,-2.1111906000000005,1.0292653
-11.283619999999999,-3.4707782,0.76117754
-11.283619999999999,-3.4707782,0.76117754
-11.283619999999999,-3.4707782,0.76117754
-11.283619999999999,-3.4707782,0.76117754
-11.647452000000001,-4.4473834000000005,1.6994845
-11.647452000000001,-4.4473834000000005,1.6994845
-11.647452000000001,-4.4473834000000005,1.6994845
-11.647452000000001,-4.4473834000000005,1.6994845
-12.049584,-4.7058964,3.0686467
-12.049584,-4.7058964,3.0686467
-12.049584,-4.7058964,3.0686467
-12.049584,-4.7058964,3.0686467
-12.528313,-5.481436,2.5037475
-12.528313,-5.481436,2.5037475
-12.528313,-5.481436,2.5037475
-13.725132,-4.6293,0.6079846
-13.725132,-4.6293,0.6079846
-13.725132,-4.6293,0.6079846
-13.725132,-4.6293,0.6079846
-17.842194,-1.5175678999999997,-1.2303311000000001
-17.842194,-1.5175678999999997,-1.2303311000000001
-17.842194,-1.5175678999999997,-1.2303311000000001
-17.842194,-1.5175678999999997,-1.2303311000000001
-16.683672,-0.7228793,-1.5654407
-16.683672,-0.7228793,-1.5654407
-16.683672,-0.7228793,-1.5654407
-16.683672,-0.7228793,-1.5654407
-12.834699,0.081383765,-1.8718264999999998
-12.834699,0.081383765,-1.8718264999999998
-12.834699,0.081383765,-1.8718264999999998
-12.834699,0.081383765,-1.8718264999999998
-8.631466,0.8281995000000001,-1.5367169
-8.631466,0.8281995000000001,-1.5367169
-8.631466,0.8281995000000001,-1.5367169
-8.631466,0.8281995000000001,-1.5367169
-6.458041000000001,0.8473485999999999,-1.6516117
-6.458041000000001,0.8473485999999999,-1.6516117
-6.458041000000001,0.8473485999999999,-1.6516117
-6.458041000000001,0.8473485999999999,-1.6516117
-6.323997,1.0579889,-1.5845897
-6.323997,1.0579889,-1.5845897
-6.323997,1.0579889,-1.5845897
-7.559115400000001,1.0196906,-1.5558661
-7.559115400000001,1.0196906,-1.5558661
-7.559115400000001,1.0196906,-1.5558661
-7.559115400000001,1.0196906,-1.5558661
-7.559115400000001,1.0196906,-1.5558661
-11.015532,0.023936402000000002,-1.0388398
-11.015532,0.023936402000000002,-1.0388398
-11.015532,0.023936402000000002,-1.0388398
-12.863422,-1.9292740000000002,0.2154276
-12.863422,-1.9292740000000002,0.2154276
-12.863422,-1.9292740000000002,0.2154276
-12.863422,-1.9292740000000002,0.2154276
-16.808142,-1.1250108,-1.6611862000000002
-16.808142,-1.1250108,-1.6611862000000002
-16.808142,-1.1250108,-1.6611862000000002
-16.808142,-1.1250108,-1.6611862000000002
-13.859176999999999,-1.8143792,-0.3877697
-13.859176999999999,-1.8143792,-0.3877697
-13.859176999999999,-1.8143792,-0.3877697
-13.859176999999999,-1.8143792,-0.3877697
-9.196365,-1.9101248,1.3930986
-9.196365,-1.9101248,1.3930986
-9.196365,-1.9101248,1.3930986
-9.196365,-1.9101248,1.3930986
-9.598496,-3.1069447999999995,0.39734426
-9.598496,-3.1069447999999995,0.39734426
-9.598496,-3.1069447999999995,0.39734426
-10.268716,-3.7101421,1.3356511999999998
-10.268716,-3.7101421,1.3356511999999998
-10.268716,-3.7101421,1.3356511999999998
-10.268716,-3.7101421,1.3356511999999998
-10.268716,-3.7101421,1.3356511999999998
-12.001712,-4.581427,1.9101248
-12.001712,-4.581427,1.9101248
-12.001712,-4.581427,1.9101248
-11.561282,-5.021857,2.2356597999999996
-11.561282,-5.021857,2.2356597999999996
-11.561282,-5.021857,2.2356597999999996
-11.561282,-5.021857,2.2356597999999996
-13.351725,-5.28037,1.2782038
-13.351725,-5.28037,1.2782038
-13.351725,-5.28037,1.2782038
-13.351725,-5.28037,1.2782038
-18.292198000000003,-2.8580062,-1.8239537000000001
-18.292198000000003,-2.8580062,-1.8239537000000001
-18.292198000000003,-2.8580062,-1.8239537000000001
-18.292198000000003,-2.8580062,-1.8239537000000001
-18.071983,-0.8664976999999999,-1.5941644
-18.071983,-0.8664976999999999,-1.5941644
-18.071983,-0.8664976999999999,-1.5941644
-18.071983,-0.8664976999999999,-1.5941644
-13.801729000000002,-0.8473485999999999,-1.4984187
-13.801729000000002,-0.8473485999999999,-1.4984187
-13.801729000000002,-0.8473485999999999,-1.4984187
-13.801729000000002,-0.8473485999999999,-1.4984187
-9.742115,-0.14840569,-2.2165107999999996
-9.742115,-0.14840569,-2.2165107999999996
-9.742115,-0.14840569,-2.2165107999999996
-7.2335806,0.70373017,-1.8431028999999999
-7.2335806,0.70373017,-1.8431028999999999
-7.2335806,0.70373017,-1.8431028999999999
-7.2335806,0.70373017,-1.8431028999999999
-5.222923000000001,1.4026731000000001,-1.0675635
-5.222923000000001,1.4026731000000001,-1.0675635
-5.222923000000001,1.4026731000000001,-1.0675635
-5.222923000000001,1.4026731000000001,-1.0675635
-6.1420803,0.59841,-1.2207563999999997
-6.1420803,0.59841,-1.2207563999999997
-6.1420803,0.59841,-1.2207563999999997
-6.1420803,0.59841,-1.2207563999999997
-9.904882,-0.27287498,-0.751603
-9.904882,-0.27287498,-0.751603
-9.904882,-0.27287498,-0.751603
-9.904882,-0.27287498,-0.751603
-13.3612995,-2.168638,0.77075213
-13.3612995,-2.168638,0.77075213
-13.3612995,-2.168638,0.77075213
-13.3612995,-2.168638,0.77075213
-17.976236,-1.3069274,-1.4888442
-17.976236,-1.3069274,-1.4888442
-17.976236,-1.3069274,-1.4888442
-17.976236,-1.3069274,-1.4888442
-14.09854,-1.5271424,-0.14840569
-14.09854,-1.5271424,-0.14840569
-14.09854,-1.5271424,-0.14840569
-10.689997,-2.8388572,0.40691882
-10.689997,-2.8388572,0.40691882
-10.689997,-2.8388572,0.40691882
-10.689997,-2.8388572,0.40691882
-11.025106,-3.4037561000000003,-0.9526688
-11.025106,-3.4037561000000003,-0.9526688
-11.025106,-3.4037561000000003,-0.9526688
-11.025106,-3.4037561000000003,-0.9526688
-12.729378,-4.619725,0.16755481
-12.729378,-4.619725,0.16755481
-12.729378,-4.619725,0.16755481
-12.729378,-4.619725,0.16755481
-12.336822,-6.3622955999999995,0.8281995000000001
-12.336822,-6.3622955999999995,0.8281995000000001
-12.336822,-6.3622955999999995,0.8281995000000001
-12.336822,-6.3622955999999995,0.8281995000000001
-11.561282,-5.1271772,0.8473485999999999
-11.561282,-5.1271772,0.8473485999999999
-11.561282,-5.1271772,0.8473485999999999
-11.15915,-5.3569665,-0.3398969
-11.15915,-5.3569665,-0.3398969
-11.15915,-5.3569665,-0.3398969
-11.15915,-5.3569665,-0.3398969
-16.559202,-3.7484405,-1.8431028999999999
-16.559202,-3.7484405,-1.8431028999999999
-16.559202,-3.7484405,-1.8431028999999999
-16.559202,-3.7484405,-1.8431028999999999
-18.502838,-1.6037389,-1.6611862000000002
-18.502838,-1.6037389,-1.6611862000000002
-18.502838,-1.6037389,-1.6611862000000002
-18.502838,-1.6037389,-1.6611862000000002
-14.740035999999998,-0.40691882,-1.6420371999999999
-14.740035999999998,-0.40691882,-1.6420371999999999
-14.740035999999998,-0.40691882,-1.6420371999999999
-14.740035999999998,-0.40691882,-1.6420371999999999
-10.670848,0.48351530000000004,-2.1111906000000005
-10.670848,0.48351530000000004,-2.1111906000000005
-10.670848,0.48351530000000004,-2.1111906000000005
-10.670848,0.48351530000000004,-2.1111906000000005
-6.47719,0.5888355,-1.0005416
-6.47719,0.5888355,-1.0005416
-6.47719,0.5888355,-1.0005416
-6.47719,0.5888355,-1.0005416
-4.8782387,0.05266008,-0.92394507
-4.8782387,0.05266008,-0.92394507
-4.8782387,0.05266008,-0.92394507
-7.128260000000001,-0.34947145,-1.4313968000000001
-7.128260000000001,-0.34947145,-1.4313968000000001
-7.128260000000001,-0.34947145,-1.4313968000000001
-7.128260000000001,-0.34947145,-1.4313968000000001
-7.128260000000001,-0.34947145,-1.4313968000000001
-10.134672,-1.5558661,-1.0867126
-10.134672,-1.5558661,-1.0867126
-10.134672,-1.5558661,-1.0867126
-12.940019,-2.5516202,-0.39734426
-12.940019,-2.5516202,-0.39734426
-12.940019,-2.5516202,-0.39734426
-12.940019,-2.5516202,-0.39734426
-17.478360000000002,-2.4750240000000003,-0.91437054
-17.478360000000002,-2.4750240000000003,-0.91437054
-17.478360000000002,-2.4750240000000003,-0.91437054
-17.478360000000002,-2.4750240000000003,-0.91437054
-12.643207,-1.8048046999999998,-0.15798025
-12.643207,-1.8048046999999998,-0.15798025
-12.643207,-1.8048046999999998,-0.15798025
-12.643207,-1.8048046999999998,-0.15798025
-9.809137,-2.0728923999999997,0.512239
-9.809137,-2.0728923999999997,0.512239
-9.809137,-2.0728923999999997,0.512239
-9.809137,-2.0728923999999997,0.512239
-9.866585,-3.7484405,-0.6079846
-9.866585,-3.7484405,-0.6079846
-9.866585,-3.7484405,-0.6079846
-11.321918,-4.342063,0.6271336999999999
-11.321918,-4.342063,0.6271336999999999
-11.321918,-4.342063,0.6271336999999999
-11.321918,-4.342063,0.6271336999999999
-11.321918,-4.342063,0.6271336999999999
-13.418745999999999,-5.6154795,0.59841
-13.418745999999999,-5.6154795,0.59841
-13.418745999999999,-5.6154795,0.59841
-12.719804,-4.945260500000001,1.6803354
-12.719804,-4.945260500000001,1.6803354
-12.719804,-4.945260500000001,1.6803354
-12.719804,-4.945260500000001,1.6803354
-12.107032,-5.49101,0.2154276
-12.107032,-5.49101,0.2154276
-12.107032,-5.49101,0.2154276
-12.107032,-5.49101,0.2154276
-15.649619,-2.4750240000000003,-1.4888442
-15.649619,-2.4750240000000003,-1.4888442
-15.649619,-2.4750240000000003,-1.4888442
-15.649619,-2.4750240000000003,-1.4888442
-16.214517999999998,-0.90479594,-1.2303311000000001
-16.214517999999998,-0.90479594,-1.2303311000000001
-16.214517999999998,-0.90479594,-1.2303311000000001
-16.214517999999998,-0.90479594,-1.2303311000000001
-13.150659,-1.0292653,-1.383524
-13.150659,-1.0292653,-1.383524
-13.150659,-1.0292653,-1.383524
-13.150659,-1.0292653,-1.383524
-9.847435,0.14840569,-1.4218222
-9.847435,0.14840569,-1.4218222
-9.847435,0.14840569,-1.4218222
-9.847435,0.14840569,-1.4218222
-6.5346375,0.36862057,-0.91437054
-6.5346375,0.36862057,-0.91437054
-6.5346375,0.36862057,-0.91437054
-6.620808599999999,0.03351096,-1.2782038
-6.620808599999999,0.03351096,-1.2782038
-6.620808599999999,0.03351096,-1.2782038
-6.620808599999999,0.03351096,-1.2782038
-7.35805,-0.2441513,-1.1633091
-7.35805,-0.2441513,-1.1633091
-7.35805,-0.2441513,-1.1633091
-7.35805,-0.2441513,-1.1633091
-11.1208515,-0.40691882,-1.383524
-11.1208515,-0.40691882,-1.383524
-11.1208515,-0.40691882,-1.383524
-11.1208515,-0.40691882,-1.383524
-12.087883,-3.212265,0.33032233
-12.087883,-3.212265,0.33032233
-12.087883,-3.212265,0.33032233
-12.087883,-3.212265,0.33032233
-15.860259,-1.6994845,-1.4409714
-15.860259,-1.6994845,-1.4409714
-15.860259,-1.6994845,-1.4409714
-15.860259,-1.6994845,-1.4409714
-14.76876,-1.1728836,-0.751603
-14.76876,-1.1728836,-0.751603
-14.76876,-1.1728836,-0.751603
-10.469782,-2.494173,0.85692316
-10.469782,-2.494173,0.85692316
-10.469782,-2.494173,0.85692316
-10.469782,-2.494173,0.85692316
-10.469782,-2.494173,0.85692316
-8.803808,-3.2888615,-0.043085523
-8.803808,-3.2888615,-0.043085523
-8.803808,-3.2888615,-0.043085523
-9.924032,-4.1888704,0.54096264
-9.924032,-4.1888704,0.54096264
-9.924032,-4.1888704,0.54096264
-9.924032,-4.1888704,0.54096264
-13.016615,-7.0133657000000005,0.2920241
-13.016615,-7.0133657000000005,0.2920241
-13.016615,-7.0133657000000005,0.2920241
-13.016615,-7.0133657000000005,0.2920241
-14.893229000000002,-3.930357,0.33032233
-14.893229000000002,-3.930357,0.33032233
-14.893229000000002,-3.930357,0.33032233
-14.893229000000002,-3.930357,0.33032233
-12.308098,-3.6335455999999997,-0.8186249
-12.308098,-3.6335455999999997,-0.8186249
-12.308098,-3.6335455999999997,-0.8186249
-12.308098,-3.6335455999999997,-0.8186249
-15.343232999999998,-2.733537,-2.752686
-15.343232999999998,-2.733537,-2.752686
-15.343232999999998,-2.733537,-2.752686
-15.343232999999998,-2.733537,-2.752686
-15.649619,-1.6707608,-1.2111819
-15.649619,-1.6707608,-1.2111819
-15.649619,-1.6707608,-1.2111819
-15.649619,-1.6707608,-1.2111819
-12.174053,-0.014361841,-1.0484143
-12.174053,-0.014361841,-1.0484143
-12.174053,-0.014361841,-1.0484143
-8.803808,0.512239,-1.5750152
-8.803808,0.512239,-1.5750152
-8.803808,0.512239,-1.5750152
-8.803808,0.512239,-1.5750152
-8.803808,0.512239,-1.5750152
-6.936769,-0.17712937,-1.0675635
-6.936769,-0.17712937,-1.0675635
-6.936769,-0.17712937,-1.0675635
-7.501668,0.8664976999999999,-1.5462915000000002
-7.501668,0.8664976999999999,-1.5462915000000002
-7.501668,0.8664976999999999,-1.5462915000000002
-7.501668,0.8664976999999999,-1.5462915000000002
-8.813383,0.20585304,-1.4122477
-8.813383,0.20585304,-1.4122477
-8.813383,0.20585304,-1.4122477
-8.813383,0.20585304,-1.4122477
-10.374036,-1.5271424,-1.1824582000000001
-10.374036,-1.5271424,-1.1824582000000001
-10.374036,-1.5271424,-1.1824582000000001
-10.374036,-1.5271424,-1.1824582000000001
-12.614484,-2.6377914000000002,-0.36862057
-12.614484,-2.6377914000000002,-0.36862057
-12.614484,-2.6377914000000002,-0.36862057
-12.614484,-2.6377914000000002,-0.36862057
-16.702820000000003,-1.9101248,-1.5654407
-16.702820000000003,-1.9101248,-1.5654407
-16.702820000000003,-1.9101248,-1.5654407
-16.702820000000003,-1.9101248,-1.5654407
-12.269799,-1.9675721999999998,-0.023936402000000002
-12.269799,-1.9675721999999998,-0.023936402000000002
-12.269799,-1.9675721999999998,-0.023936402000000002
-9.215514,-2.4750240000000003,0.3111732
-9.215514,-2.4750240000000003,0.3111732
-9.215514,-2.4750240000000003,0.3111732
-9.215514,-2.4750240000000003,0.3111732
-8.621891999999999,-3.3463089999999998,-0.69415563
-8.621891999999999,-3.3463089999999998,-0.69415563
-8.621891999999999,-3.3463089999999998,-0.69415563
-8.621891999999999,-3.3463089999999998,-0.69415563
-10.871913000000001,-3.9782297999999994,-0.15798025
-10.871913000000001,-3.9782297999999994,-0.15798025
-10.871913000000001,-3.9782297999999994,-0.15798025
-10.871913000000001,-3.9782297999999994,-0.15798025
-13.667685500000001,-6.1995277,-0.78990126
-13.667685500000001,-6.1995277,-0.78990126
-13.667685500000001,-6.1995277,-0.78990126
-13.667685500000001,-6.1995277,-0.78990126
-13.016615,-5.0601554,0.40691882
-13.016615,-5.0601554,0.40691882
-13.016615,-5.0601554,0.40691882
-11.293194,-4.5527034,-0.8664976999999999
-11.293194,-4.5527034,-0.8664976999999999
-11.293194,-4.5527034,-0.8664976999999999
-11.293194,-4.5527034,-0.8664976999999999
-11.293194,-4.5527034,-0.8664976999999999
-13.849601999999999,-2.9633265,-1.4122477
-13.849601999999999,-2.9633265,-1.4122477
-13.849601999999999,-2.9633265,-1.4122477
-13.974070999999999,-1.1154363,-0.78990126
-13.974070999999999,-1.1154363,-0.78990126
-13.974070999999999,-1.1154363,-0.78990126
-13.974070999999999,-1.1154363,-0.78990126
-11.216598,0.16755481,-0.7324539000000001
-11.216598,0.16755481,-0.7324539000000001
-11.216598,0.16755481,-0.7324539000000001
-11.216598,0.16755481,-0.7324539000000001
-7.855927,0.63670826,-1.2399056
-7.855927,0.63670826,-1.2399056
-7.855927,0.63670826,-1.2399056
-7.855927,0.63670826,-1.2399056
-6.7357035000000005,-0.34947145,-1.0771381000000002
-6.7357035000000005,-0.34947145,-1.0771381000000002
-6.7357035000000005,-0.34947145,-1.0771381000000002
-6.7357035000000005,-0.34947145,-1.0771381000000002
-8.439975,-0.30159867,-1.6707608
-8.439975,-0.30159867,-1.6707608
-8.439975,-0.30159867,-1.6707608
-8.439975,-0.30159867,-1.6707608
-10.000628,-0.6271336999999999,-1.3643749
-10.000628,-0.6271336999999999,-1.3643749
-10.000628,-0.6271336999999999,-1.3643749
-10.000628,-0.6271336999999999,-1.3643749
-11.944264,-1.9005502,-0.63670826
-11.944264,-1.9005502,-0.63670826
-11.944264,-1.9005502,-0.63670826
-12.624058,-1.6324625,-0.8856468000000001
-12.624058,-1.6324625,-0.8856468000000001
-12.624058,-1.6324625,-0.8856468000000001
-12.624058,-1.6324625,-0.8856468000000001
-12.624058,-1.6324625,-0.8856468000000001
-12.633633,-1.8048046999999998,-0.78032666
-12.633633,-1.8048046999999998,-0.78032666
-12.633633,-1.8048046999999998,-0.78032666
-8.976150500000001,-2.1207652,0.3398969
-8.976150500000001,-2.1207652,0.3398969
-8.976150500000001,-2.1207652,0.3398969
-8.976150500000001,-2.1207652,0.3398969
-9.158066999999999,-2.6282167000000003,-0.45479164
-9.158066999999999,-2.6282167000000003,-0.45479164
-9.158066999999999,-2.6282167000000003,-0.45479164
-9.158066999999999,-2.6282167000000003,-0.45479164
-9.971905,-3.2792869,-0.20585304
-9.971905,-3.2792869,-0.20585304
-9.971905,-3.2792869,-0.20585304
-9.971905,-3.2792869,-0.20585304
-11.542132,-3.8920587999999996,0.8090504
-11.542132,-3.8920587999999996,0.8090504
-11.542132,-3.8920587999999996,0.8090504
-11.542132,-3.8920587999999996,0.8090504
-14.069817,-4.2080193,0.8473485999999999
-14.069817,-4.2080193,0.8473485999999999
-14.069817,-4.2080193,0.8473485999999999
-14.069817,-4.2080193,0.8473485999999999
-13.409172,-4.763344,1.1824582000000001
-13.409172,-4.763344,1.1824582000000001
-13.409172,-4.763344,1.1824582000000001
-13.409172,-4.763344,1.1824582000000001
-10.699572,-4.5910015,-0.6079846
-10.699572,-4.5910015,-0.6079846
-10.699572,-4.5910015,-0.6079846
-14.146413,-2.5420458,-0.9718179
-14.146413,-2.5420458,-0.9718179
-14.146413,-2.5420458,-0.9718179
-14.146413,-2.5420458,-0.9718179
-13.198531,-0.8090504,-0.3877697
-13.198531,-0.8090504,-0.3877697
-13.198531,-0.8090504,-0.3877697
-13.198531,-0.8090504,-0.3877697
-9.809137,-1.0484143,-1.2590546999999999
-9.809137,-1.0484143,-1.2590546999999999
-9.809137,-1.0484143,-1.2590546999999999
-9.809137,-1.0484143,-1.2590546999999999
-7.8176284,-0.3398969,-1.5654407
-7.8176284,-0.3398969,-1.5654407
-7.8176284,-0.3398969,-1.5654407
-7.8176284,-0.3398969,-1.5654407
-7.0995364,-0.43564250000000004,-1.2973529
-7.0995364,-0.43564250000000004,-1.2973529
-7.0995364,-0.43564250000000004,-1.2973529
-7.0995364,-0.43564250000000004,-1.2973529
-7.865501400000001,0.17712937,-1.3260766000000002
-7.865501400000001,0.17712937,-1.3260766000000002
-7.865501400000001,0.17712937,-1.3260766000000002
-9.6942425,0.0,-0.85692316
-9.6942425,0.0,-0.85692316
-9.6942425,0.0,-0.85692316
-9.6942425,0.0,-0.85692316
-9.6942425,0.0,-0.85692316
-11.446387,-1.0196906,-0.9622433000000001
-11.446387,-1.0196906,-0.9622433000000001
-11.446387,-1.0196906,-0.9622433000000001
-13.801729000000002,-2.6856642,-0.7420284
-13.801729000000002,-2.6856642,-0.7420284
-13.801729000000002,-2.6856642,-0.7420284
-13.801729000000002,-2.6856642,-0.7420284
-14.893229000000002,-2.034594,-1.1728836
-14.893229000000002,-2.034594,-1.1728836
-14.893229000000002,-2.034594,-1.1728836
-14.893229000000002,-2.034594,-1.1728836
-10.307014,-1.4218222,0.8952214
-10.307014,-1.4218222,0.8952214
-10.307014,-1.4218222,0.8952214
-10.307014,-1.4218222,0.8952214
-9.3878565,-2.0920415,0.22500217
-9.3878565,-2.0920415,0.22500217
-9.3878565,-2.0920415,0.22500217
-9.3878565,-2.0920415,0.22500217
-9.780414,-3.671844,0.09095833
-9.780414,-3.671844,0.09095833
-9.780414,-3.671844,0.09095833
-11.561282,-4.782493,0.76117754
-11.561282,-4.782493,0.76117754
-11.561282,-4.782493,0.76117754
-11.561282,-4.782493,0.76117754
-11.561282,-4.782493,0.76117754
-12.049584,-5.538883,0.56968635
-12.049584,-5.538883,0.56968635
-12.049584,-5.538883,0.56968635
-13.974070999999999,-5.261221,0.8090504
-13.974070999999999,-5.261221,0.8090504
-13.974070999999999,-5.261221,0.8090504
-13.974070999999999,-5.261221,0.8090504
-13.820878,-3.4420545,-0.8664976999999999
-13.820878,-3.4420545,-0.8664976999999999
-13.820878,-3.4420545,-0.8664976999999999
-13.820878,-3.4420545,-0.8664976999999999
-16.319838,-2.254809,-1.3069274
-16.319838,-2.254809,-1.3069274
-16.319838,-2.254809,-1.3069274
-16.319838,-2.254809,-1.3069274
-13.830453,-0.78032666,-1.3739493999999999
-13.830453,-0.78032666,-1.3739493999999999
-13.830453,-0.78032666,-1.3739493999999999
-13.830453,-0.78032666,-1.3739493999999999
-10.40276,0.33032233,-1.3165021000000001
-10.40276,0.33032233,-1.3165021000000001
-10.40276,0.33032233,-1.3165021000000001
-10.40276,0.33032233,-1.3165021000000001
-8.334655,-0.014361841,-1.3643749
-8.334655,-0.014361841,-1.3643749
-8.334655,-0.014361841,-1.3643749
-8.334655,-0.014361841,-1.3643749
-7.271878699999999,0.19627848,-1.383524
-7.271878699999999,0.19627848,-1.383524
-7.271878699999999,0.19627848,-1.383524
-7.463369999999999,0.39734426,-1.4218222
-7.463369999999999,0.39734426,-1.4218222
-7.463369999999999,0.39734426,-1.4218222
-7.463369999999999,0.39734426,-1.4218222
-9.885734,-0.023936402000000002,-1.5941644
-9.885734,-0.023936402000000002,-1.5941644
-9.885734,-0.023936402000000002,-1.5941644
-9.885734,-0.023936402000000002,-1.5941644
-11.915541000000001,-3.1356685,-0.081383765
-11.915541000000001,-3.1356685,-0.081383765
-11.915541000000001,-3.1356685,-0.081383765
-11.915541000000001,-3.1356685,-0.081383765
-14.730460999999998,-2.1111906000000005,-1.1633091
-14.730460999999998,-2.1111906000000005,-1.1633091
-14.730460999999998,-2.1111906000000005,-1.1633091
-14.730460999999998,-2.1111906000000005,-1.1633091
-12.614484,-0.7994758000000001,-0.7228793
-12.614484,-0.7994758000000001,-0.7228793
-12.614484,-0.7994758000000001,-0.7228793
-12.614484,-0.7994758000000001,-0.7228793
-9.138917999999999,-1.8526775000000002,0.71330476
-9.138917999999999,-1.8526775000000002,0.71330476
-9.138917999999999,-1.8526775000000002,0.71330476
-10.077225,-2.647366,-0.14840569
-10.077225,-2.647366,-0.14840569
-10.077225,-2.647366,-0.14840569
-10.077225,-2.647366,-0.14840569
-10.077225,-2.647366,-0.14840569
-11.455961,-3.3654580000000003,0.6845810999999999
-11.455961,-3.3654580000000003,0.6845810999999999
-11.455961,-3.3654580000000003,0.6845810999999999
-12.499589,-4.2271686,1.1537346000000002
-12.499589,-4.2271686,1.1537346000000002
-12.499589,-4.2271686,1.1537346000000002
-12.499589,-4.2271686,1.1537346000000002
-11.743198,-5.2037735000000005,1.14416
-11.743198,-5.2037735000000005,1.14416
-11.743198,-5.2037735000000005,1.14416
-11.743198,-5.2037735000000005,1.14416
-12.068733,-5.730374299999999,0.46436617
-12.068733,-5.730374299999999,0.46436617
-12.068733,-5.730374299999999,0.46436617
-12.068733,-5.730374299999999,0.46436617
-15.438979000000002,-3.4133307999999998,-1.3069274
-15.438979000000002,-3.4133307999999998,-1.3069274
-15.438979000000002,-3.4133307999999998,-1.3069274
-15.438979000000002,-3.4133307999999998,-1.3069274
-16.540052,-1.6420371999999999,-1.3548003
-16.540052,-1.6420371999999999,-1.3548003
-16.540052,-1.6420371999999999,-1.3548003
-16.540052,-1.6420371999999999,-1.3548003
-12.624058,-0.3877697,-1.2399056
-12.624058,-0.3877697,-1.2399056
-12.624058,-0.3877697,-1.2399056
-12.624058,-0.3877697,-1.2399056
-9.924032,-0.42606795,-2.0250196
-9.924032,-0.42606795,-2.0250196
-9.924032,-0.42606795,-2.0250196
-7.463369999999999,0.44521707,-1.3165021000000001
-7.463369999999999,0.44521707,-1.3165021000000001
-7.463369999999999,0.44521707,-1.3165021000000001
-7.463369999999999,0.44521707,-1.3165021000000001
-7.463369999999999,0.44521707,-1.3165021000000001
-6.6591067,1.0388398,-1.0579889
-6.6591067,1.0388398,-1.0579889
-6.6591067,1.0388398,-1.0579889
-7.463369999999999,0.91437054,-1.3260766000000002
-7.463369999999999,0.91437054,-1.3260766000000002
-7.463369999999999,0.91437054,-1.3260766000000002
-7.463369999999999,0.91437054,-1.3260766000000002
-12.059159,0.54096264,-2.2643836
-12.059159,0.54096264,-2.2643836
-12.059159,0.54096264,-2.2643836
-12.059159,0.54096264,-2.2643836
-14.041093,-3.3941817000000003,-0.44521707
-14.041093,-3.3941817000000003,-0.44521707
-14.041093,-3.3941817000000003,-0.44521707
-14.041093,-3.3941817000000003,-0.44521707
-16.86559,-1.3069274,-1.9005502
-16.86559,-1.3069274,-1.9005502
-16.86559,-1.3069274,-1.9005502
-16.86559,-1.3069274,-1.9005502
-12.174053,-0.8952214,-0.17712937
-12.174053,-0.8952214,-0.17712937
-12.174053,-0.8952214,-0.17712937
-9.5219,-1.7856555,0.12925656
-9.5219,-1.7856555,0.12925656
-9.5219,-1.7856555,0.12925656
-9.5219,-1.7856555,0.12925656
-9.5219,-1.7856555,0.12925656
-10.910212,-3.4420545,-1.0196906
-10.910212,-3.4420545,-1.0196906
-10.910212,-3.4420545,-1.0196906
-11.972988,-4.772918,0.043085523
-11.972988,-4.772918,0.043085523
-11.972988,-4.772918,0.043085523
-11.972988,-4.772918,0.043085523
-11.848517999999999,-6.333572,-0.00478728
-11.848517999999999,-6.333572,-0.00478728
-11.848517999999999,-6.333572,-0.00478728
-11.848517999999999,-6.333572,-0.00478728
-11.044255,-6.218677,1.2016073
-11.044255,-6.218677,1.2016073
-11.044255,-6.218677,1.2016073
-11.044255,-6.218677,1.2016073
-12.834699,-5.5963306,-0.665432
-12.834699,-5.5963306,-0.665432
-12.834699,-5.5963306,-0.665432
-12.834699,-5.5963306,-0.665432
-17.727299,-2.4463003,-1.8143792
-17.727299,-2.4463003,-1.8143792
-17.727299,-2.4463003,-1.8143792
-17.727299,-2.4463003,-1.8143792
-16.990057,-1.4888442,-1.1154363
-16.990057,-1.4888442,-1.1154363
-16.990057,-1.4888442,-1.1154363
-13.246405,-0.3398969,-1.9005502
-13.246405,-0.3398969,-1.9005502
-13.246405,-0.3398969,-1.9005502
-13.246405,-0.3398969,-1.9005502
-9.847435,0.39734426,-1.8048046999999998
-9.847435,0.39734426,-1.8048046999999998
-9.847435,0.39734426,-1.8048046999999998
-9.847435,0.39734426,-1.8048046999999998
-7.9420977,0.3398969,-1.2399056
-7.9420977,0.3398969,-1.2399056
-7.9420977,0.3398969,-1.2399056
-7.9420977,0.3398969,-1.2399056
-7.788905000000001,1.5271424,-1.5558661
-7.788905000000001,1.5271424,-1.5558661
-7.788905000000001,1.5271424,-1.5558661
-7.788905000000001,1.5271424,-1.5558661
-7.4920936000000005,1.6899098999999997,-1.8431028999999999
-7.4920936000000005,1.6899098999999997,-1.8431028999999999
-7.4920936000000005,1.6899098999999997,-1.8431028999999999
-7.4920936000000005,1.6899098999999997,-1.8431028999999999
-11.743198,-2.3697037999999995,-0.9622433000000001
-11.743198,-2.3697037999999995,-0.9622433000000001
-11.743198,-2.3697037999999995,-0.9622433000000001
-11.743198,-2.3697037999999995,-0.9622433000000001
-14.43365,-1.6228879999999999,-0.8281995000000001
-14.43365,-1.6228879999999999,-0.8281995000000001
-14.43365,-1.6228879999999999,-0.8281995000000001
-15.391106,0.37819514,-2.5324712000000003
-15.391106,0.37819514,-2.5324712000000003
-15.391106,0.37819514,-2.5324712000000003
-15.391106,0.37819514,-2.5324712000000003
-15.391106,0.37819514,-2.5324712000000003
-11.025106,-1.6324625,-0.11968201
-11.025106,-1.6324625,-0.11968201
-11.025106,-1.6324625,-0.11968201
-11.49426,-3.2697124,-0.78990126
-11.49426,-3.2697124,-0.78990126
-11.49426,-3.2697124,-0.78990126
-11.49426,-3.2697124,-0.78990126
-12.758101,-3.6239712,-0.49308985
-12.758101,-3.6239712,-0.49308985
-12.758101,-3.6239712,-0.49308985
-12.758101,-3.6239712,-0.49308985
-12.815549,-4.96441,0.5505372
-12.815549,-4.96441,0.5505372
-12.815549,-4.96441,0.5505372
-12.815549,-4.96441,0.5505372
-11.484685,-6.323997,0.9718179
-11.484685,-6.323997,0.9718179
-11.484685,-6.323997,0.9718179
-11.484685,-6.323997,0.9718179
-12.805975,-5.500585,1.6133133999999998
-12.805975,-5.500585,1.6133133999999998
-12.805975,-5.500585,1.6133133999999998
-12.805975,-5.500585,1.6133133999999998
-13.926198000000001,-2.6282167000000003,-0.61755913
-13.926198000000001,-2.6282167000000003,-0.61755913
-13.926198000000001,-2.6282167000000003,-0.61755913
-13.926198000000001,-2.6282167000000003,-0.61755913
-15.793238,-0.46436617,-1.383524
-15.793238,-0.46436617,-1.383524
-15.793238,-0.46436617,-1.383524
-13.610238,-0.081383765,-0.17712937
-13.610238,-0.081383765,-0.17712937
-13.610238,-0.081383765,-0.17712937
-13.610238,-0.081383765,-0.17712937
-11.101703,0.33032233,-0.9430941999999999
-11.101703,0.33032233,-0.9430941999999999
-11.101703,0.33032233,-0.9430941999999999
-11.101703,0.33032233,-0.9430941999999999
-9.742115,0.54096264,-1.7186337
-9.742115,0.54096264,-1.7186337
-9.742115,0.54096264,-1.7186337
-9.742115,0.54096264,-1.7186337
-8.171887,1.0771381000000002,-1.4313968000000001
-8.171887,1.0771381000000002,-1.4313968000000001
-8.171887,1.0771381000000002,-1.4313968000000001
-8.171887,1.0771381000000002,-1.4313968000000001
-7.731457700000001,1.9771467,-1.4984187
-7.731457700000001,1.9771467,-1.4984187
-7.731457700000001,1.9771467,-1.4984187
-7.731457700000001,1.9771467,-1.4984187
-9.359133,0.34947145,-0.91437054
-9.359133,0.34947145,-0.91437054
-9.359133,0.34947145,-0.91437054
-12.375119,-1.383524,0.081383765
-12.375119,-1.383524,0.081383765
-12.375119,-1.383524,0.081383765
-12.375119,-1.383524,0.081383765
-14.807057,-0.4164934,-0.7324539000000001
-14.807057,-0.4164934,-0.7324539000000001
-14.807057,-0.4164934,-0.7324539000000001
-14.807057,-0.4164934,-0.7324539000000001
-13.02619,-1.1058618,-0.4164934
-13.02619,-1.1058618,-0.4164934
-13.02619,-1.1058618,-0.4164934
-13.02619,-1.1058618,-0.4164934
-7.961247,-1.383524,1.6037389
-7.961247,-1.383524,1.6037389
-7.961247,-1.383524,1.6037389
-7.961247,-1.383524,1.6037389
-8.669764500000001,-3.5378,-0.8760723
-8.669764500000001,-3.5378,-0.8760723
-8.669764500000001,-3.5378,-0.8760723
-8.669764500000001,-3.5378,-0.8760723
-12.059159,-4.236743,-0.6750065
-12.059159,-4.236743,-0.6750065
-12.059159,-4.236743,-0.6750065
-12.059159,-4.236743,-0.6750065
-14.347479000000002,-4.73462,-0.49308985
-14.347479000000002,-4.73462,-0.49308985
-14.347479000000002,-4.73462,-0.49308985
-13.332576000000001,-5.5963306,0.13883112
-13.332576000000001,-5.5963306,0.13883112
-13.332576000000001,-5.5963306,0.13883112
-13.332576000000001,-5.5963306,0.13883112
-13.332576000000001,-5.5963306,0.13883112
-11.992137,-6.400593799999999,0.26330042
-11.992137,-6.400593799999999,0.26330042
-11.992137,-6.400593799999999,0.26330042
-13.13151,-3.8346114,-0.83777404
-13.13151,-3.8346114,-0.83777404
-13.13151,-3.8346114,-0.83777404
-13.13151,-3.8346114,-0.83777404
-15.324084,-1.3069274,-0.5792609000000001
-15.324084,-1.3069274,-0.5792609000000001
-15.324084,-1.3069274,-0.5792609000000001
-15.324084,-1.3069274,-0.5792609000000001
-11.925115,-0.09095833,-0.43564250000000004
-11.925115,-0.09095833,-0.43564250000000004
-11.925115,-0.09095833,-0.43564250000000004
-11.925115,-0.09095833,-0.43564250000000004
-9.330409,-0.49308985,-0.8473485999999999
-9.330409,-0.49308985,-0.8473485999999999
-9.330409,-0.49308985,-0.8473485999999999
-9.330409,-0.49308985,-0.8473485999999999
-8.34423,0.10053288,-1.4505458999999998
-8.34423,0.10053288,-1.4505458999999998
-8.34423,0.10053288,-1.4505458999999998
-8.34423,0.10053288,-1.4505458999999998
-8.736787,0.2920241,-1.0867126
-8.736787,0.2920241,-1.0867126
-8.736787,0.2920241,-1.0867126
-8.736787,0.2920241,-1.0867126
-8.66019,1.1345854,-0.63670826
-8.66019,1.1345854,-0.63670826
-8.66019,1.1345854,-0.63670826
-11.254896,-0.19627848,-1.4026731000000001
-11.254896,-0.19627848,-1.4026731000000001
-11.254896,-0.19627848,-1.4026731000000001
-11.254896,-0.19627848,-1.4026731000000001
-11.590005999999999,-2.733537,0.19627848
-11.590005999999999,-2.733537,0.19627848
-11.590005999999999,-2.733537,0.19627848
-11.590005999999999,-2.733537,0.19627848
-13.064487,-0.85692316,-1.1633091
-13.064487,-0.85692316,-1.1633091
-13.064487,-0.85692316,-1.1633091
-13.064487,-0.85692316,-1.1633091
-11.4272375,-1.2590546999999999,-0.45479164
-11.4272375,-1.2590546999999999,-0.45479164
-11.4272375,-1.2590546999999999,-0.45479164
-11.4272375,-1.2590546999999999,-0.45479164
-8.23891,-2.3888528,0.11968201
-8.23891,-2.3888528,0.11968201
-8.23891,-2.3888528,0.11968201
-8.23891,-2.3888528,0.11968201
-9.598496,-3.0686467,-0.43564250000000004
-9.598496,-3.0686467,-0.43564250000000004
-9.598496,-3.0686467,-0.43564250000000004
-9.598496,-3.0686467,-0.43564250000000004
-11.168725,-3.6622693999999996,0.15798025
-11.168725,-3.6622693999999996,0.15798025
-11.168725,-3.6622693999999996,0.15798025
-11.168725,-3.6622693999999996,0.15798025
-13.179382,-5.06973,0.36862057
-13.179382,-5.06973,0.36862057
-13.179382,-5.06973,0.36862057
-13.878325,-4.916537,0.71330476
-13.878325,-4.916537,0.71330476
-13.878325,-4.916537,0.71330476
-13.878325,-4.916537,0.71330476
-12.078308,-4.7537694,0.5313880999999999
-12.078308,-4.7537694,0.5313880999999999
-12.078308,-4.7537694,0.5313880999999999
-12.078308,-4.7537694,0.5313880999999999
-14.529395000000001,-3.4803526,-0.8952214
-14.529395000000001,-3.4803526,-0.8952214
-14.529395000000001,-3.4803526,-0.8952214
-14.529395000000001,-3.4803526,-0.8952214
-14.395351000000002,-1.1058618,-0.69415563
-14.395351000000002,-1.1058618,-0.69415563
-14.395351000000002,-1.1058618,-0.69415563
-14.395351000000002,-1.1058618,-0.69415563
-10.584677000000001,0.12925656,-0.63670826
-10.584677000000001,0.12925656,-0.63670826
-10.584677000000001,0.12925656,-0.63670826
-10.584677000000001,0.12925656,-0.63670826
-8.152739,0.0,-1.3548003
-8.152739,0.0,-1.3548003
-8.152739,0.0,-1.3548003
-8.152739,0.0,-1.3548003
-7.587839,-0.2920241,-1.5462915000000002
-7.587839,-0.2920241,-1.5462915000000002
-7.587839,-0.2920241,-1.5462915000000002
-8.861256,0.2154276,-1.5462915000000002
-8.861256,0.2154276,-1.5462915000000002
-8.861256,0.2154276,-1.5462915000000002
-8.861256,0.2154276,-1.5462915000000002
-8.861256,0.2154276,-1.5462915000000002
-10.814466,0.30159867,-1.8909756999999998
-10.814466,0.30159867,-1.8909756999999998
-10.814466,0.30159867,-1.8909756999999998
-10.814466,0.30159867,-1.8909756999999998
-11.771922,-2.9633265,-0.9430941999999999
-11.771922,-2.9633265,-0.9430941999999999
-11.771922,-2.9633265,-0.9430941999999999
-11.771922,-2.9633265,-0.9430941999999999
-10.977234,-1.7952299999999999,-0.36862057
-10.977234,-1.7952299999999999,-0.36862057
-10.977234,-1.7952299999999999,-0.36862057
-10.977234,-1.7952299999999999,-0.36862057
-14.155988,-0.6750065,-1.9962958
-14.155988,-0.6750065,-1.9962958
-14.155988,-0.6750065,-1.9962958
-14.155988,-0.6750065,-1.9962958
-9.014449,-2.0058703,0.45479164
-9.014449,-2.0058703,0.45479164
-9.014449,-2.0058703,0.45479164
-9.014449,-2.0058703,0.45479164
-8.047417999999999,-2.733537,-0.12925656
-8.047417999999999,-2.733537,-0.12925656
-8.047417999999999,-2.733537,-0.12925656
-10.105948,-4.045252,-0.9430941999999999
-10.105948,-4.045252,-0.9430941999999999
-10.105948,-4.045252,-0.9430941999999999
-10.105948,-4.045252,-0.9430941999999999
-10.105948,-4.045252,-0.9430941999999999
-12.710229,-5.088879,0.23457673
-12.710229,-5.088879,0.23457673
-12.710229,-5.088879,0.23457673
-14.385777,-4.658024,-0.110107444
-14.385777,-4.658024,-0.110107444
-14.385777,-4.658024,-0.110107444
-14.385777,-4.658024,-0.110107444
-14.232584,-4.322914,0.110107444
-14.232584,-4.322914,0.110107444
-14.232584,-4.322914,0.110107444
-14.232584,-4.322914,0.110107444
-11.590005999999999,-3.7675896,-1.1250108
-11.590005999999999,-3.7675896,-1.1250108
-11.590005999999999,-3.7675896,-1.1250108
-11.590005999999999,-3.7675896,-1.1250108
-12.786825,-2.254809,-0.78032666
-12.786825,-2.254809,-0.78032666
-12.786825,-2.254809,-0.78032666
-12.786825,-2.254809,-0.78032666
-10.144247,-0.85692316,-0.37819514
-10.144247,-0.85692316,-0.37819514
-10.144247,-0.85692316,-0.37819514
-10.144247,-0.85692316,-0.37819514
-8.516571,-0.78990126,-1.1633091
-8.516571,-0.78990126,-1.1633091
-8.516571,-0.78990126,-1.1633091
-8.32508,-0.47394073,-1.5654407
-8.32508,-0.47394073,-1.5654407
-8.32508,-0.47394073,-1.5654407
-8.32508,-0.47394073,-1.5654407
-8.889978999999999,-0.54096264,-1.709059
-8.889978999999999,-0.54096264,-1.709059
-8.889978999999999,-0.54096264,-1.709059
-8.889978999999999,-0.54096264,-1.709059
-9.8953085,0.023936402000000002,-1.6899098999999997
-9.8953085,0.023936402000000002,-1.6899098999999997
-9.8953085,0.023936402000000002,-1.6899098999999997
-9.8953085,0.023936402000000002,-1.6899098999999997
-9.8953085,0.023936402000000002,-1.6899098999999997
-10.871913000000001,-1.2973529,-1.5845897
-10.871913000000001,-1.2973529,-1.5845897
-10.871913000000001,-1.2973529,-1.5845897
-9.943181,-4.0069537,0.76117754
-9.943181,-4.0069537,0.76117754
-9.943181,-4.0069537,0.76117754
-9.943181,-4.0069537,0.76117754
-9.943181,-4.0069537,0.76117754
-11.7049,-0.5218136,-1.2111819
-11.7049,-0.5218136,-1.2111819
-11.7049,-0.5218136,-1.2111819
-11.7049,-0.5218136,-1.2111819
-11.025106,-1.0962871,-0.92394507
-11.025106,-1.0962871,-0.92394507
-11.025106,-1.0962871,-0.92394507
-7.4920936000000005,-2.3505547000000004,0.77075213
-7.4920936000000005,-2.3505547000000004,0.77075213
-7.4920936000000005,-2.3505547000000004,0.77075213
-7.4920936000000005,-2.3505547000000004,0.77075213
-7.4920936000000005,-2.3505547000000004,0.77075213
-8.765511,-3.1069447999999995,-0.45479164
-8.765511,-3.1069447999999995,-0.45479164
-8.765511,-3.1069447999999995,-0.45479164
-11.465536,-4.7920675,-0.110107444
-11.465536,-4.7920675,-0.110107444
-11.465536,-4.7920675,-0.110107444
-11.465536,-4.7920675,-0.110107444
-13.945347,-5.1367517,0.16755481
-13.945347,-5.1367517,0.16755481
-13.945347,-5.1367517,0.16755481
-13.945347,-5.1367517,0.16755481
-16.26239,-2.9824755,-0.043085523
-16.26239,-2.9824755,-0.043085523
-16.26239,-2.9824755,-0.043085523
-16.26239,-2.9824755,-0.043085523
-10.833615,-3.059072,-0.062234644000000006
-10.833615,-3.059072,-0.062234644000000006
-10.833615,-3.059072,-0.062234644000000006
-10.833615,-3.059072,-0.062234644000000006
-10.82404,-3.5569491,-0.93351966
-10.82404,-3.5569491,-0.93351966
-10.82404,-3.5569491,-0.93351966
-10.82404,-3.5569491,-0.93351966
-10.833615,-1.7473572,-0.7420284
-10.833615,-1.7473572,-0.7420284
-10.833615,-1.7473572,-0.7420284
-10.833615,-1.7473572,-0.7420284
-8.526146,-0.33032233,-0.3398969
-8.526146,-0.33032233,-0.3398969
-8.526146,-0.33032233,-0.3398969
-8.11444,-0.062234644000000006,-1.9101248
-8.11444,-0.062234644000000006,-1.9101248
-8.11444,-0.062234644000000006,-1.9101248
-8.11444,-0.062234644000000006,-1.9101248
-8.870830999999999,-1.1154363,-2.0058703
-8.870830999999999,-1.1154363,-2.0058703
-8.870830999999999,-1.1154363,-2.0058703
-8.870830999999999,-1.1154363,-2.0058703
-10.938935,-0.22500217,-1.2111819
-10.938935,-0.22500217,-1.2111819
-10.938935,-0.22500217,-1.2111819
-10.938935,-0.22500217,-1.2111819
-11.197449,0.26330042,-1.5845897
-11.197449,0.26330042,-1.5845897
-11.197449,0.26330042,-1.5845897
-11.197449,0.26330042,-1.5845897
-11.197449,0.26330042,-1.5845897
-9.502751,-2.3792782000000003,-0.3398969
-9.502751,-2.3792782000000003,-0.3398969
-9.502751,-2.3792782000000003,-0.3398969
-11.331491999999999,-1.1250108,-0.39734426
-11.331491999999999,-1.1250108,-0.39734426
-11.331491999999999,-1.1250108,-0.39734426
-11.331491999999999,-1.1250108,-0.39734426
-12.432567,-0.78990126,-1.4888442
-12.432567,-0.78990126,-1.4888442
-12.432567,-0.78990126,-1.4888442
-12.432567,-0.78990126,-1.4888442
-8.286782,-2.1782124,0.6845810999999999
-8.286782,-2.1782124,0.6845810999999999
-8.286782,-2.1782124,0.6845810999999999
-8.286782,-2.1782124,0.6845810999999999
-7.9133744,-1.948423,0.09095833
-7.9133744,-1.948423,0.09095833
-7.9133744,-1.948423,0.09095833
-7.9133744,-1.948423,0.09095833
-9.426155,-2.905879,-0.12925656
-9.426155,-2.905879,-0.12925656
-9.426155,-2.905879,-0.12925656
-9.426155,-2.905879,-0.12925656
-11.072979,-3.9112080000000002,0.49308985
-11.072979,-3.9112080000000002,0.49308985
-11.072979,-3.9112080000000002,0.49308985
-11.072979,-3.9112080000000002,0.49308985
-14.060242,-5.261221,0.27287498
-14.060242,-5.261221,0.27287498
-14.060242,-5.261221,0.27287498
-14.060242,-5.261221,0.27287498
-12.930444,-3.7005677,0.3877697
-12.930444,-3.7005677,0.3877697
-12.930444,-3.7005677,0.3877697
-11.580430999999999,-2.4175766,-0.14840569
-11.580430999999999,-2.4175766,-0.14840569
-11.580430999999999,-2.4175766,-0.14840569
-11.580430999999999,-2.4175766,-0.14840569
-11.580430999999999,-2.4175766,-0.14840569
-15.438979000000002,-2.4175766,-1.9196993000000002
-15.438979000000002,-2.4175766,-1.9196993000000002
-15.438979000000002,-2.4175766,-1.9196993000000002
-12.46129,-1.9962958,-0.45479164
-12.46129,-1.9962958,-0.45479164
-12.46129,-1.9962958,-0.45479164
-12.46129,-1.9962958,-0.45479164
-8.870830999999999,-0.54096264,-0.512239
-8.870830999999999,-0.54096264,-0.512239
-8.870830999999999,-0.54096264,-0.512239
-8.870830999999999,-0.54096264,-0.512239
-7.2623043,0.25372586,-1.5079931999999998
-7.2623043,0.25372586,-1.5079931999999998
-7.2623043,0.25372586,-1.5079931999999998
-7.2623043,0.25372586,-1.5079931999999998
-6.7740016,-0.30159867,-1.4026731000000001
-6.7740016,-0.30159867,-1.4026731000000001
-6.7740016,-0.30159867,-1.4026731000000001
-6.7740016,-0.30159867,-1.4026731000000001
-9.512326,-1.2303311000000001,-1.0675635
-9.512326,-1.2303311000000001,-1.0675635
-9.512326,-1.2303311000000001,-1.0675635
-9.512326,-1.2303311000000001,-1.0675635
-10.546378,-0.0718092,-1.5845897
-10.546378,-0.0718092,-1.5845897
-10.546378,-0.0718092,-1.5845897
-10.546378,-0.0718092,-1.5845897
-9.933606,-2.9441773999999996,-0.46436617
-9.933606,-2.9441773999999996,-0.46436617
-9.933606,-2.9441773999999996,-0.46436617
-9.933606,-2.9441773999999996,-0.46436617
-12.116607,-2.168638,-0.8090504
-12.116607,-2.168638,-0.8090504
-12.116607,-2.168638,-0.8090504
-12.116607,-2.168638,-0.8090504
-14.347479000000002,-1.8239537000000001,-0.7324539000000001
-14.347479000000002,-1.8239537000000001,-0.7324539000000001
-14.347479000000002,-1.8239537000000001,-0.7324539000000001
-14.347479000000002,-1.8239537000000001,-0.7324539000000001
-8.171887,-2.561195,1.383524
-8.171887,-2.561195,1.383524
-8.171887,-2.561195,1.383524
-8.171887,-2.561195,1.383524
-7.5303917,-2.7718353,0.25372586
-7.5303917,-2.7718353,0.25372586
-7.5303917,-2.7718353,0.25372586
-7.5303917,-2.7718353,0.25372586
-8.669764500000001,-3.2026904,0.23457673
-8.669764500000001,-3.2026904,0.23457673
-8.669764500000001,-3.2026904,0.23457673
-8.669764500000001,-3.2026904,0.23457673
-12.327247,-3.9207826,0.7420284
-12.327247,-3.9207826,0.7420284
-12.327247,-3.9207826,0.7420284
-12.327247,-3.9207826,0.7420284
-15.161317000000002,-4.6388745,0.30159867
-15.161317000000002,-4.6388745,0.30159867
-15.161317000000002,-4.6388745,0.30159867
-15.161317000000002,-4.6388745,0.30159867
-13.782579,-4.3324885,0.45479164
-13.782579,-4.3324885,0.45479164
-13.782579,-4.3324885,0.45479164
-9.924032,-3.5952474999999997,-0.36862057
-9.924032,-3.5952474999999997,-0.36862057
-9.924032,-3.5952474999999997,-0.36862057
-9.924032,-3.5952474999999997,-0.36862057
-12.518738,-2.427151,-0.751603
-12.518738,-2.427151,-0.751603
-12.518738,-2.427151,-0.751603
-12.518738,-2.427151,-0.751603
-10.82404,-1.1250108,-0.3398969
-10.82404,-1.1250108,-0.3398969
-10.82404,-1.1250108,-0.3398969
-10.82404,-1.1250108,-0.3398969
-9.560199,-0.43564250000000004,-0.93351966
-9.560199,-0.43564250000000004,-0.93351966
-9.560199,-0.43564250000000004,-0.93351966
-9.560199,-0.43564250000000004,-0.93351966
-7.8367777,-0.11968201,-1.2494801000000002
-7.8367777,-0.11968201,-1.2494801000000002
-7.8367777,-0.11968201,-1.2494801000000002
-7.8367777,-0.11968201,-1.2494801000000002
-6.630383,-0.6079846,-1.2590546999999999
-6.630383,-0.6079846,-1.2590546999999999
-6.630383,-0.6079846,-1.2590546999999999
-6.630383,-0.6079846,-1.2590546999999999
-9.636795,-0.40691882,-1.6228879999999999
-9.636795,-0.40691882,-1.6228879999999999
-9.636795,-0.40691882,-1.6228879999999999
-9.636795,-0.40691882,-1.6228879999999999
-11.570856,-0.7420284,-1.9005502
-11.570856,-0.7420284,-1.9005502
-11.570856,-0.7420284,-1.9005502
-11.570856,-0.7420284,-1.9005502
-10.862339,-4.045252,0.56011176
-10.862339,-4.045252,0.56011176
-10.862339,-4.045252,0.56011176
-10.862339,-4.045252,0.56011176
-11.953838000000001,-1.1920328000000002,-1.0771381000000002
-11.953838000000001,-1.1920328000000002,-1.0771381000000002
-11.953838000000001,-1.1920328000000002,-1.0771381000000002
-11.953838000000001,-1.1920328000000002,-1.0771381000000002
-12.231501,0.023936402000000002,-0.14840569
-12.231501,0.023936402000000002,-0.14840569
-12.231501,0.023936402000000002,-0.14840569
-12.231501,0.023936402000000002,-0.14840569
-7.319751299999999,-2.0250196,0.70373017
-7.319751299999999,-2.0250196,0.70373017
-7.319751299999999,-2.0250196,0.70373017
-7.319751299999999,-2.0250196,0.70373017
-8.200611,-2.2931072999999995,-0.49308985
-8.200611,-2.2931072999999995,-0.49308985
-8.200611,-2.2931072999999995,-0.49308985
-8.200611,-2.2931072999999995,-0.49308985
-9.952755999999999,-3.6143966,-0.2920241
-9.952755999999999,-3.6143966,-0.2920241
-9.952755999999999,-3.6143966,-0.2920241
-11.618729,-4.8973875,0.46436617
-11.618729,-4.8973875,0.46436617
-11.618729,-4.8973875,0.46436617
-11.618729,-4.8973875,0.46436617
-11.618729,-4.8973875,0.46436617
-13.141085,-3.9399316,-0.16755481
-13.141085,-3.9399316,-0.16755481
-13.141085,-3.9399316,-0.16755481
-14.175137,-4.342063,0.28244954
-14.175137,-4.342063,0.28244954
-14.175137,-4.342063,0.28244954
-14.175137,-4.342063,0.28244954
-11.810221,-3.6814184,-1.3260766000000002
-11.810221,-3.6814184,-1.3260766000000002
-11.810221,-3.6814184,-1.3260766000000002
-11.810221,-3.6814184,-1.3260766000000002
-13.782579,-2.0441686999999997,-1.1154363
-13.782579,-2.0441686999999997,-1.1154363
-13.782579,-2.0441686999999997,-1.1154363
-13.782579,-2.0441686999999997,-1.1154363
-11.781497,-0.40691882,-0.6750065
-11.781497,-0.40691882,-0.6750065
-11.781497,-0.40691882,-0.6750065
-11.781497,-0.40691882,-0.6750065
-9.780414,-0.043085523,-1.1250108
-9.780414,-0.043085523,-1.1250108
-9.780414,-0.043085523,-1.1250108
-9.780414,-0.043085523,-1.1250108
-7.434646000000001,0.33032233,-1.1920328000000002
-7.434646000000001,0.33032233,-1.1920328000000002
-7.434646000000001,0.33032233,-1.1920328000000002
-7.434646000000001,0.33032233,-1.1920328000000002
-6.649532300000001,-0.64628285,-1.3356511999999998
-6.649532300000001,-0.64628285,-1.3356511999999998
-6.649532300000001,-0.64628285,-1.3356511999999998
-8.880403999999999,-1.0867126,-1.9579976000000003
-8.880403999999999,-1.0867126,-1.9579976000000003
-8.880403999999999,-1.0867126,-1.9579976000000003
-8.880403999999999,-1.0867126,-1.9579976000000003
-11.417664,-1.1250108,-1.709059
-11.417664,-1.1250108,-1.709059
-11.417664,-1.1250108,-1.709059
-11.417664,-1.1250108,-1.709059
-10.776167999999998,-3.3750327000000007,0.49308985
-10.776167999999998,-3.3750327000000007,0.49308985
-10.776167999999998,-3.3750327000000007,0.49308985
-10.776167999999998,-3.3750327000000007,0.49308985
-12.968742,-1.2494801000000002,-1.6803354
-12.968742,-1.2494801000000002,-1.6803354
-12.968742,-1.2494801000000002,-1.6803354
-12.968742,-1.2494801000000002,-1.6803354
-13.00704,-0.32074776,-1.0005416
-13.00704,-0.32074776,-1.0005416
-13.00704,-0.32074776,-1.0005416
-13.00704,-0.32074776,-1.0005416
-8.459125,-2.5037475,0.33032233
-8.459125,-2.5037475,0.33032233
-8.459125,-2.5037475,0.33032233
-8.181462,-2.8197080000000003,-0.2920241
-8.181462,-2.8197080000000003,-0.2920241
-8.181462,-2.8197080000000003,-0.2920241
-8.181462,-2.8197080000000003,-0.2920241
-8.181462,-2.8197080000000003,-0.2920241
-9.713391,-3.1260939999999997,0.081383765
-9.713391,-3.1260939999999997,0.081383765
-9.713391,-3.1260939999999997,0.081383765
-11.503835,-4.868664,1.0388398
-11.503835,-4.868664,1.0388398
-11.503835,-4.868664,1.0388398
-11.503835,-4.868664,1.0388398
-12.260224000000001,-4.3133397,0.40691882
-12.260224000000001,-4.3133397,0.40691882
-12.260224000000001,-4.3133397,0.40691882
-12.260224000000001,-4.3133397,0.40691882
-14.127264000000002,-4.121848,0.14840569
-14.127264000000002,-4.121848,0.14840569
-14.127264000000002,-4.121848,0.14840569
-14.127264000000002,-4.121848,0.14840569
-12.394267999999999,-3.8154623999999995,-1.1633091
-12.394267999999999,-3.8154623999999995,-1.1633091
-12.394267999999999,-3.8154623999999995,-1.1633091
-12.394267999999999,-3.8154623999999995,-1.1633091
-14.261307999999998,-2.513322,-1.1250108
-14.261307999999998,-2.513322,-1.1250108
-14.261307999999998,-2.513322,-1.1250108
-14.261307999999998,-2.513322,-1.1250108
-12.777251,-0.43564250000000004,-0.7994758000000001
-12.777251,-0.43564250000000004,-0.7994758000000001
-12.777251,-0.43564250000000004,-0.7994758000000001
-12.777251,-0.43564250000000004,-0.7994758000000001
-10.278291000000001,0.39734426,-1.4984187
-10.278291000000001,0.39734426,-1.4984187
-10.278291000000001,0.39734426,-1.4984187
-7.329325999999999,-0.081383765,-1.4122477
-7.329325999999999,-0.081383765,-1.4122477
-7.329325999999999,-0.081383765,-1.4122477
-7.329325999999999,-0.081383765,-1.4122477
-7.329325999999999,-0.081383765,-1.4122477
-6.1899533,-0.49308985,-1.2877783999999999
-6.1899533,-0.49308985,-1.2877783999999999
-6.1899533,-0.49308985,-1.2877783999999999
-9.2825365,-0.023936402000000002,-1.6707608
-9.2825365,-0.023936402000000002,-1.6707608
-9.2825365,-0.023936402000000002,-1.6707608
-9.2825365,-0.023936402000000002,-1.6707608
-11.207023,0.014361841,-1.4601203999999999
-11.207023,0.014361841,-1.4601203999999999
-11.207023,0.014361841,-1.4601203999999999
-11.207023,0.014361841,-1.4601203999999999
-10.498505999999999,-2.101616,-0.751603
-10.498505999999999,-2.101616,-0.751603
-10.498505999999999,-2.101616,-0.751603
-10.498505999999999,-2.101616,-0.751603
-12.46129,-2.6760897999999997,-0.7420284
-12.46129,-2.6760897999999997,-0.7420284
-12.46129,-2.6760897999999997,-0.7420284
-12.46129,-2.6760897999999997,-0.7420284
-13.447470000000001,-1.3739493999999999,-1.14416
-13.447470000000001,-1.3739493999999999,-1.14416
-13.447470000000001,-1.3739493999999999,-1.14416
-13.447470000000001,-1.3739493999999999,-1.14416
-10.287866000000001,-1.2207563999999997,0.33032233
-10.287866000000001,-1.2207563999999997,0.33032233
-10.287866000000001,-1.2207563999999997,0.33032233
-9.799562,-2.5994933,-0.3398969
-9.799562,-2.5994933,-0.3398969
-9.799562,-2.5994933,-0.3398969
-9.799562,-2.5994933,-0.3398969
-10.010203,-3.5473747,-0.2441513
-10.010203,-3.5473747,-0.2441513
-10.010203,-3.5473747,-0.2441513
-10.010203,-3.5473747,-0.2441513
-11.781497,-5.1846247000000005,0.12925656
-11.781497,-5.1846247000000005,0.12925656
-11.781497,-5.1846247000000005,0.12925656
-11.781497,-5.1846247000000005,0.12925656
-12.145328999999998,-5.730374299999999,0.043085523
-12.145328999999998,-5.730374299999999,0.043085523
-12.145328999999998,-5.730374299999999,0.043085523
-12.145328999999998,-5.730374299999999,0.043085523
-12.375119,-4.3803616,0.5888355
-12.375119,-4.3803616,0.5888355
-12.375119,-4.3803616,0.5888355
-12.375119,-4.3803616,0.5888355
-13.533641000000001,-3.6431203,-1.7186337
-13.533641000000001,-3.6431203,-1.7186337
-13.533641000000001,-3.6431203,-1.7186337
-16.338987,-2.254809,-1.4026731000000001
-16.338987,-2.254809,-1.4026731000000001
-16.338987,-2.254809,-1.4026731000000001
-16.338987,-2.254809,-1.4026731000000001
-13.485767999999998,-0.5313880999999999,-0.99096704
-13.485767999999998,-0.5313880999999999,-0.99096704
-13.485767999999998,-0.5313880999999999,-0.99096704
-13.485767999999998,-0.5313880999999999,-0.99096704
-10.172971,0.64628285,-1.6994845
-10.172971,0.64628285,-1.6994845
-10.172971,0.64628285,-1.6994845
-10.172971,0.64628285,-1.6994845
-6.9654926999999995,0.46436617,-1.0867126
-6.9654926999999995,0.46436617,-1.0867126
-6.9654926999999995,0.46436617,-1.0867126
-6.9654926999999995,0.46436617,-1.0867126
-7.1091112999999995,-0.26330042,-1.4122477
-7.1091112999999995,-0.26330042,-1.4122477
-7.1091112999999995,-0.26330042,-1.4122477
-8.947427000000001,0.54096264,-1.8335283
-8.947427000000001,0.54096264,-1.8335283
-8.947427000000001,0.54096264,-1.8335283
-8.947427000000001,0.54096264,-1.8335283
-10.287866000000001,-0.26330042,-1.5079931999999998
-10.287866000000001,-0.26330042,-1.5079931999999998
-10.287866000000001,-0.26330042,-1.5079931999999998
-10.287866000000001,-0.26330042,-1.5079931999999998
-11.475111,-2.101616,-0.99096704
-11.475111,-2.101616,-0.99096704
-11.475111,-2.101616,-0.99096704
-11.475111,-2.101616,-0.99096704
-14.605992,-1.9005502,-1.1824582000000001
-14.605992,-1.9005502,-1.1824582000000001
-14.605992,-1.9005502,-1.1824582000000001
-14.605992,-1.9005502,-1.1824582000000001
-12.087883,-1.2877783999999999,-0.76117754
-12.087883,-1.2877783999999999,-0.76117754
-12.087883,-1.2877783999999999,-0.76117754
-12.087883,-1.2877783999999999,-0.76117754
-9.780414,-1.7186337,-0.081383765
-9.780414,-1.7186337,-0.081383765
-9.780414,-1.7186337,-0.081383765
-9.780414,-1.7186337,-0.081383765
-11.254896,-3.0111992,-0.99096704
-11.254896,-3.0111992,-0.99096704
-11.254896,-3.0111992,-0.99096704
-11.254896,-3.0111992,-0.99096704
-11.484685,-4.1122737,-0.11968201
-11.484685,-4.1122737,-0.11968201
-11.484685,-4.1122737,-0.11968201
-11.637878,-5.6633525,0.3398969
-11.637878,-5.6633525,0.3398969
-11.637878,-5.6633525,0.3398969
-11.637878,-5.6633525,0.3398969
-12.786825,-5.4431376,0.37819514
-12.786825,-5.4431376,0.37819514
-12.786825,-5.4431376,0.37819514
-12.786825,-5.4431376,0.37819514
-12.7964,-5.1271772,-0.37819514
-12.7964,-5.1271772,-0.37819514
-12.7964,-5.1271772,-0.37819514
-12.7964,-5.1271772,-0.37819514
-14.251732999999998,-3.0207740000000003,-0.8664976999999999
-14.251732999999998,-3.0207740000000003,-0.8664976999999999
-14.251732999999998,-3.0207740000000003,-0.8664976999999999
-14.251732999999998,-3.0207740000000003,-0.8664976999999999
-15.180466000000001,-1.383524,-1.0579889
-15.180466000000001,-1.383524,-1.0579889
-15.180466000000001,-1.383524,-1.0579889
-15.180466000000001,-1.383524,-1.0579889
-13.227255,-0.19627848,-1.6899098999999997
-13.227255,-0.19627848,-1.6899098999999997
-13.227255,-0.19627848,-1.6899098999999997
-13.227255,-0.19627848,-1.6899098999999997
-10.40276,0.83777404,-1.6516117
-10.40276,0.83777404,-1.6516117
-10.40276,0.83777404,-1.6516117
-7.243155000000001,0.11968201,-0.9526688
-7.243155000000001,0.11968201,-0.9526688
-7.243155000000001,0.11968201,-0.9526688
-7.243155000000001,0.11968201,-0.9526688
-7.243155000000001,0.11968201,-0.9526688
-7.3389006,-0.7324539000000001,-1.5271424
-7.3389006,-0.7324539000000001,-1.5271424
-7.3389006,-0.7324539000000001,-1.5271424
-9.100619,0.16755481,-1.8239537000000001
-9.100619,0.16755481,-1.8239537000000001
-9.100619,0.16755481,-1.8239537000000001
-9.100619,0.16755481,-1.8239537000000001
-11.321918,-0.16755481,-1.1824582000000001
-11.321918,-0.16755481,-1.1824582000000001
-11.321918,-0.16755481,-1.1824582000000001
-11.321918,-0.16755481,-1.1824582000000001
-11.446387,-2.7239625,0.359046
-11.446387,-2.7239625,0.359046
-11.446387,-2.7239625,0.359046
-11.446387,-2.7239625,0.359046
-13.591088000000001,-0.78032666,-0.8090504
-13.591088000000001,-0.78032666,-0.8090504
-13.591088000000001,-0.78032666,-0.8090504
-13.591088000000001,-0.78032666,-0.8090504
-11.082554,-0.44521707,-0.023936402000000002
-11.082554,-0.44521707,-0.023936402000000002
-11.082554,-0.44521707,-0.023936402000000002
-11.082554,-0.44521707,-0.023936402000000002
-10.249566999999999,-2.0537431,-0.33032233
-10.249566999999999,-2.0537431,-0.33032233
-10.249566999999999,-2.0537431,-0.33032233
-10.249566999999999,-2.0537431,-0.33032233
-10.871913000000001,-3.3367343000000003,-0.64628285
-10.871913000000001,-3.3367343000000003,-0.64628285
-10.871913000000001,-3.3367343000000003,-0.64628285
-11.187874,-3.8250370000000005,0.0
-11.187874,-3.8250370000000005,0.0
-11.187874,-3.8250370000000005,0.0
-11.187874,-3.8250370000000005,0.0
-12.001712,-5.06973,0.56968635
-12.001712,-5.06973,0.56968635
-12.001712,-5.06973,0.56968635
-12.001712,-5.06973,0.56968635
-12.614484,-6.151655,1.0484143
-12.614484,-6.151655,1.0484143
-12.614484,-6.151655,1.0484143
-12.614484,-6.151655,1.0484143
-11.130426,-4.954835,0.61755913
-11.130426,-4.954835,0.61755913
-11.130426,-4.954835,0.61755913
-11.130426,-4.954835,0.61755913
-14.66344,-3.3654580000000003,0.39734426
-14.66344,-3.3654580000000003,0.39734426
-14.66344,-3.3654580000000003,0.39734426
-14.66344,-3.3654580000000003,0.39734426
-15.094295,-1.6420371999999999,0.081383765
-15.094295,-1.6420371999999999,0.081383765
-15.094295,-1.6420371999999999,0.081383765
-12.920869,-0.26330042,-1.1633091
-12.920869,-0.26330042,-1.1633091
-12.920869,-0.26330042,-1.1633091
-12.920869,-0.26330042,-1.1633091
-9.684667999999999,0.09095833,-1.0962871
-9.684667999999999,0.09095833,-1.0962871
-9.684667999999999,0.09095833,-1.0962871
-9.684667999999999,0.09095833,-1.0962871
-7.2048570000000005,0.10053288,-1.1250108
-7.2048570000000005,0.10053288,-1.1250108
-7.2048570000000005,0.10053288,-1.1250108
-7.2048570000000005,0.10053288,-1.1250108
-8.985725,0.3877697,-1.6803354
-8.985725,0.3877697,-1.6803354
-8.985725,0.3877697,-1.6803354
-8.985725,0.3877697,-1.6803354
-10.383611,1.7952299999999999,-2.494173
-10.383611,1.7952299999999999,-2.494173
-10.383611,1.7952299999999999,-2.494173
-10.383611,1.7952299999999999,-2.494173
-10.843189,-2.6952388,-1.3739493999999999
-10.843189,-2.6952388,-1.3739493999999999
-10.843189,-2.6952388,-1.3739493999999999
-10.843189,-2.6952388,-1.3739493999999999
-10.958084,-0.6271336999999999,-0.98139244
-10.958084,-0.6271336999999999,-0.98139244
-10.958084,-0.6271336999999999,-0.98139244
-14.050668,-0.014361841,-1.3643749
-14.050668,-0.014361841,-1.3643749
-14.050668,-0.014361841,-1.3643749
-14.050668,-0.014361841,-1.3643749
-14.050668,-0.014361841,-1.3643749
-10.0868,-2.513322,0.7324539000000001
-10.0868,-2.513322,0.7324539000000001
-10.0868,-2.513322,0.7324539000000001
-9.158066999999999,-2.034594,-0.359046
-9.158066999999999,-2.034594,-0.359046
-9.158066999999999,-2.034594,-0.359046
-9.158066999999999,-2.034594,-0.359046
-10.594251,-2.5228968,-0.63670826
-10.594251,-2.5228968,-0.63670826
-10.594251,-2.5228968,-0.63670826
-10.594251,-2.5228968,-0.63670826
-11.513409,-3.4899273,0.8473485999999999
-11.513409,-3.4899273,0.8473485999999999
-11.513409,-3.4899273,0.8473485999999999
-11.513409,-3.4899273,0.8473485999999999
-11.475111,-4.9739842,1.3069274
-11.475111,-4.9739842,1.3069274
-11.475111,-4.9739842,1.3069274
-11.475111,-4.9739842,1.3069274
-14.337904,-4.811217,0.37819514
-14.337904,-4.811217,0.37819514
-14.337904,-4.811217,0.37819514
-14.337904,-4.811217,0.37819514
-11.063405,-4.782493,-0.20585304
-11.063405,-4.782493,-0.20585304
-11.063405,-4.782493,-0.20585304
-11.063405,-4.782493,-0.20585304
-13.849601999999999,-2.752686,-1.1250108
-13.849601999999999,-2.752686,-1.1250108
-13.849601999999999,-2.752686,-1.1250108
-16.540052,-0.9622433000000001,-1.6037389
-16.540052,-0.9622433000000001,-1.6037389
-16.540052,-0.9622433000000001,-1.6037389
-16.540052,-0.9622433000000001,-1.6037389
-12.480439,0.37819514,-1.2303311000000001
-12.480439,0.37819514,-1.2303311000000001
-12.480439,0.37819514,-1.2303311000000001
-12.480439,0.37819514,-1.2303311000000001
-8.861256,0.6845810999999999,-1.6611862000000002
-8.861256,0.6845810999999999,-1.6611862000000002
-8.861256,0.6845810999999999,-1.6611862000000002
-8.861256,0.6845810999999999,-1.6611862000000002
-6.3814445,-0.3877697,-1.2590546999999999
-6.3814445,-0.3877697,-1.2590546999999999
-6.3814445,-0.3877697,-1.2590546999999999
-6.3814445,-0.3877697,-1.2590546999999999
-7.970821400000001,0.0718092,-1.4984187
-7.970821400000001,0.0718092,-1.4984187
-7.970821400000001,0.0718092,-1.4984187
-7.970821400000001,0.0718092,-1.4984187
-9.952755999999999,0.54096264,-1.6420371999999999
-9.952755999999999,0.54096264,-1.6420371999999999
-9.952755999999999,0.54096264,-1.6420371999999999
-9.952755999999999,0.54096264,-1.6420371999999999
-11.26447,-0.9622433000000001,-1.4218222
-11.26447,-0.9622433000000001,-1.4218222
-11.26447,-0.9622433000000001,-1.4218222
-11.26447,-0.9622433000000001,-1.4218222
-11.647452000000001,-2.2739582,-0.3877697
-11.647452000000001,-2.2739582,-0.3877697
-11.647452000000001,-2.2739582,-0.3877697
-14.902803,-1.2016073,-1.7856555
-14.902803,-1.2016073,-1.7856555
-14.902803,-1.2016073,-1.7856555
-14.902803,-1.2016073,-1.7856555
-12.67193,-1.6133133999999998,-0.40691882
-12.67193,-1.6133133999999998,-0.40691882
-12.67193,-1.6133133999999998,-0.40691882
-12.67193,-1.6133133999999998,-0.40691882
-11.216598,-2.5228968,-0.023936402000000002
-11.216598,-2.5228968,-0.023936402000000002
-11.216598,-2.5228968,-0.023936402000000002
-11.216598,-2.5228968,-0.023936402000000002
-10.852764,-3.7292912000000005,-0.09095833
-10.852764,-3.7292912000000005,-0.09095833
-10.852764,-3.7292912000000005,-0.09095833
-10.852764,-3.7292912000000005,-0.09095833
-10.259142,-4.303765,0.6079846
-10.259142,-4.303765,0.6079846
-10.259142,-4.303765,0.6079846
-10.259142,-4.303765,0.6079846
-10.498505999999999,-5.835694999999999,0.92394507
-10.498505999999999,-5.835694999999999,0.92394507
-10.498505999999999,-5.835694999999999,0.92394507
-10.498505999999999,-5.835694999999999,0.92394507
-13.418745999999999,-5.347392,0.8952214
-13.418745999999999,-5.347392,0.8952214
-13.418745999999999,-5.347392,0.8952214
-13.753855999999999,-3.518651,-0.7420284
-13.753855999999999,-3.518651,-0.7420284
-13.753855999999999,-3.518651,-0.7420284
-13.753855999999999,-3.518651,-0.7420284
-17.602829,-2.8388572,-1.4792696
-17.602829,-2.8388572,-1.4792696
-17.602829,-2.8388572,-1.4792696
-17.602829,-2.8388572,-1.4792696
-16.520905,-1.0962871,-1.6994845
-16.520905,-1.0962871,-1.6994845
-16.520905,-1.0962871,-1.6994845
-16.520905,-1.0962871,-1.6994845
-13.457045,0.00478728,-2.1877869999999997
-13.457045,0.00478728,-2.1877869999999997
-13.457045,0.00478728,-2.1877869999999997
-13.457045,0.00478728,-2.1877869999999997
-10.766592999999999,0.6079846,-2.1111906000000005
-10.766592999999999,0.6079846,-2.1111906000000005
-10.766592999999999,0.6079846,-2.1111906000000005
-10.766592999999999,0.6079846,-2.1111906000000005
-6.611234,0.33032233,-1.4792696
-6.611234,0.33032233,-1.4792696
-6.611234,0.33032233,-1.4792696
-6.611234,0.33032233,-1.4792696
-6.2282515,0.2920241,-1.9962958
-6.2282515,0.2920241,-1.9962958
-6.2282515,0.2920241,-1.9962958
-7.195282000000001,0.32074776,-1.6420371999999999
-7.195282000000001,0.32074776,-1.6420371999999999
-7.195282000000001,0.32074776,-1.6420371999999999
-7.195282000000001,0.32074776,-1.6420371999999999
-7.195282000000001,0.32074776,-1.6420371999999999
-10.182545,-1.1920328000000002,-0.91437054
-10.182545,-1.1920328000000002,-0.91437054
-10.182545,-1.1920328000000002,-0.91437054
-13.045339,-1.8239537000000001,-0.56968635
-13.045339,-1.8239537000000001,-0.56968635
-13.045339,-1.8239537000000001,-0.56968635
-13.045339,-1.8239537000000001,-0.56968635
