accx,accy,accz
11.1208515,-0.0718092,4.0931244
11.1208515,-0.0718092,4.0931244
11.1208515,-0.0718092,4.0931244
13.323001000000001,-2.8580062,3.2697124
13.323001000000001,-2.8580062,3.2697124
13.323001000000001,-2.8580062,3.2697124
13.323001000000001,-2.8580062,3.2697124
11.331491999999999,-4.8207912,3.5952474999999997
11.331491999999999,-4.8207912,3.5952474999999997
11.331491999999999,-4.8207912,3.5952474999999997
10.316589,-3.3271596,3.7484405
10.316589,-3.3271596,3.7484405
10.316589,-3.3271596,3.7484405
10.316589,-3.3271596,3.7484405
10.316589,-3.3271596,3.7484405
9.464453,-2.4558747000000003,3.3941817000000003
9.464453,-2.4558747000000003,3.3941817000000003
9.464453,-2.4558747000000003,3.3941817000000003
9.464453,-2.4558747000000003,3.3941817000000003
9.445304,-2.0920415,2.8101335
9.445304,-2.0920415,2.8101335
9.445304,-2.0920415,2.8101335
9.617646,-2.0633178,2.3792782000000003
9.617646,-2.0633178,2.3792782000000003
9.617646,-2.0633178,2.3792782000000003
9.617646,-2.0633178,2.3792782000000003
9.617646,-2.0633178,2.3792782000000003
9.933606,-1.6707608,2.3026817000000004
9.933606,-1.6707608,2.3026817000000004
9.933606,-1.6707608,2.3026817000000004
9.933606,-1.6707608,2.3026817000000004
9.742115,-1.1154363,2.5324712000000003
9.742115,-1.1154363,2.5324712000000003
9.742115,-1.1154363,2.5324712000000003
9.655944,-0.91437054,2.2835326
9.655944,-0.91437054,2.2835326
9.655944,-0.91437054,2.2835326
9.655944,-0.91437054,2.2835326
9.655944,-0.91437054,2.2835326
9.732541000000001,-1.383524,2.1399142999999996
9.732541000000001,-1.383524,2.1399142999999996
9.732541000000001,-1.383524,2.1399142999999996
9.579348,-1.2207563999999997,2.2356597999999996
9.579348,-1.2207563999999997,2.2356597999999996
9.579348,-1.2207563999999997,2.2356597999999996
9.579348,-1.2207563999999997,2.2356597999999996
9.742115,-1.2590546999999999,2.2356597999999996
9.742115,-1.2590546999999999,2.2356597999999996
9.742115,-1.2590546999999999,2.2356597999999996
9.742115,-1.2590546999999999,2.2356597999999996
9.761265,-1.3643749,2.1207652
9.761265,-1.3643749,2.1207652
9.761265,-1.3643749,2.1207652
9.761265,-1.3643749,2.1207652
9.665519,-1.5845897,1.9675721999999998
9.665519,-1.5845897,1.9675721999999998
9.665519,-1.5845897,1.9675721999999998
9.665519,-1.5845897,1.9675721999999998
9.426155,-1.0005416,2.3792782000000003
9.426155,-1.0005416,2.3792782000000003
9.426155,-1.0005416,2.3792782000000003
9.426155,-1.0005416,2.3792782000000003
9.560199,-1.4026731000000001,2.360129
9.560199,-1.4026731000000001,2.360129
9.560199,-1.4026731000000001,2.360129
9.560199,-1.4026731000000001,2.360129
9.560199,-1.4026731000000001,2.360129
9.8953085,-1.383524,2.4463003
9.8953085,-1.383524,2.4463003
9.8953085,-1.383524,2.4463003
9.732541000000001,-1.5175678999999997,2.3888528
9.732541000000001,-1.5175678999999997,2.3888528
9.732541000000001,-1.5175678999999997,2.3888528
9.732541000000001,-1.5175678999999997,2.3888528
9.531475,-1.2303311000000001,2.3792782000000003
9.531475,-1.2303311000000001,2.3792782000000003
9.531475,-1.2303311000000001,2.3792782000000003
9.531475,-1.2303311000000001,2.3792782000000003
9.636795,-1.5462915000000002,2.2835326
9.636795,-1.5462915000000002,2.2835326
9.636795,-1.5462915000000002,2.2835326
9.636795,-1.5462915000000002,2.2835326
9.636795,-1.2686293,2.4750240000000003
9.636795,-1.2686293,2.4750240000000003
9.636795,-1.2686293,2.4750240000000003
9.636795,-1.2686293,2.4750240000000003
9.531475,-1.3260766000000002,2.3505547000000004
9.531475,-1.3260766000000002,2.3505547000000004
9.531475,-1.3260766000000002,2.3505547000000004
9.531475,-1.3260766000000002,2.3505547000000004
9.655944,-1.3260766000000002,2.3505547000000004
9.655944,-1.3260766000000002,2.3505547000000004
9.655944,-1.3260766000000002,2.3505547000000004
9.655944,-1.3260766000000002,2.3505547000000004
9.665519,-1.2686293,2.321831
9.665519,-1.2686293,2.321831
9.665519,-1.2686293,2.321831
9.665519,-1.2686293,2.321831
9.6942425,-1.2877783999999999,2.1973617
9.6942425,-1.2877783999999999,2.1973617
9.6942425,-1.2877783999999999,2.1973617
9.6942425,-1.2877783999999999,2.1973617
9.531475,-1.2877783999999999,2.254809
9.531475,-1.2877783999999999,2.254809
9.531475,-1.2877783999999999,2.254809
9.531475,-1.2877783999999999,2.254809
9.636795,-1.4984187,2.4175766
9.636795,-1.4984187,2.4175766
9.636795,-1.4984187,2.4175766
9.636795,-1.4984187,2.4175766
9.655944,-1.4313968000000001,2.6186423
9.655944,-1.4313968000000001,2.6186423
9.655944,-1.4313968000000001,2.6186423
9.655944,-1.4313968000000001,2.6186423
9.655944,-1.4313968000000001,2.6186423
9.3878565,-1.4026731000000001,2.5420458
9.3878565,-1.4026731000000001,2.5420458
9.3878565,-1.4026731000000001,2.5420458
9.617646,-1.4505458999999998,2.2165107999999996
9.617646,-1.4505458999999998,2.2165107999999996
9.617646,-1.4505458999999998,2.2165107999999996
9.617646,-1.4505458999999998,2.2165107999999996
9.722966,-1.4122477,2.1877869999999997
9.722966,-1.4122477,2.1877869999999997
9.722966,-1.4122477,2.1877869999999997
9.722966,-1.4122477,2.1877869999999997
9.483603,-1.6707608,2.2739582
9.483603,-1.6707608,2.2739582
9.483603,-1.6707608,2.2739582
9.483603,-1.6707608,2.2739582
9.703816999999999,-1.6420371999999999,2.3888528
9.703816999999999,-1.6420371999999999,2.3888528
9.703816999999999,-1.6420371999999999,2.3888528
9.703816999999999,-1.6420371999999999,2.3888528
9.675094,-1.6420371999999999,2.3792782000000003
9.675094,-1.6420371999999999,2.3792782000000003
9.675094,-1.6420371999999999,2.3792782000000003
9.675094,-1.6420371999999999,2.3792782000000003
9.713391,-1.3930986,2.4463003
9.713391,-1.3930986,2.4463003
9.713391,-1.3930986,2.4463003
9.713391,-1.3930986,2.4463003
9.675094,-1.5941644,2.2165107999999996
9.675094,-1.5941644,2.2165107999999996
9.675094,-1.5941644,2.2165107999999996
9.675094,-1.5941644,2.2165107999999996
9.655944,-1.2590546999999999,2.2260852000000004
9.655944,-1.2590546999999999,2.2260852000000004
9.655944,-1.2590546999999999,2.2260852000000004
9.655944,-1.2590546999999999,2.2260852000000004
9.684667999999999,-1.4409714,2.0728923999999997
9.684667999999999,-1.4409714,2.0728923999999997
9.684667999999999,-1.4409714,2.0728923999999997
9.684667999999999,-1.4409714,2.0728923999999997
9.684667999999999,-1.2877783999999999,2.254809
9.684667999999999,-1.2877783999999999,2.254809
9.684667999999999,-1.2877783999999999,2.254809
9.684667999999999,-1.2877783999999999,2.254809
9.636795,-1.4026731000000001,2.2356597999999996
9.636795,-1.4026731000000001,2.2356597999999996
9.636795,-1.4026731000000001,2.2356597999999996
9.636795,-1.4026731000000001,2.2356597999999996
9.665519,-1.3643749,2.2643836
9.665519,-1.3643749,2.2643836
9.665519,-1.3643749,2.2643836
9.665519,-1.3643749,2.2643836
9.665519,-1.4888442,2.1973617
9.665519,-1.4888442,2.1973617
9.665519,-1.4888442,2.1973617
9.684667999999999,-1.4505458999999998,2.2069361
9.684667999999999,-1.4505458999999998,2.2069361
9.684667999999999,-1.4505458999999998,2.2069361
9.684667999999999,-1.4505458999999998,2.2069361
9.684667999999999,-1.4505458999999998,2.2069361
9.722966,-1.469695,2.254809
9.722966,-1.469695,2.254809
9.722966,-1.469695,2.254809
9.722966,-1.469695,2.254809
9.598496,-1.3165021000000001,2.360129
9.598496,-1.3165021000000001,2.360129
9.598496,-1.3165021000000001,2.360129
9.598496,-1.3165021000000001,2.360129
9.732541000000001,-1.5271424,2.2452345
9.732541000000001,-1.5271424,2.2452345
9.732541000000001,-1.5271424,2.2452345
9.62722,-1.3643749,2.3026817000000004
9.62722,-1.3643749,2.3026817000000004
9.62722,-1.3643749,2.3026817000000004
9.62722,-1.3643749,2.3026817000000004
9.62722,-1.3643749,2.3026817000000004
9.617646,-1.4505458999999998,2.1207652
9.617646,-1.4505458999999998,2.1207652
9.617646,-1.4505458999999998,2.1207652
9.617646,-1.4505458999999998,2.1207652
9.579348,-1.3356511999999998,2.1111906000000005
9.579348,-1.3356511999999998,2.1111906000000005
9.579348,-1.3356511999999998,2.1111906000000005
9.5219,-1.5462915000000002,2.0441686999999997
9.5219,-1.5462915000000002,2.0441686999999997
9.5219,-1.5462915000000002,2.0441686999999997
9.5219,-1.5462915000000002,2.0441686999999997
9.5219,-1.5462915000000002,2.0441686999999997
9.703816999999999,-1.5558661,2.1399142999999996
9.703816999999999,-1.5558661,2.1399142999999996
9.703816999999999,-1.5558661,2.1399142999999996
9.703816999999999,-1.5558661,2.1399142999999996
9.62722,-1.5462915000000002,2.1877869999999997
9.62722,-1.5462915000000002,2.1877869999999997
9.62722,-1.5462915000000002,2.1877869999999997
9.6942425,-1.5367169,2.2356597999999996
9.6942425,-1.5367169,2.2356597999999996
9.6942425,-1.5367169,2.2356597999999996
9.6942425,-1.5367169,2.2356597999999996
9.6942425,-1.5367169,2.2356597999999996
9.703816999999999,-1.4984187,2.2643836
9.703816999999999,-1.4984187,2.2643836
9.703816999999999,-1.4984187,2.2643836
9.703816999999999,-1.4984187,2.2643836
9.655944,-1.5175678999999997,2.3314054
9.655944,-1.5175678999999997,2.3314054
9.655944,-1.5175678999999997,2.3314054
9.655944,-1.5175678999999997,2.3314054
9.703816999999999,-1.4409714,2.3505547000000004
9.703816999999999,-1.4409714,2.3505547000000004
9.703816999999999,-1.4409714,2.3505547000000004
9.703816999999999,-1.4409714,2.3505547000000004
9.684667999999999,-1.5462915000000002,2.168638
9.684667999999999,-1.5462915000000002,2.168638
9.684667999999999,-1.5462915000000002,2.168638
9.62722,-1.4984187,2.0824668
9.62722,-1.4984187,2.0824668
9.62722,-1.4984187,2.0824668
9.62722,-1.4984187,2.0824668
9.675094,-1.5558661,2.0728923999999997
9.675094,-1.5558661,2.0728923999999997
9.675094,-1.5558661,2.0728923999999997
9.675094,-1.5558661,2.0728923999999997
9.665519,-1.6420371999999999,2.149489
9.665519,-1.6420371999999999,2.149489
9.665519,-1.6420371999999999,2.149489
9.665519,-1.6420371999999999,2.149489
9.665519,-1.4313968000000001,2.1973617
9.665519,-1.4313968000000001,2.1973617
9.665519,-1.4313968000000001,2.1973617
9.665519,-1.4313968000000001,2.1973617
9.675094,-1.5367169,2.101616
9.675094,-1.5367169,2.101616
9.675094,-1.5367169,2.101616
9.675094,-1.5367169,2.101616
9.665519,-1.4313968000000001,2.2452345
9.665519,-1.4313968000000001,2.2452345
9.665519,-1.4313968000000001,2.2452345
9.665519,-1.4313968000000001,2.2452345
9.636795,-1.5271424,2.1877869999999997
9.636795,-1.5271424,2.1877869999999997
9.636795,-1.5271424,2.1877869999999997
9.636795,-1.5271424,2.1877869999999997
9.6942425,-1.5271424,2.254809
9.6942425,-1.5271424,2.254809
9.6942425,-1.5271424,2.254809
9.6942425,-1.5271424,2.254809
9.608071,-1.5941644,2.2165107999999996
9.608071,-1.5941644,2.2165107999999996
9.608071,-1.5941644,2.2165107999999996
9.608071,-1.5941644,2.2165107999999996
9.675094,-1.6133133999999998,2.2069361
9.675094,-1.6133133999999998,2.2069361
9.675094,-1.6133133999999998,2.2069361
9.64637,-1.6324625,2.1590632999999997
9.64637,-1.6324625,2.1590632999999997
9.64637,-1.6324625,2.1590632999999997
9.64637,-1.6324625,2.1590632999999997
9.64637,-1.6324625,2.1590632999999997
9.608071,-1.5654407,2.1303396
9.608071,-1.5654407,2.1303396
9.608071,-1.5654407,2.1303396
9.636795,-1.5941644,2.1590632999999997
9.636795,-1.5941644,2.1590632999999997
9.636795,-1.5941644,2.1590632999999997
9.636795,-1.5941644,2.1590632999999997
9.617646,-1.5271424,2.2165107999999996
9.617646,-1.5271424,2.2165107999999996
9.617646,-1.5271424,2.2165107999999996
9.617646,-1.5271424,2.2165107999999996
9.655944,-1.5845897,2.1590632999999997
9.655944,-1.5845897,2.1590632999999997
9.655944,-1.5845897,2.1590632999999997
9.655944,-1.5845897,2.1590632999999997
9.675094,-1.5367169,2.254809
9.675094,-1.5367169,2.254809
9.675094,-1.5367169,2.254809
9.675094,-1.5367169,2.254809
9.64637,-1.5175678999999997,2.2931072999999995
9.64637,-1.5175678999999997,2.2931072999999995
9.64637,-1.5175678999999997,2.2931072999999995
9.64637,-1.5175678999999997,2.2931072999999995
9.713391,-1.4888442,2.3026817000000004
9.713391,-1.4888442,2.3026817000000004
9.713391,-1.4888442,2.3026817000000004
9.713391,-1.4888442,2.3026817000000004
9.684667999999999,-1.5367169,2.2069361
9.684667999999999,-1.5367169,2.2069361
9.684667999999999,-1.5367169,2.2069361
9.684667999999999,-1.5367169,2.2069361
9.579348,-1.5271424,2.101616
9.579348,-1.5271424,2.101616
9.579348,-1.5271424,2.101616
9.579348,-1.5271424,2.101616
9.675094,-1.5845897,2.168638
9.675094,-1.5845897,2.168638
9.675094,-1.5845897,2.168638
9.675094,-1.5845897,2.168638
9.64637,-1.6803354,2.2452345
9.64637,-1.6803354,2.2452345
9.64637,-1.6803354,2.2452345
9.64637,-1.6803354,2.2452345
9.684667999999999,-1.6611862000000002,2.2835326
9.684667999999999,-1.6611862000000002,2.2835326
9.684667999999999,-1.6611862000000002,2.2835326
9.684667999999999,-1.6611862000000002,2.2835326
9.675094,-1.6707608,2.3026817000000004
9.675094,-1.6707608,2.3026817000000004
9.675094,-1.6707608,2.3026817000000004
9.675094,-1.6707608,2.3026817000000004
9.5889225,-1.5654407,2.2356597999999996
9.5889225,-1.5654407,2.2356597999999996
9.5889225,-1.5654407,2.2356597999999996
9.5889225,-1.5654407,2.2356597999999996
9.598496,-1.5654407,2.0537431
9.598496,-1.5654407,2.0537431
9.598496,-1.5654407,2.0537431
9.579348,-1.5558661,2.2452345
9.579348,-1.5558661,2.2452345
9.579348,-1.5558661,2.2452345
9.579348,-1.5558661,2.2452345
9.550624000000001,-1.5367169,2.168638
9.550624000000001,-1.5367169,2.168638
9.550624000000001,-1.5367169,2.168638
9.550624000000001,-1.5367169,2.168638
9.550624000000001,-1.5367169,2.168638
9.62722,-1.5271424,2.1399142999999996
9.62722,-1.5271424,2.1399142999999996
9.62722,-1.5271424,2.1399142999999996
9.5889225,-1.5845897,2.1590632999999997
9.5889225,-1.5845897,2.1590632999999997
9.5889225,-1.5845897,2.1590632999999997
9.5889225,-1.5845897,2.1590632999999997
9.5889225,-1.5845897,2.1590632999999997
9.6942425,-1.6420371999999999,2.1782124
9.6942425,-1.6420371999999999,2.1782124
9.6942425,-1.6420371999999999,2.1782124
9.6942425,-1.6420371999999999,2.1782124
9.531475,-1.8335283,2.1782124
9.531475,-1.8335283,2.1782124
9.531475,-1.8335283,2.1782124
9.914457,-1.7282081999999999,2.360129
9.914457,-1.7282081999999999,2.360129
9.914457,-1.7282081999999999,2.360129
9.914457,-1.7282081999999999,2.360129
9.914457,-1.7282081999999999,2.360129
9.866585,-1.709059,2.3314054
9.866585,-1.709059,2.3314054
9.866585,-1.709059,2.3314054
9.866585,-1.709059,2.3314054
9.713391,-1.4409714,2.321831
9.713391,-1.4409714,2.321831
9.713391,-1.4409714,2.321831
9.713391,-1.4409714,2.321831
9.569773,-1.0196906,2.2931072999999995
9.569773,-1.0196906,2.2931072999999995
9.569773,-1.0196906,2.2931072999999995
9.569773,-1.0196906,2.2931072999999995
9.732541000000001,-1.14416,2.1877869999999997
9.732541000000001,-1.14416,2.1877869999999997
9.732541000000001,-1.14416,2.1877869999999997
9.732541000000001,-1.14416,2.1877869999999997
9.914457,-0.7420284,2.6186423
9.914457,-0.7420284,2.6186423
9.914457,-0.7420284,2.6186423
9.914457,-0.7420284,2.6186423
9.62722,-0.59841,2.8388572
9.62722,-0.59841,2.8388572
9.62722,-0.59841,2.8388572
9.62722,-0.59841,2.8388572
9.397431,-1.0484143,2.752686
9.397431,-1.0484143,2.752686
9.397431,-1.0484143,2.752686
9.397431,-1.0484143,2.752686
9.349558,-1.14416,2.867581
9.349558,-1.14416,2.867581
9.349558,-1.14416,2.867581
9.349558,-1.14416,2.867581
9.167641999999999,-1.5845897,2.8292825
9.167641999999999,-1.5845897,2.8292825
9.167641999999999,-1.5845897,2.8292825
9.167641999999999,-1.5845897,2.8292825
9.119769,-1.6037389,2.8580062
9.119769,-1.6037389,2.8580062
9.119769,-1.6037389,2.8580062
9.119769,-1.6037389,2.8580062
9.071896,-1.7377827000000001,2.733537
9.071896,-1.7377827000000001,2.733537
9.071896,-1.7377827000000001,2.733537
9.071896,-1.7377827000000001,2.733537
8.641041,-1.6228879999999999,2.8197080000000003
8.641041,-1.6228879999999999,2.8197080000000003
8.641041,-1.6228879999999999,2.8197080000000003
8.641041,-1.6228879999999999,2.8197080000000003
9.5219,-1.3452256999999999,3.0111992
9.5219,-1.3452256999999999,3.0111992
9.5219,-1.3452256999999999,3.0111992
9.5219,-1.3452256999999999,3.0111992
10.249566999999999,-1.3739493999999999,2.4750240000000003
10.249566999999999,-1.3739493999999999,2.4750240000000003
10.249566999999999,-1.3739493999999999,2.4750240000000003
10.249566999999999,-1.3739493999999999,2.4750240000000003
12.557036,-1.5175678999999997,1.4122477
12.557036,-1.5175678999999997,1.4122477
12.557036,-1.5175678999999997,1.4122477
12.557036,-1.5175678999999997,1.4122477
15.257062,-1.2782038,1.3260766000000002
15.257062,-1.2782038,1.3260766000000002
15.257062,-1.2782038,1.3260766000000002
15.257062,-1.2782038,1.3260766000000002
10.450633,-1.4026731000000001,1.4218222
10.450633,-1.4026731000000001,1.4218222
10.450633,-1.4026731000000001,1.4218222
10.450633,-1.4026731000000001,1.4218222
10.785743,-1.3069274,1.1633091
10.785743,-1.3069274,1.1633091
10.785743,-1.3069274,1.1633091
10.785743,-1.3069274,1.1633091
10.393186,-0.48351530000000004,1.4409714
10.393186,-0.48351530000000004,1.4409714
10.393186,-0.48351530000000004,1.4409714
10.393186,-0.48351530000000004,1.4409714
10.393186,-0.48351530000000004,1.4409714
7.635712,-1.2016073,1.0101161
7.635712,-1.2016073,1.0101161
7.635712,-1.2016073,1.0101161
6.9654926999999995,-0.7994758000000001,1.2303311000000001
6.9654926999999995,-0.7994758000000001,1.2303311000000001
6.9654926999999995,-0.7994758000000001,1.2303311000000001
6.9654926999999995,-0.7994758000000001,1.2303311000000001
7.8367777,-1.1250108,1.0484143
7.8367777,-1.1250108,1.0484143
7.8367777,-1.1250108,1.0484143
7.8367777,-1.1250108,1.0484143
10.757019,-1.0579889,0.91437054
10.757019,-1.0579889,0.91437054
10.757019,-1.0579889,0.91437054
10.757019,-1.0579889,0.91437054
13.705982999999998,-0.9526688,0.42606795
13.705982999999998,-0.9526688,0.42606795
13.705982999999998,-0.9526688,0.42606795
13.705982999999998,-0.9526688,0.42606795
13.524067,-0.6271336999999999,0.8186249
13.524067,-0.6271336999999999,0.8186249
13.524067,-0.6271336999999999,0.8186249
13.524067,-0.6271336999999999,0.8186249
9.397431,-0.512239,1.5079931999999998
9.397431,-0.512239,1.5079931999999998
9.397431,-0.512239,1.5079931999999998
9.397431,-0.512239,1.5079931999999998
9.359133,-0.359046,2.3026817000000004
9.359133,-0.359046,2.3026817000000004
9.359133,-0.359046,2.3026817000000004
9.359133,-0.359046,2.3026817000000004
8.669764500000001,-0.9622433000000001,2.0824668
8.669764500000001,-0.9622433000000001,2.0824668
8.669764500000001,-0.9622433000000001,2.0824668
8.669764500000001,-0.9622433000000001,2.0824668
5.711225499999999,-1.1920328000000002,1.9579976000000003
5.711225499999999,-1.1920328000000002,1.9579976000000003
5.711225499999999,-1.1920328000000002,1.9579976000000003
5.711225499999999,-1.1920328000000002,1.9579976000000003
5.711225499999999,-1.1920328000000002,1.9579976000000003
6.2091026,-1.7377827000000001,2.0058703
6.2091026,-1.7377827000000001,2.0058703
6.2091026,-1.7377827000000001,2.0058703
9.732541000000001,-1.8239537000000001,2.360129
9.732541000000001,-1.8239537000000001,2.360129
9.732541000000001,-1.8239537000000001,2.360129
9.732541000000001,-1.8239537000000001,2.360129
9.732541000000001,-1.8239537000000001,2.360129
11.59958,-1.4218222,2.0920415
11.59958,-1.4218222,2.0920415
11.59958,-1.4218222,2.0920415
14.64429,-1.7856555,1.6516117
14.64429,-1.7856555,1.6516117
14.64429,-1.7856555,1.6516117
14.64429,-1.7856555,1.6516117
10.92936,-2.427151,1.383524
10.92936,-2.427151,1.383524
10.92936,-2.427151,1.383524
10.92936,-2.427151,1.383524
12.011286,-2.1782124,1.383524
12.011286,-2.1782124,1.383524
12.011286,-2.1782124,1.383524
12.011286,-2.1782124,1.383524
9.004874000000001,-1.469695,1.4888442
9.004874000000001,-1.469695,1.4888442
9.004874000000001,-1.469695,1.4888442
9.004874000000001,-1.469695,1.4888442
5.4048395,-1.4122477,1.1250108
5.4048395,-1.4122477,1.1250108
5.4048395,-1.4122477,1.1250108
5.4048395,-1.4122477,1.1250108
6.3431463,-1.0005416,1.0196906
6.3431463,-1.0005416,1.0196906
6.3431463,-1.0005416,1.0196906
6.3431463,-1.0005416,1.0196906
10.431483,-0.8952214,0.49308985
10.431483,-0.8952214,0.49308985
10.431483,-0.8952214,0.49308985
10.431483,-0.8952214,0.49308985
14.845355999999999,-0.34947145,0.34947145
14.845355999999999,-0.34947145,0.34947145
14.845355999999999,-0.34947145,0.34947145
14.845355999999999,-0.34947145,0.34947145
13.476192999999999,-0.50266445,0.7228793
13.476192999999999,-0.50266445,0.7228793
13.476192999999999,-0.50266445,0.7228793
13.476192999999999,-0.50266445,0.7228793
13.476192999999999,-0.50266445,0.7228793
9.75169,-1.2303311000000001,1.4409714
9.75169,-1.2303311000000001,1.4409714
9.75169,-1.2303311000000001,1.4409714
9.272962,-1.3739493999999999,2.2452345
9.272962,-1.3739493999999999,2.2452345
9.272962,-1.3739493999999999,2.2452345
9.272962,-1.3739493999999999,2.2452345
8.650616000000001,-0.8856468000000001,2.4367256
8.650616000000001,-0.8856468000000001,2.4367256
8.650616000000001,-0.8856468000000001,2.4367256
8.650616000000001,-0.8856468000000001,2.4367256
8.650616000000001,-0.8856468000000001,2.4367256
5.3378177,-1.5271424,1.948423
5.3378177,-1.5271424,1.948423
5.3378177,-1.5271424,1.948423
5.232497,-2.3888528,2.0250196
5.232497,-2.3888528,2.0250196
5.232497,-2.3888528,2.0250196
5.232497,-2.3888528,2.0250196
5.232497,-2.3888528,2.0250196
8.545295,-1.8239537000000001,2.9537517999999996
8.545295,-1.8239537000000001,2.9537517999999996
8.545295,-1.8239537000000001,2.9537517999999996
11.944264,-1.3739493999999999,3.0303482999999996
11.944264,-1.3739493999999999,3.0303482999999996
11.944264,-1.3739493999999999,3.0303482999999996
11.944264,-1.3739493999999999,3.0303482999999996
15.065570999999998,-2.1590632999999997,1.9771467
15.065570999999998,-2.1590632999999997,1.9771467
15.065570999999998,-2.1590632999999997,1.9771467
15.065570999999998,-2.1590632999999997,1.9771467
12.116607,-2.6090677,1.6324625
12.116607,-2.6090677,1.6324625
12.116607,-2.6090677,1.6324625
12.116607,-2.6090677,1.6324625
11.59958,-2.0920415,1.7377827000000001
11.59958,-2.0920415,1.7377827000000001
11.59958,-2.0920415,1.7377827000000001
11.59958,-2.0920415,1.7377827000000001
11.59958,-2.0920415,1.7377827000000001
9.684667999999999,-1.2494801000000002,1.7282081999999999
9.684667999999999,-1.2494801000000002,1.7282081999999999
9.684667999999999,-1.2494801000000002,1.7282081999999999
5.500585,-1.2686293,1.2494801000000002
5.500585,-1.2686293,1.2494801000000002
5.500585,-1.2686293,1.2494801000000002
5.500585,-1.2686293,1.2494801000000002
5.988887999999999,-0.8281995000000001,1.2303311000000001
5.988887999999999,-0.8281995000000001,1.2303311000000001
5.988887999999999,-0.8281995000000001,1.2303311000000001
5.988887999999999,-0.8281995000000001,1.2303311000000001
5.988887999999999,-0.8281995000000001,1.2303311000000001
9.5219,-0.44521707,0.99096704
9.5219,-0.44521707,0.99096704
9.5219,-0.44521707,0.99096704
12.413418,-0.56011176,0.5792609000000001
12.413418,-0.56011176,0.5792609000000001
12.413418,-0.56011176,0.5792609000000001
12.413418,-0.56011176,0.5792609000000001
12.413418,-0.56011176,0.5792609000000001
13.964497,-0.40691882,0.42606795
13.964497,-0.40691882,0.42606795
13.964497,-0.40691882,0.42606795
13.964497,-0.40691882,0.42606795
11.695326,-1.0579889,1.0005416
11.695326,-1.0579889,1.0005416
11.695326,-1.0579889,1.0005416
9.033598,-0.7420284,2.0250196
9.033598,-0.7420284,2.0250196
9.033598,-0.7420284,2.0250196
9.033598,-0.7420284,2.0250196
9.033598,-0.7420284,2.0250196
9.18679,-1.1728836,2.2739582
9.18679,-1.1728836,2.2739582
9.18679,-1.1728836,2.2739582
9.18679,-1.1728836,2.2739582
6.745278,-2.1303396,2.0728923999999997
6.745278,-2.1303396,2.0728923999999997
6.745278,-2.1303396,2.0728923999999997
6.745278,-2.1303396,2.0728923999999997
5.979312999999999,-2.0728923999999997,2.2931072999999995
5.979312999999999,-2.0728923999999997,2.2931072999999995
5.979312999999999,-2.0728923999999997,2.2931072999999995
5.979312999999999,-2.0728923999999997,2.2931072999999995
7.635712,-2.4558747000000003,2.3122563
7.635712,-2.4558747000000003,2.3122563
7.635712,-2.4558747000000003,2.3122563
7.635712,-2.4558747000000003,2.3122563
10.364462,-1.9771467,2.647366
10.364462,-1.9771467,2.647366
10.364462,-1.9771467,2.647366
10.364462,-1.9771467,2.647366
13.926198000000001,-1.7856555,2.254809
13.926198000000001,-1.7856555,2.254809
13.926198000000001,-1.7856555,2.254809
13.926198000000001,-1.7856555,2.254809
14.165563,-2.4750240000000003,1.8335283
14.165563,-2.4750240000000003,1.8335283
14.165563,-2.4750240000000003,1.8335283
14.165563,-2.4750240000000003,1.8335283
10.871913000000001,-2.3984275,1.5367169
10.871913000000001,-2.3984275,1.5367169
10.871913000000001,-2.3984275,1.5367169
10.871913000000001,-2.3984275,1.5367169
10.374036,-1.2590546999999999,1.7377827000000001
10.374036,-1.2590546999999999,1.7377827000000001
10.374036,-1.2590546999999999,1.7377827000000001
10.374036,-1.2590546999999999,1.7377827000000001
6.3814445,-1.469695,1.2399056
6.3814445,-1.469695,1.2399056
6.3814445,-1.469695,1.2399056
6.3814445,-1.469695,1.2399056
5.5101595,-1.2016073,1.0292653
5.5101595,-1.2016073,1.0292653
5.5101595,-1.2016073,1.0292653
5.5101595,-1.2016073,1.0292653
8.143164,-0.64628285,1.0292653
8.143164,-0.64628285,1.0292653
8.143164,-0.64628285,1.0292653
8.143164,-0.64628285,1.0292653
11.915541000000001,-1.14416,0.93351966
11.915541000000001,-1.14416,0.93351966
11.915541000000001,-1.14416,0.93351966
11.915541000000001,-1.14416,0.93351966
13.227255,-1.6324625,0.8760723
13.227255,-1.6324625,0.8760723
13.227255,-1.6324625,0.8760723
13.227255,-1.6324625,0.8760723
13.619812,-1.0962871,1.4601203999999999
13.619812,-1.0962871,1.4601203999999999
13.619812,-1.0962871,1.4601203999999999
13.619812,-1.0962871,1.4601203999999999
8.985725,-1.6133133999999998,1.862252
8.985725,-1.6133133999999998,1.862252
8.985725,-1.6133133999999998,1.862252
8.985725,-1.6133133999999998,1.862252
9.5219,-1.0292653,2.5228968
9.5219,-1.0292653,2.5228968
9.5219,-1.0292653,2.5228968
9.5219,-1.0292653,2.5228968
7.788905000000001,-1.709059,2.101616
7.788905000000001,-1.709059,2.101616
7.788905000000001,-1.709059,2.101616
7.788905000000001,-1.709059,2.101616
6.2378263,-1.5654407,2.3314054
6.2378263,-1.5654407,2.3314054
6.2378263,-1.5654407,2.3314054
6.2378263,-1.5654407,2.3314054
6.630383,-2.034594,2.1782124
6.630383,-2.034594,2.1782124
6.630383,-2.034594,2.1782124
6.630383,-2.034594,2.1782124
8.861256,-1.862252,2.2452345
8.861256,-1.862252,2.2452345
8.861256,-1.862252,2.2452345
8.861256,-1.862252,2.2452345
10.575102000000001,-1.7665064,2.5516202
10.575102000000001,-1.7665064,2.5516202
10.575102000000001,-1.7665064,2.5516202
10.575102000000001,-1.7665064,2.5516202
12.863422,-1.9101248,1.9196993000000002
12.863422,-1.9101248,1.9196993000000002
12.863422,-1.9101248,1.9196993000000002
12.863422,-1.9101248,1.9196993000000002
13.552791000000001,-2.5707695,2.2452345
13.552791000000001,-2.5707695,2.2452345
13.552791000000001,-2.5707695,2.2452345
13.552791000000001,-2.5707695,2.2452345
10.029352000000001,-2.5324712000000003,2.0537431
10.029352000000001,-2.5324712000000003,2.0537431
10.029352000000001,-2.5324712000000003,2.0537431
10.029352000000001,-2.5324712000000003,2.0537431
10.239991999999999,-1.776081,1.7569318999999999
10.239991999999999,-1.776081,1.7569318999999999
10.239991999999999,-1.776081,1.7569318999999999
10.239991999999999,-1.776081,1.7569318999999999
10.239991999999999,-1.776081,1.7569318999999999
7.329325999999999,-1.4409714,1.4122477
7.329325999999999,-1.4409714,1.4122477
7.329325999999999,-1.4409714,1.4122477
6.027186,-1.2303311000000001,1.1824582000000001
6.027186,-1.2303311000000001,1.1824582000000001
6.027186,-1.2303311000000001,1.1824582000000001
6.027186,-1.2303311000000001,1.1824582000000001
8.55487,-1.1058618,0.8664976999999999
8.55487,-1.1058618,0.8664976999999999
8.55487,-1.1058618,0.8664976999999999
8.55487,-1.1058618,0.8664976999999999
8.55487,-1.1058618,0.8664976999999999
12.470865,-1.2494801000000002,0.78032666
12.470865,-1.2494801000000002,0.78032666
12.470865,-1.2494801000000002,0.78032666
12.978316,-1.2399056,0.8473485999999999
12.978316,-1.2399056,0.8473485999999999
12.978316,-1.2399056,0.8473485999999999
12.978316,-1.2399056,0.8473485999999999
12.978316,-1.2399056,0.8473485999999999
12.643207,-0.90479594,1.1058618
12.643207,-0.90479594,1.1058618
12.643207,-0.90479594,1.1058618
9.550624000000001,-1.709059,1.4122477
9.550624000000001,-1.709059,1.4122477
9.550624000000001,-1.709059,1.4122477
9.550624000000001,-1.709059,1.4122477
9.665519,-1.1250108,2.2165107999999996
9.665519,-1.1250108,2.2165107999999996
9.665519,-1.1250108,2.2165107999999996
9.665519,-1.1250108,2.2165107999999996
7.8176284,-1.1250108,2.254809
7.8176284,-1.1250108,2.254809
7.8176284,-1.1250108,2.254809
7.8176284,-1.1250108,2.254809
5.328243,-1.1250108,2.2452345
5.328243,-1.1250108,2.2452345
5.328243,-1.1250108,2.2452345
5.328243,-1.1250108,2.2452345
6.5154879999999995,-2.1399142999999996,2.1111906000000005
6.5154879999999995,-2.1399142999999996,2.1111906000000005
6.5154879999999995,-2.1399142999999996,2.1111906000000005
6.5154879999999995,-2.1399142999999996,2.1111906000000005
9.426155,-1.6133133999999998,2.8292825
9.426155,-1.6133133999999998,2.8292825
9.426155,-1.6133133999999998,2.8292825
9.426155,-1.6133133999999998,2.8292825
10.354887,-1.8526775000000002,2.6856642
10.354887,-1.8526775000000002,2.6856642
10.354887,-1.8526775000000002,2.6856642
10.354887,-1.8526775000000002,2.6856642
11.714475,-1.8526775000000002,2.321831
11.714475,-1.8526775000000002,2.321831
11.714475,-1.8526775000000002,2.321831
11.714475,-1.8526775000000002,2.321831
13.533641000000001,-2.0824668,1.8048046999999998
13.533641000000001,-2.0824668,1.8048046999999998
13.533641000000001,-2.0824668,1.8048046999999998
13.533641000000001,-2.0824668,1.8048046999999998
11.149575,-2.1207652,0.5313880999999999
11.149575,-2.1207652,0.5313880999999999
11.149575,-2.1207652,0.5313880999999999
9.952755999999999,-1.4505458999999998,0.3398969
9.952755999999999,-1.4505458999999998,0.3398969
9.952755999999999,-1.4505458999999998,0.3398969
9.952755999999999,-1.4505458999999998,0.3398969
9.138917999999999,-1.9005502,0.20585304
9.138917999999999,-1.9005502,0.20585304
9.138917999999999,-1.9005502,0.20585304
9.138917999999999,-1.9005502,0.20585304
8.21976,-1.7952299999999999,0.50266445
8.21976,-1.7952299999999999,0.50266445
8.21976,-1.7952299999999999,0.50266445
8.21976,-1.7952299999999999,0.50266445
7.741032000000001,-1.9675721999999998,0.5218136
7.741032000000001,-1.9675721999999998,0.5218136
7.741032000000001,-1.9675721999999998,0.5218136
7.741032000000001,-1.9675721999999998,0.5218136
7.741032000000001,-1.9675721999999998,0.5218136
8.334655,-2.0250196,0.46436617
8.334655,-2.0250196,0.46436617
8.334655,-2.0250196,0.46436617
9.244238000000001,-1.9771467,0.39734426
9.244238000000001,-1.9771467,0.39734426
9.244238000000001,-1.9771467,0.39734426
9.244238000000001,-1.9771467,0.39734426
10.278291000000001,-2.3122563,0.43564250000000004
10.278291000000001,-2.3122563,0.43564250000000004
10.278291000000001,-2.3122563,0.43564250000000004
10.278291000000001,-2.3122563,0.43564250000000004
10.709146,-1.776081,0.665432
10.709146,-1.776081,0.665432
10.709146,-1.776081,0.665432
10.709146,-1.776081,0.665432
11.197449,-1.7186337,1.1154363
11.197449,-1.7186337,1.1154363
11.197449,-1.7186337,1.1154363
11.197449,-1.7186337,1.1154363
9.378282,-2.6282167000000003,1.1633091
9.378282,-2.6282167000000003,1.1633091
9.378282,-2.6282167000000003,1.1633091
9.378282,-2.6282167000000003,1.1633091
10.92936,-1.6324625,1.6037389
10.92936,-1.6324625,1.6037389
10.92936,-1.6324625,1.6037389
10.92936,-1.6324625,1.6037389
7.9899707,-1.776081,1.6420371999999999
7.9899707,-1.776081,1.6420371999999999
7.9899707,-1.776081,1.6420371999999999
7.9899707,-1.776081,1.6420371999999999
8.11444,-1.6899098999999997,1.4792696
8.11444,-1.6899098999999997,1.4792696
8.11444,-1.6899098999999997,1.4792696
9.024023,-1.9675721999999998,1.8526775000000002
9.024023,-1.9675721999999998,1.8526775000000002
9.024023,-1.9675721999999998,1.8526775000000002
9.024023,-1.9675721999999998,1.8526775000000002
9.024023,-1.9675721999999998,1.8526775000000002
8.813383,-2.1782124,2.149489
8.813383,-2.1782124,2.149489
8.813383,-2.1782124,2.149489
8.813383,-2.1782124,2.149489
8.602742,-2.2069361,2.2165107999999996
8.602742,-2.2069361,2.2165107999999996
8.602742,-2.2069361,2.2165107999999996
8.602742,-2.2069361,2.2165107999999996
10.010203,-2.1207652,1.5654407
10.010203,-2.1207652,1.5654407
10.010203,-2.1207652,1.5654407
10.010203,-2.1207652,1.5654407
15.247487,-2.2931072999999995,0.9718179
15.247487,-2.2931072999999995,0.9718179
15.247487,-2.2931072999999995,0.9718179
10.728295,-2.3697037999999995,0.16755481
10.728295,-2.3697037999999995,0.16755481
10.728295,-2.3697037999999995,0.16755481
10.728295,-2.3697037999999995,0.16755481
10.565528,-1.8814011999999998,0.12925656
10.565528,-1.8814011999999998,0.12925656
10.565528,-1.8814011999999998,0.12925656
10.565528,-1.8814011999999998,0.12925656
8.2676325,-1.4218222,0.27287498
8.2676325,-1.4218222,0.27287498
8.2676325,-1.4218222,0.27287498
8.2676325,-1.4218222,0.27287498
8.909127999999999,-1.2494801000000002,0.19627848
8.909127999999999,-1.2494801000000002,0.19627848
8.909127999999999,-1.2494801000000002,0.19627848
8.909127999999999,-1.2494801000000002,0.19627848
10.335738000000001,-1.4601203999999999,0.54096264
10.335738000000001,-1.4601203999999999,0.54096264
10.335738000000001,-1.4601203999999999,0.54096264
10.335738000000001,-1.4601203999999999,0.54096264
10.40276,-1.776081,1.0196906
10.40276,-1.776081,1.0196906
10.40276,-1.776081,1.0196906
10.40276,-1.776081,1.0196906
11.044255,-1.5271424,1.6228879999999999
11.044255,-1.5271424,1.6228879999999999
11.044255,-1.5271424,1.6228879999999999
13.897473999999999,-1.0292653,1.6324625
13.897473999999999,-1.0292653,1.6324625
13.897473999999999,-1.0292653,1.6324625
13.897473999999999,-1.0292653,1.6324625
13.897473999999999,-1.0292653,1.6324625
13.418745999999999,-1.2877783999999999,1.6228879999999999
13.418745999999999,-1.2877783999999999,1.6228879999999999
13.418745999999999,-1.2877783999999999,1.6228879999999999
9.071896,-0.8473485999999999,1.776081
9.071896,-0.8473485999999999,1.776081
9.071896,-0.8473485999999999,1.776081
9.071896,-0.8473485999999999,1.776081
10.603826,-0.40691882,1.4409714
10.603826,-0.40691882,1.4409714
10.603826,-0.40691882,1.4409714
10.603826,-0.40691882,1.4409714
7.9325233,-0.8952214,1.2016073
7.9325233,-0.8952214,1.2016073
7.9325233,-0.8952214,1.2016073
7.9325233,-0.8952214,1.2016073
6.4197426,-0.78990126,1.5558661
6.4197426,-0.78990126,1.5558661
6.4197426,-0.78990126,1.5558661
6.4197426,-0.78990126,1.5558661
7.0995364,-1.6611862000000002,1.9196993000000002
7.0995364,-1.6611862000000002,1.9196993000000002
7.0995364,-1.6611862000000002,1.9196993000000002
7.0995364,-1.6611862000000002,1.9196993000000002
8.784659,-2.2165107999999996,2.360129
8.784659,-2.2165107999999996,2.360129
8.784659,-2.2165107999999996,2.360129
10.728295,-2.1303396,2.4367256
10.728295,-2.1303396,2.4367256
10.728295,-2.1303396,2.4367256
10.728295,-2.1303396,2.4367256
14.74961,-2.015445,2.0250196
14.74961,-2.015445,2.0250196
14.74961,-2.015445,2.0250196
14.74961,-2.015445,2.0250196
11.05383,-2.254809,1.6994845
11.05383,-2.254809,1.6994845
11.05383,-2.254809,1.6994845
11.05383,-2.254809,1.6994845
9.943181,-2.1207652,1.1728836
9.943181,-2.1207652,1.1728836
9.943181,-2.1207652,1.1728836
9.943181,-2.1207652,1.1728836
8.593167999999999,-1.8239537000000001,1.0196906
8.593167999999999,-1.8239537000000001,1.0196906
8.593167999999999,-1.8239537000000001,1.0196906
8.593167999999999,-1.8239537000000001,1.0196906
7.0037910000000005,-1.9675721999999998,1.3069274
7.0037910000000005,-1.9675721999999998,1.3069274
7.0037910000000005,-1.9675721999999998,1.3069274
7.0037910000000005,-1.9675721999999998,1.3069274
6.5825105,-1.8526775000000002,1.3643749
6.5825105,-1.8526775000000002,1.3643749
6.5825105,-1.8526775000000002,1.3643749
9.158066999999999,-1.8335283,1.1920328000000002
9.158066999999999,-1.8335283,1.1920328000000002
9.158066999999999,-1.8335283,1.1920328000000002
9.158066999999999,-1.8335283,1.1920328000000002
9.158066999999999,-1.8335283,1.1920328000000002
12.068733,-1.5271424,1.2782038
12.068733,-1.5271424,1.2782038
12.068733,-1.5271424,1.2782038
12.8538475,-1.5654407,1.1824582000000001
12.8538475,-1.5654407,1.1824582000000001
12.8538475,-1.5654407,1.1824582000000001
12.8538475,-1.5654407,1.1824582000000001
13.562365,-0.9622433000000001,1.4601203999999999
13.562365,-0.9622433000000001,1.4601203999999999
13.562365,-0.9622433000000001,1.4601203999999999
13.562365,-0.9622433000000001,1.4601203999999999
8.880403999999999,-1.3739493999999999,1.8143792
8.880403999999999,-1.3739493999999999,1.8143792
8.880403999999999,-1.3739493999999999,1.8143792
8.880403999999999,-1.3739493999999999,1.8143792
9.943181,-1.2303311000000001,2.4463003
9.943181,-1.2303311000000001,2.4463003
9.943181,-1.2303311000000001,2.4463003
9.943181,-1.2303311000000001,2.4463003
7.5495410000000005,-1.6228879999999999,1.9101248
7.5495410000000005,-1.6228879999999999,1.9101248
7.5495410000000005,-1.6228879999999999,1.9101248
6.0080366,-1.8048046999999998,1.7473572
6.0080366,-1.8048046999999998,1.7473572
6.0080366,-1.8048046999999998,1.7473572
6.0080366,-1.8048046999999998,1.7473572
6.0080366,-1.8048046999999998,1.7473572
6.6591067,-1.9388485,1.9101248
6.6591067,-1.9388485,1.9101248
6.6591067,-1.9388485,1.9101248
8.813383,-2.0250196,2.3888528
8.813383,-2.0250196,2.3888528
8.813383,-2.0250196,2.3888528
8.813383,-2.0250196,2.3888528
10.766592999999999,-1.8239537000000001,2.905879
10.766592999999999,-1.8239537000000001,2.905879
10.766592999999999,-1.8239537000000001,2.905879
10.766592999999999,-1.8239537000000001,2.905879
13.323001000000001,-2.3026817000000004,1.9196993000000002
13.323001000000001,-2.3026817000000004,1.9196993000000002
13.323001000000001,-2.3026817000000004,1.9196993000000002
13.323001000000001,-2.3026817000000004,1.9196993000000002
12.384694,-2.6282167000000003,1.9962958
12.384694,-2.6282167000000003,1.9962958
12.384694,-2.6282167000000003,1.9962958
12.384694,-2.6282167000000003,1.9962958
11.59958,-2.513322,1.8335283
11.59958,-2.513322,1.8335283
11.59958,-2.513322,1.8335283
11.59958,-2.513322,1.8335283
9.54105,-1.4409714,1.8239537000000001
9.54105,-1.4409714,1.8239537000000001
9.54105,-1.4409714,1.8239537000000001
6.285699,-1.2686293,1.3548003
6.285699,-1.2686293,1.3548003
6.285699,-1.2686293,1.3548003
6.285699,-1.2686293,1.3548003
6.285699,-1.2686293,1.3548003
6.2952733,-0.8856468000000001,0.98139244
6.2952733,-0.8856468000000001,0.98139244
6.2952733,-0.8856468000000001,0.98139244
6.2952733,-0.8856468000000001,0.98139244
10.029352000000001,-0.85692316,0.85692316
10.029352000000001,-0.85692316,0.85692316
10.029352000000001,-0.85692316,0.85692316
10.029352000000001,-0.85692316,0.85692316
12.2410755,-0.91437054,0.8760723
12.2410755,-0.91437054,0.8760723
12.2410755,-0.91437054,0.8760723
12.2410755,-0.91437054,0.8760723
13.418745999999999,-0.6750065,0.8090504
13.418745999999999,-0.6750065,0.8090504
13.418745999999999,-0.6750065,0.8090504
13.418745999999999,-0.6750065,0.8090504
11.714475,-0.9526688,1.2590546999999999
11.714475,-0.9526688,1.2590546999999999
11.714475,-0.9526688,1.2590546999999999
11.714475,-0.9526688,1.2590546999999999
9.7899885,-0.98139244,2.2356597999999996
9.7899885,-0.98139244,2.2356597999999996
9.7899885,-0.98139244,2.2356597999999996
9.7899885,-0.98139244,2.2356597999999996
9.339984,-0.8090504,2.5707695
9.339984,-0.8090504,2.5707695
9.339984,-0.8090504,2.5707695
9.339984,-0.8090504,2.5707695
6.5633610000000004,-1.0388398,1.8814011999999998
6.5633610000000004,-1.0388398,1.8814011999999998
6.5633610000000004,-1.0388398,1.8814011999999998
6.5633610000000004,-1.0388398,1.8814011999999998
6.027186,-1.7473572,1.4984187
6.027186,-1.7473572,1.4984187
6.027186,-1.7473572,1.4984187
7.951672599999999,-1.9388485,1.9388485
7.951672599999999,-1.9388485,1.9388485
7.951672599999999,-1.9388485,1.9388485
7.951672599999999,-1.9388485,1.9388485
7.951672599999999,-1.9388485,1.9388485
10.268716,-1.9196993000000002,2.2739582
10.268716,-1.9196993000000002,2.2739582
10.268716,-1.9196993000000002,2.2739582
11.896391,-2.3697037999999995,1.7186337
11.896391,-2.3697037999999995,1.7186337
11.896391,-2.3697037999999995,1.7186337
11.896391,-2.3697037999999995,1.7186337
15.027272,-2.3697037999999995,1.8239537000000001
15.027272,-2.3697037999999995,1.8239537000000001
15.027272,-2.3697037999999995,1.8239537000000001
15.027272,-2.3697037999999995,1.8239537000000001
10.259142,-2.513322,1.2973529
10.259142,-2.513322,1.2973529
10.259142,-2.513322,1.2973529
10.259142,-2.513322,1.2973529
10.239991999999999,-1.862252,1.3548003
10.239991999999999,-1.862252,1.3548003
10.239991999999999,-1.862252,1.3548003
10.239991999999999,-1.862252,1.3548003
7.396348,-1.4505458999999998,1.3356511999999998
7.396348,-1.4505458999999998,1.3356511999999998
7.396348,-1.4505458999999998,1.3356511999999998
7.396348,-1.4505458999999998,1.3356511999999998
5.9027166,-1.4984187,0.8473485999999999
5.9027166,-1.4984187,0.8473485999999999
5.9027166,-1.4984187,0.8473485999999999
5.9027166,-1.4984187,0.8473485999999999
8.478273,-1.1345854,0.8186249
8.478273,-1.1345854,0.8186249
8.478273,-1.1345854,0.8186249
8.478273,-1.1345854,0.8186249
12.46129,-0.92394507,0.77075213
12.46129,-0.92394507,0.77075213
12.46129,-0.92394507,0.77075213
12.46129,-0.92394507,0.77075213
13.504917,-1.0005416,0.6558574
13.504917,-1.0005416,0.6558574
13.504917,-1.0005416,0.6558574
13.504917,-1.0005416,0.6558574
12.432567,-0.83777404,1.1058618
12.432567,-0.83777404,1.1058618
12.432567,-0.83777404,1.1058618
12.432567,-0.83777404,1.1058618
8.870830999999999,-0.8281995000000001,1.7952299999999999
8.870830999999999,-0.8281995000000001,1.7952299999999999
8.870830999999999,-0.8281995000000001,1.7952299999999999
8.870830999999999,-0.8281995000000001,1.7952299999999999
9.598496,-0.37819514,2.254809
9.598496,-0.37819514,2.254809
9.598496,-0.37819514,2.254809
9.598496,-0.37819514,2.254809
7.4920936000000005,-1.2016073,1.8143792
7.4920936000000005,-1.2016073,1.8143792
7.4920936000000005,-1.2016073,1.8143792
7.4920936000000005,-1.2016073,1.8143792
5.778247400000001,-1.3739493999999999,1.6803354
5.778247400000001,-1.3739493999999999,1.6803354
5.778247400000001,-1.3739493999999999,1.6803354
7.0612383,-2.1782124,2.015445
7.0612383,-2.1782124,2.015445
7.0612383,-2.1782124,2.015445
7.0612383,-2.1782124,2.015445
9.847435,-1.7952299999999999,2.7814097
9.847435,-1.7952299999999999,2.7814097
9.847435,-1.7952299999999999,2.7814097
9.847435,-1.7952299999999999,2.7814097
11.331491999999999,-2.2165107999999996,2.1590632999999997
11.331491999999999,-2.2165107999999996,2.1590632999999997
11.331491999999999,-2.2165107999999996,2.1590632999999997
11.331491999999999,-2.2165107999999996,2.1590632999999997
15.63047,-2.5324712000000003,1.8143792
15.63047,-2.5324712000000003,1.8143792
15.63047,-2.5324712000000003,1.8143792
15.63047,-2.5324712000000003,1.8143792
15.63047,-2.5324712000000003,1.8143792
10.488931,-1.8909756999999998,1.3930986
10.488931,-1.8909756999999998,1.3930986
10.488931,-1.8909756999999998,1.3930986
10.364462,-1.5654407,0.9430941999999999
10.364462,-1.5654407,0.9430941999999999
10.364462,-1.5654407,0.9430941999999999
10.364462,-1.5654407,0.9430941999999999
7.846352,-1.4792696,0.9622433000000001
7.846352,-1.4792696,0.9622433000000001
7.846352,-1.4792696,0.9622433000000001
7.846352,-1.4792696,0.9622433000000001
6.0559096,-1.3069274,1.0101161
6.0559096,-1.3069274,1.0101161
6.0559096,-1.3069274,1.0101161
6.0559096,-1.3069274,1.0101161
7.788905000000001,-1.3069274,1.0196906
7.788905000000001,-1.3069274,1.0196906
7.788905000000001,-1.3069274,1.0196906
7.788905000000001,-1.3069274,1.0196906
10.891063,-1.6994845,0.85692316
10.891063,-1.6994845,0.85692316
10.891063,-1.6994845,0.85692316
10.891063,-1.6994845,0.85692316
12.202777000000001,-1.6803354,1.1728836
12.202777000000001,-1.6803354,1.1728836
12.202777000000001,-1.6803354,1.1728836
12.202777000000001,-1.6803354,1.1728836
13.591088000000001,-1.1824582000000001,1.4026731000000001
13.591088000000001,-1.1824582000000001,1.4026731000000001
13.591088000000001,-1.1824582000000001,1.4026731000000001
13.591088000000001,-1.1824582000000001,1.4026731000000001
11.168725,-1.0005416,1.9867213
11.168725,-1.0005416,1.9867213
11.168725,-1.0005416,1.9867213
11.168725,-1.0005416,1.9867213
9.655944,-0.85692316,2.5420458
9.655944,-0.85692316,2.5420458
9.655944,-0.85692316,2.5420458
9.655944,-0.85692316,2.5420458
9.770839,-0.34947145,2.254809
9.770839,-0.34947145,2.254809
9.770839,-0.34947145,2.254809
9.770839,-0.34947145,2.254809
6.2665496,0.081383765,1.7282081999999999
6.2665496,0.081383765,1.7282081999999999
6.2665496,0.081383765,1.7282081999999999
6.2665496,0.081383765,1.7282081999999999
5.739949,-1.1154363,1.5367169
5.739949,-1.1154363,1.5367169
5.739949,-1.1154363,1.5367169
5.739949,-1.1154363,1.5367169
8.21976,-1.4505458999999998,1.8335283
8.21976,-1.4505458999999998,1.8335283
8.21976,-1.4505458999999998,1.8335283
10.115523,-1.9867213,2.0058703
10.115523,-1.9867213,2.0058703
10.115523,-1.9867213,2.0058703
10.115523,-1.9867213,2.0058703
10.115523,-1.9867213,2.0058703
11.628304,-2.408002,2.1399142999999996
11.628304,-2.408002,2.1399142999999996
11.628304,-2.408002,2.1399142999999996
14.232584,-2.408002,2.3792782000000003
14.232584,-2.408002,2.3792782000000003
14.232584,-2.408002,2.3792782000000003
14.232584,-2.408002,2.3792782000000003
10.536804,-2.1207652,1.9196993000000002
10.536804,-2.1207652,1.9196993000000002
10.536804,-2.1207652,1.9196993000000002
10.536804,-2.1207652,1.9196993000000002
10.651698,-1.7665064,1.5271424
10.651698,-1.7665064,1.5271424
10.651698,-1.7665064,1.5271424
10.651698,-1.7665064,1.5271424
8.353804,-1.9005502,1.3643749
8.353804,-1.9005502,1.3643749
8.353804,-1.9005502,1.3643749
8.353804,-1.9005502,1.3643749
6.0463347,-1.8431028999999999,1.2207563999999997
6.0463347,-1.8431028999999999,1.2207563999999997
6.0463347,-1.8431028999999999,1.2207563999999997
6.0463347,-1.8431028999999999,1.2207563999999997
7.7027339999999995,-1.2973529,1.1824582000000001
7.7027339999999995,-1.2973529,1.1824582000000001
7.7027339999999995,-1.2973529,1.1824582000000001
7.7027339999999995,-1.2973529,1.1824582000000001
10.019777000000001,-1.5462915000000002,0.70373017
10.019777000000001,-1.5462915000000002,0.70373017
10.019777000000001,-1.5462915000000002,0.70373017
10.019777000000001,-1.5462915000000002,0.70373017
12.145328999999998,-2.0250196,0.7228793
12.145328999999998,-2.0250196,0.7228793
12.145328999999998,-2.0250196,0.7228793
12.145328999999998,-2.0250196,0.7228793
13.208105999999999,-2.0633178,1.4888442
13.208105999999999,-2.0633178,1.4888442
13.208105999999999,-2.0633178,1.4888442
13.208105999999999,-2.0633178,1.4888442
9.62722,-2.321831,1.8909756999999998
9.62722,-2.321831,1.8909756999999998
9.62722,-2.321831,1.8909756999999998
9.62722,-2.321831,1.8909756999999998
9.675094,-2.5324712000000003,2.408002
9.675094,-2.5324712000000003,2.408002
9.675094,-2.5324712000000003,2.408002
9.675094,-2.5324712000000003,2.408002
9.847435,-1.8143792,2.0250196
9.847435,-1.8143792,2.0250196
9.847435,-1.8143792,2.0250196
9.847435,-1.8143792,2.0250196
7.894225,-2.0728923999999997,1.3165021000000001
7.894225,-2.0728923999999997,1.3165021000000001
7.894225,-2.0728923999999997,1.3165021000000001
7.894225,-2.0728923999999997,1.3165021000000001
6.2091026,-1.5750152,1.2399056
6.2091026,-1.5750152,1.2399056
6.2091026,-1.5750152,1.2399056
6.2091026,-1.5750152,1.2399056
7.683584700000001,-1.9867213,1.2590546999999999
7.683584700000001,-1.9867213,1.2590546999999999
7.683584700000001,-1.9867213,1.2590546999999999
7.683584700000001,-1.9867213,1.2590546999999999
9.033598,-2.168638,1.9771467
9.033598,-2.168638,1.9771467
9.033598,-2.168638,1.9771467
9.033598,-2.168638,1.9771467
8.985725,-2.4558747000000003,2.666515
8.985725,-2.4558747000000003,2.666515
8.985725,-2.4558747000000003,2.666515
8.985725,-2.4558747000000003,2.666515
8.765511,-2.9824755,2.9920502
8.765511,-2.9824755,2.9920502
8.765511,-2.9824755,2.9920502
8.765511,-2.9824755,2.9920502
10.527229,-2.7431116,2.5420458
10.527229,-2.7431116,2.5420458
10.527229,-2.7431116,2.5420458
10.527229,-2.7431116,2.5420458
12.499589,-2.8292825,1.6037389
12.499589,-2.8292825,1.6037389
12.499589,-2.8292825,1.6037389
12.499589,-2.8292825,1.6037389
11.072979,-2.6377914000000002,0.6079846
11.072979,-2.6377914000000002,0.6079846
11.072979,-2.6377914000000002,0.6079846
11.072979,-2.6377914000000002,0.6079846
10.871913000000001,-2.2739582,0.37819514
10.871913000000001,-2.2739582,0.37819514
10.871913000000001,-2.2739582,0.37819514
10.871913000000001,-2.2739582,0.37819514
7.721883,-2.2739582,0.40691882
7.721883,-2.2739582,0.40691882
7.721883,-2.2739582,0.40691882
7.721883,-2.2739582,0.40691882
7.6740103,-2.321831,0.20585304
7.6740103,-2.321831,0.20585304
7.6740103,-2.321831,0.20585304
7.6740103,-2.321831,0.20585304
9.167641999999999,-1.8814011999999998,0.6845810999999999
9.167641999999999,-1.8814011999999998,0.6845810999999999
9.167641999999999,-1.8814011999999998,0.6845810999999999
9.167641999999999,-1.8814011999999998,0.6845810999999999
10.259142,-2.2165107999999996,1.2207563999999997
10.259142,-2.2165107999999996,1.2207563999999997
10.259142,-2.2165107999999996,1.2207563999999997
10.259142,-2.2165107999999996,1.2207563999999997
11.274045,-1.9196993000000002,1.4984187
11.274045,-1.9196993000000002,1.4984187
11.274045,-1.9196993000000002,1.4984187
11.274045,-1.9196993000000002,1.4984187
11.465536,-1.3930986,1.9196993000000002
11.465536,-1.3930986,1.9196993000000002
11.465536,-1.3930986,1.9196993000000002
11.465536,-1.3930986,1.9196993000000002
9.225089,-1.8814011999999998,1.3548003
9.225089,-1.8814011999999998,1.3548003
9.225089,-1.8814011999999998,1.3548003
9.225089,-1.8814011999999998,1.3548003
11.685751,-1.8718264999999998,1.4122477
11.685751,-1.8718264999999998,1.4122477
11.685751,-1.8718264999999998,1.4122477
11.685751,-1.8718264999999998,1.4122477
8.583592999999999,-2.0824668,1.6994845
8.583592999999999,-2.0824668,1.6994845
8.583592999999999,-2.0824668,1.6994845
8.583592999999999,-2.0824668,1.6994845
8.545295,-1.7473572,2.0250196
8.545295,-1.7473572,2.0250196
8.545295,-1.7473572,2.0250196
8.545295,-1.7473572,2.0250196
9.904882,-1.7186337,2.1590632999999997
9.904882,-1.7186337,2.1590632999999997
9.904882,-1.7186337,2.1590632999999997
9.904882,-1.7186337,2.1590632999999997
9.904882,-1.7186337,2.1590632999999997
9.569773,-1.8909756999999998,1.9388485
9.569773,-1.8909756999999998,1.9388485
9.569773,-1.8909756999999998,1.9388485
8.708063000000001,-1.5941644,1.948423
8.708063000000001,-1.5941644,1.948423
8.708063000000001,-1.5941644,1.948423
8.708063000000001,-1.5941644,1.948423
10.058076,-1.3260766000000002,1.9101248
10.058076,-1.3260766000000002,1.9101248
10.058076,-1.3260766000000002,1.9101248
10.058076,-1.3260766000000002,1.9101248
13.524067,-1.948423,1.3452256999999999
13.524067,-1.948423,1.3452256999999999
13.524067,-1.948423,1.3452256999999999
13.524067,-1.948423,1.3452256999999999
12.509163000000001,-2.168638,1.0101161
12.509163000000001,-2.168638,1.0101161
12.509163000000001,-2.168638,1.0101161
12.509163000000001,-2.168638,1.0101161
11.4272375,-1.8718264999999998,0.39734426
11.4272375,-1.8718264999999998,0.39734426
11.4272375,-1.8718264999999998,0.39734426
11.4272375,-1.8718264999999998,0.39734426
9.684667999999999,-1.5654407,0.46436617
9.684667999999999,-1.5654407,0.46436617
9.684667999999999,-1.5654407,0.46436617
9.684667999999999,-1.5654407,0.46436617
7.5782647,-1.6037389,0.5888355
7.5782647,-1.6037389,0.5888355
7.5782647,-1.6037389,0.5888355
7.5782647,-1.6037389,0.5888355
6.9942164,-1.4122477,0.7994758000000001
6.9942164,-1.4122477,0.7994758000000001
6.9942164,-1.4122477,0.7994758000000001
6.9942164,-1.4122477,0.7994758000000001
9.215514,-1.3548003,1.0867126
9.215514,-1.3548003,1.0867126
9.215514,-1.3548003,1.0867126
9.215514,-1.3548003,1.0867126
9.215514,-1.3548003,1.0867126
11.235746,-1.4218222,1.2399056
11.235746,-1.4218222,1.2399056
11.235746,-1.4218222,1.2399056
13.093211,-1.469695,1.3260766000000002
13.093211,-1.469695,1.3260766000000002
13.093211,-1.469695,1.3260766000000002
13.093211,-1.469695,1.3260766000000002
13.4666195,-0.93351966,1.5845897
13.4666195,-0.93351966,1.5845897
13.4666195,-0.93351966,1.5845897
13.4666195,-0.93351966,1.5845897
13.4666195,-0.93351966,1.5845897
9.014449,-1.4218222,2.1111906000000005
9.014449,-1.4218222,2.1111906000000005
9.014449,-1.4218222,2.1111906000000005
10.278291000000001,-0.78990126,2.3314054
10.278291000000001,-0.78990126,2.3314054
10.278291000000001,-0.78990126,2.3314054
10.278291000000001,-0.78990126,2.3314054
10.278291000000001,-0.78990126,2.3314054
7.855927,-1.3069274,1.3165021000000001
7.855927,-1.3069274,1.3165021000000001
7.855927,-1.3069274,1.3165021000000001
7.855927,-1.3069274,1.3165021000000001
6.0463347,-1.4505458999999998,1.3739493999999999
6.0463347,-1.4505458999999998,1.3739493999999999
6.0463347,-1.4505458999999998,1.3739493999999999
7.2048570000000005,-1.862252,2.0058703
7.2048570000000005,-1.862252,2.0058703
7.2048570000000005,-1.862252,2.0058703
7.2048570000000005,-1.862252,2.0058703
7.2048570000000005,-1.862252,2.0058703
9.043172,-1.9771467,2.6090677
9.043172,-1.9771467,2.6090677
9.043172,-1.9771467,2.6090677
9.043172,-1.9771467,2.6090677
9.655944,-2.4367256,2.4367256
9.655944,-2.4367256,2.4367256
9.655944,-2.4367256,2.4367256
9.655944,-2.4367256,2.4367256
14.43365,-2.6760897999999997,1.9771467
14.43365,-2.6760897999999997,1.9771467
14.43365,-2.6760897999999997,1.9771467
14.43365,-2.6760897999999997,1.9771467
11.905966000000001,-2.5037475,2.0250196
11.905966000000001,-2.5037475,2.0250196
11.905966000000001,-2.5037475,2.0250196
11.905966000000001,-2.5037475,2.0250196
10.651698,-2.733537,1.3260766000000002
10.651698,-2.733537,1.3260766000000002
10.651698,-2.733537,1.3260766000000002
10.651698,-2.733537,1.3260766000000002
8.870830999999999,-1.6228879999999999,1.4792696
8.870830999999999,-1.6228879999999999,1.4792696
8.870830999999999,-1.6228879999999999,1.4792696
6.5729356,-1.9101248,1.1920328000000002
6.5729356,-1.9101248,1.1920328000000002
6.5729356,-1.9101248,1.1920328000000002
6.5729356,-1.9101248,1.1920328000000002
6.5729356,-1.9101248,1.1920328000000002
7.5495410000000005,-1.4122477,1.5175678999999997
7.5495410000000005,-1.4122477,1.5175678999999997
7.5495410000000005,-1.4122477,1.5175678999999997
7.5495410000000005,-1.4122477,1.5175678999999997
9.675094,-1.5941644,1.1728836
9.675094,-1.5941644,1.1728836
9.675094,-1.5941644,1.1728836
11.034680999999999,-1.7377827000000001,0.90479594
11.034680999999999,-1.7377827000000001,0.90479594
11.034680999999999,-1.7377827000000001,0.90479594
11.034680999999999,-1.7377827000000001,0.90479594
11.034680999999999,-1.7377827000000001,0.90479594
14.136839000000002,-1.2111819,0.92394507
14.136839000000002,-1.2111819,0.92394507
14.136839000000002,-1.2111819,0.92394507
14.136839000000002,-1.2111819,0.92394507
11.484685,-0.91437054,1.3452256999999999
11.484685,-0.91437054,1.3452256999999999
11.484685,-0.91437054,1.3452256999999999
11.484685,-0.91437054,1.3452256999999999
8.985725,-0.98139244,1.8526775000000002
8.985725,-0.98139244,1.8526775000000002
8.985725,-0.98139244,1.8526775000000002
8.985725,-0.98139244,1.8526775000000002
10.163396,-0.56968635,2.2069361
10.163396,-0.56968635,2.2069361
10.163396,-0.56968635,2.2069361
10.163396,-0.56968635,2.2069361
7.855927,-1.709059,1.6516117
7.855927,-1.709059,1.6516117
7.855927,-1.709059,1.6516117
7.855927,-1.709059,1.6516117
6.3431463,-1.5462915000000002,1.862252
6.3431463,-1.5462915000000002,1.862252
6.3431463,-1.5462915000000002,1.862252
6.3431463,-1.5462915000000002,1.862252
6.620808599999999,-1.6611862000000002,2.0058703
6.620808599999999,-1.6611862000000002,2.0058703
6.620808599999999,-1.6611862000000002,2.0058703
6.620808599999999,-1.6611862000000002,2.0058703
8.976150500000001,-2.0824668,2.427151
8.976150500000001,-2.0824668,2.427151
8.976150500000001,-2.0824668,2.427151
11.207023,-2.4750240000000003,2.5037475
11.207023,-2.4750240000000003,2.5037475
11.207023,-2.4750240000000003,2.5037475
11.207023,-2.4750240000000003,2.5037475
11.207023,-2.4750240000000003,2.5037475
15.276210999999998,-2.5803439999999997,2.1973617
15.276210999999998,-2.5803439999999997,2.1973617
15.276210999999998,-2.5803439999999997,2.1973617
15.276210999999998,-2.5803439999999997,2.1973617
10.766592999999999,-2.4175766,1.862252
10.766592999999999,-2.4175766,1.862252
10.766592999999999,-2.4175766,1.862252
10.766592999999999,-2.1590632999999997,1.2782038
10.766592999999999,-2.1590632999999997,1.2782038
10.766592999999999,-2.1590632999999997,1.2782038
10.766592999999999,-2.1590632999999997,1.2782038
10.766592999999999,-2.1590632999999997,1.2782038
8.593167999999999,-1.6228879999999999,1.2111819
8.593167999999999,-1.6228879999999999,1.2111819
8.593167999999999,-1.6228879999999999,1.2111819
8.593167999999999,-1.6228879999999999,1.2111819
6.438892,-1.2590546999999999,1.3548003
6.438892,-1.2590546999999999,1.3548003
6.438892,-1.2590546999999999,1.3548003
6.4197426,-1.3643749,1.1728836
6.4197426,-1.3643749,1.1728836
6.4197426,-1.3643749,1.1728836
6.4197426,-1.3643749,1.1728836
6.4197426,-1.3643749,1.1728836
9.655944,-1.3356511999999998,1.0867126
9.655944,-1.3356511999999998,1.0867126
9.655944,-1.3356511999999998,1.0867126
9.655944,-1.3356511999999998,1.0867126
12.183628,-1.2303311000000001,1.3548003
12.183628,-1.2303311000000001,1.3548003
12.183628,-1.2303311000000001,1.3548003
12.183628,-1.2303311000000001,1.3548003
13.390023000000001,-1.3930986,1.4026731000000001
13.390023000000001,-1.3930986,1.4026731000000001
13.390023000000001,-1.3930986,1.4026731000000001
13.390023000000001,-1.3930986,1.4026731000000001
12.6527815,-1.8909756999999998,1.2016073
12.6527815,-1.8909756999999998,1.2016073
12.6527815,-1.8909756999999998,1.2016073
12.6527815,-1.8909756999999998,1.2016073
8.918703,-1.5079931999999998,1.6228879999999999
8.918703,-1.5079931999999998,1.6228879999999999
8.918703,-1.5079931999999998,1.6228879999999999
8.918703,-1.5079931999999998,1.6228879999999999
9.85701,-0.5313880999999999,2.1303396
9.85701,-0.5313880999999999,2.1303396
9.85701,-0.5313880999999999,2.1303396
9.85701,-0.5313880999999999,2.1303396
7.195282000000001,-1.0579889,1.709059
7.195282000000001,-1.0579889,1.709059
7.195282000000001,-1.0579889,1.709059
7.195282000000001,-1.0579889,1.709059
5.9027166,-1.0962871,1.862252
5.9027166,-1.0962871,1.862252
5.9027166,-1.0962871,1.862252
5.9027166,-1.0962871,1.862252
7.0133657000000005,-2.5037475,1.9005502
7.0133657000000005,-2.5037475,1.9005502
7.0133657000000005,-2.5037475,1.9005502
7.0133657000000005,-2.5037475,1.9005502
9.320834,-2.254809,2.6377914000000002
9.320834,-2.254809,2.6377914000000002
9.320834,-2.254809,2.6377914000000002
9.320834,-2.254809,2.6377914000000002
10.852764,-1.8909756999999998,2.800559
10.852764,-1.8909756999999998,2.800559
10.852764,-1.8909756999999998,2.800559
10.852764,-1.8909756999999998,2.800559
14.424075,-3.5378,1.7569318999999999
14.424075,-3.5378,1.7569318999999999
14.424075,-3.5378,1.7569318999999999
14.424075,-3.5378,1.7569318999999999
11.590005999999999,-3.3941817000000003,1.3643749
11.590005999999999,-3.3941817000000003,1.3643749
11.590005999999999,-3.3941817000000003,1.3643749
11.590005999999999,-3.3941817000000003,1.3643749
11.092129,-2.494173,1.4122477
11.092129,-2.494173,1.4122477
11.092129,-2.494173,1.4122477
11.092129,-2.494173,1.4122477
9.100619,-1.2016073,1.4122477
9.100619,-1.2016073,1.4122477
9.100619,-1.2016073,1.4122477
9.100619,-1.2016073,1.4122477
6.256975,-1.2399056,1.2973529
6.256975,-1.2399056,1.2973529
6.256975,-1.2399056,1.2973529
6.256975,-1.2399056,1.2973529
6.2378263,-0.98139244,1.4218222
6.2378263,-0.98139244,1.4218222
6.2378263,-0.98139244,1.4218222
6.2378263,-0.98139244,1.4218222
9.502751,-1.5367169,1.3548003
9.502751,-1.5367169,1.3548003
9.502751,-1.5367169,1.3548003
9.502751,-1.5367169,1.3548003
12.738953,-1.6803354,1.3930986
12.738953,-1.6803354,1.3930986
12.738953,-1.6803354,1.3930986
12.738953,-1.6803354,1.3930986
12.738953,-1.6803354,1.3930986
11.953838000000001,-1.5558661,1.4984187
11.953838000000001,-1.5558661,1.4984187
11.953838000000001,-1.5558661,1.4984187
12.509163000000001,-1.1154363,1.5079931999999998
12.509163000000001,-1.1154363,1.5079931999999998
12.509163000000001,-1.1154363,1.5079931999999998
12.509163000000001,-1.1154363,1.5079931999999998
9.665519,-1.7473572,1.5845897
9.665519,-1.7473572,1.5845897
9.665519,-1.7473572,1.5845897
9.665519,-1.7473572,1.5845897
9.665519,-1.7473572,1.5845897
10.105948,-0.8664976999999999,2.1590632999999997
10.105948,-0.8664976999999999,2.1590632999999997
10.105948,-0.8664976999999999,2.1590632999999997
8.047417999999999,-1.1345854,1.8431028999999999
8.047417999999999,-1.1345854,1.8431028999999999
8.047417999999999,-1.1345854,1.8431028999999999
8.047417999999999,-1.1345854,1.8431028999999999
5.941015,-1.2303311000000001,2.0250196
5.941015,-1.2303311000000001,2.0250196
5.941015,-1.2303311000000001,2.0250196
5.941015,-1.2303311000000001,2.0250196
6.783575999999999,-1.9196993000000002,2.1973617
6.783575999999999,-1.9196993000000002,2.1973617
6.783575999999999,-1.9196993000000002,2.1973617
6.783575999999999,-1.9196993000000002,2.1973617
8.487848,-2.4175766,2.3314054
8.487848,-2.4175766,2.3314054
8.487848,-2.4175766,2.3314054
8.487848,-2.4175766,2.3314054
11.044255,-2.4175766,2.7622607000000006
11.044255,-2.4175766,2.7622607000000006
11.044255,-2.4175766,2.7622607000000006
11.044255,-2.4175766,2.7622607000000006
13.409172,-2.2356597999999996,2.3314054
13.409172,-2.2356597999999996,2.3314054
13.409172,-2.2356597999999996,2.3314054
13.409172,-2.2356597999999996,2.3314054
13.074062,-2.5324712000000003,2.2931072999999995
13.074062,-2.5324712000000003,2.2931072999999995
13.074062,-2.5324712000000003,2.2931072999999995
13.074062,-2.5324712000000003,2.2931072999999995
10.536804,-2.494173,1.8239537000000001
10.536804,-2.494173,1.8239537000000001
10.536804,-2.494173,1.8239537000000001
10.536804,-2.494173,1.8239537000000001
9.665519,-1.3548003,1.6611862000000002
9.665519,-1.3548003,1.6611862000000002
9.665519,-1.3548003,1.6611862000000002
9.665519,-1.3548003,1.6611862000000002
6.7548523000000005,-1.3165021000000001,1.4313968000000001
6.7548523000000005,-1.3165021000000001,1.4313968000000001
6.7548523000000005,-1.3165021000000001,1.4313968000000001
6.7548523000000005,-1.3165021000000001,1.4313968000000001
5.7686725,-1.9675721999999998,1.0771381000000002
5.7686725,-1.9675721999999998,1.0771381000000002
5.7686725,-1.9675721999999998,1.0771381000000002
5.7686725,-1.9675721999999998,1.0771381000000002
8.822957,-1.4792696,1.3356511999999998
8.822957,-1.4792696,1.3356511999999998
8.822957,-1.4792696,1.3356511999999998
8.822957,-1.4792696,1.3356511999999998
12.327247,-1.5462915000000002,1.0962871
12.327247,-1.5462915000000002,1.0962871
12.327247,-1.5462915000000002,1.0962871
12.327247,-1.5462915000000002,1.0962871
12.8538475,-1.5079931999999998,1.0101161
12.8538475,-1.5079931999999998,1.0101161
12.8538475,-1.5079931999999998,1.0101161
12.8538475,-1.5079931999999998,1.0101161
12.528313,-1.3356511999999998,1.3165021000000001
12.528313,-1.3356511999999998,1.3165021000000001
12.528313,-1.3356511999999998,1.3165021000000001
12.528313,-1.3356511999999998,1.3165021000000001
9.167641999999999,-1.7282081999999999,1.7856555
9.167641999999999,-1.7282081999999999,1.7856555
9.167641999999999,-1.7282081999999999,1.7856555
9.167641999999999,-1.7282081999999999,1.7856555
9.177217,-1.5462915000000002,2.321831
9.177217,-1.5462915000000002,2.321831
9.177217,-1.5462915000000002,2.321831
9.177217,-1.5462915000000002,2.321831
8.066567,-1.3739493999999999,2.6282167000000003
8.066567,-1.3739493999999999,2.6282167000000003
8.066567,-1.3739493999999999,2.6282167000000003
8.066567,-1.3739493999999999,2.6282167000000003
6.0176110000000005,-1.3356511999999998,2.733537
6.0176110000000005,-1.3356511999999998,2.733537
6.0176110000000005,-1.3356511999999998,2.733537
6.0176110000000005,-1.3356511999999998,2.733537
6.7357035000000005,-2.2452345,2.494173
6.7357035000000005,-2.2452345,2.494173
6.7357035000000005,-2.2452345,2.494173
8.909127999999999,-2.1782124,3.0111992
8.909127999999999,-2.1782124,3.0111992
8.909127999999999,-2.1782124,3.0111992
8.909127999999999,-2.1782124,3.0111992
8.909127999999999,-2.1782124,3.0111992
9.7899885,-2.3888528,3.2601378
9.7899885,-2.3888528,3.2601378
9.7899885,-2.3888528,3.2601378
10.019777000000001,-3.0016246,2.800559
10.019777000000001,-3.0016246,2.800559
10.019777000000001,-3.0016246,2.800559
10.019777000000001,-3.0016246,2.800559
13.99322,-3.0207740000000003,2.4845984
13.99322,-3.0207740000000003,2.4845984
13.99322,-3.0207740000000003,2.4845984
13.99322,-3.0207740000000003,2.4845984
11.446387,-3.1643922000000004,2.1877869999999997
11.446387,-3.1643922000000004,2.1877869999999997
11.446387,-3.1643922000000004,2.1877869999999997
11.446387,-3.1643922000000004,2.1877869999999997
9.655944,-3.1739669999999998,1.4984187
9.655944,-3.1739669999999998,1.4984187
9.655944,-3.1739669999999998,1.4984187
9.655944,-3.1739669999999998,1.4984187
8.842107,-2.149489,1.1154363
8.842107,-2.149489,1.1154363
8.842107,-2.149489,1.1154363
8.842107,-2.149489,1.1154363
8.018694,-1.9005502,0.7420284
8.018694,-1.9005502,0.7420284
8.018694,-1.9005502,0.7420284
8.018694,-1.9005502,0.7420284
8.018694,-2.0250196,0.26330042
8.018694,-2.0250196,0.26330042
8.018694,-2.0250196,0.26330042
8.315506,-2.254809,0.023936402000000002
8.315506,-2.254809,0.023936402000000002
8.315506,-2.254809,0.023936402000000002
8.315506,-2.254809,0.023936402000000002
8.315506,-2.254809,0.023936402000000002
8.746361,-2.3026817000000004,0.15798025
8.746361,-2.3026817000000004,0.15798025
8.746361,-2.3026817000000004,0.15798025
9.780414,-2.3792782000000003,0.6558574
9.780414,-2.3792782000000003,0.6558574
9.780414,-2.3792782000000003,0.6558574
9.780414,-2.3792782000000003,0.6558574
10.010203,-2.3984275,1.5845897
10.010203,-2.3984275,1.5845897
10.010203,-2.3984275,1.5845897
10.010203,-2.3984275,1.5845897
10.843189,-1.5941644,2.168638
10.843189,-1.5941644,2.168638
10.843189,-1.5941644,2.168638
10.843189,-1.5941644,2.168638
9.550624000000001,-2.0058703,2.0824668
9.550624000000001,-2.0058703,2.0824668
9.550624000000001,-2.0058703,2.0824668
9.550624000000001,-2.0058703,2.0824668
9.770839,-2.9250283,1.6516117
9.770839,-2.9250283,1.6516117
9.770839,-2.9250283,1.6516117
9.770839,-2.9250283,1.6516117
10.546378,-1.9867213,1.862252
10.546378,-1.9867213,1.862252
10.546378,-1.9867213,1.862252
10.546378,-1.9867213,1.862252
8.439975,-2.1877869999999997,1.383524
8.439975,-2.1877869999999997,1.383524
8.439975,-2.1877869999999997,1.383524
8.439975,-2.1877869999999997,1.383524
8.918703,-1.9962958,1.4026731000000001
8.918703,-1.9962958,1.4026731000000001
8.918703,-1.9962958,1.4026731000000001
9.493176,-2.4558747000000003,2.0250196
9.493176,-2.4558747000000003,2.0250196
9.493176,-2.4558747000000003,2.0250196
9.493176,-2.4558747000000003,2.0250196
9.493176,-2.4558747000000003,2.0250196
9.301685,-2.3505547000000004,2.5324712000000003
9.301685,-2.3505547000000004,2.5324712000000003
9.301685,-2.3505547000000004,2.5324712000000003
8.784659,-2.321831,2.7048132000000003
8.784659,-2.321831,2.7048132000000003
8.784659,-2.321831,2.7048132000000003
8.784659,-2.321831,2.7048132000000003
9.474028,-2.2739582,2.408002
9.474028,-2.2739582,2.408002
9.474028,-2.2739582,2.408002
9.474028,-2.2739582,2.408002
10.699572,-2.5324712000000003,1.7282081999999999
10.699572,-2.5324712000000003,1.7282081999999999
10.699572,-2.5324712000000003,1.7282081999999999
10.699572,-2.5324712000000003,1.7282081999999999
12.8538475,-2.7239625,1.3643749
12.8538475,-2.7239625,1.3643749
12.8538475,-2.7239625,1.3643749
12.8538475,-2.7239625,1.3643749
10.383611,-2.5994933,0.6271336999999999
10.383611,-2.5994933,0.6271336999999999
10.383611,-2.5994933,0.6271336999999999
10.383611,-2.5994933,0.6271336999999999
10.06765,-2.4367256,0.44521707
10.06765,-2.4367256,0.44521707
10.06765,-2.4367256,0.44521707
8.258059,-2.34098,0.56968635
8.258059,-2.34098,0.56968635
8.258059,-2.34098,0.56968635
8.258059,-2.34098,0.56968635
8.717637,-2.1782124,0.7994758000000001
8.717637,-2.1782124,0.7994758000000001
8.717637,-2.1782124,0.7994758000000001
8.717637,-2.1782124,0.7994758000000001
10.220842999999999,-2.0537431,1.1728836
10.220842999999999,-2.0537431,1.1728836
10.220842999999999,-2.0537431,1.1728836
10.220842999999999,-2.0537431,1.1728836
10.776167999999998,-2.0250196,1.3930986
10.776167999999998,-2.0250196,1.3930986
10.776167999999998,-2.0250196,1.3930986
10.776167999999998,-2.0250196,1.3930986
11.283619999999999,-1.3930986,1.5079931999999998
11.283619999999999,-1.3930986,1.5079931999999998
11.283619999999999,-1.3930986,1.5079931999999998
11.283619999999999,-1.3930986,1.5079931999999998
12.834699,-0.665432,1.9388485
12.834699,-0.665432,1.9388485
12.834699,-0.665432,1.9388485
12.834699,-0.665432,1.9388485
11.130426,-0.2441513,2.0058703
11.130426,-0.2441513,2.0058703
11.130426,-0.2441513,2.0058703
9.569773,-1.1058618,1.8143792
9.569773,-1.1058618,1.8143792
9.569773,-1.1058618,1.8143792
9.569773,-1.1058618,1.8143792
9.569773,-1.1058618,1.8143792
10.010203,-1.1154363,1.9771467
10.010203,-1.1154363,1.9771467
10.010203,-1.1154363,1.9771467
8.286782,-0.9718179,2.2356597999999996
8.286782,-0.9718179,2.2356597999999996
8.286782,-0.9718179,2.2356597999999996
8.286782,-0.9718179,2.2356597999999996
6.458041000000001,-1.2016073,2.4367256
6.458041000000001,-1.2016073,2.4367256
6.458041000000001,-1.2016073,2.4367256
6.458041000000001,-1.2016073,2.4367256
7.4250717,-2.254809,2.2835326
7.4250717,-2.254809,2.2835326
7.4250717,-2.254809,2.2835326
7.4250717,-2.254809,2.2835326
9.100619,-2.2356597999999996,2.5228968
9.100619,-2.2356597999999996,2.5228968
9.100619,-2.2356597999999996,2.5228968
9.100619,-2.2356597999999996,2.5228968
10.364462,-2.168638,2.3026817000000004
10.364462,-2.168638,2.3026817000000004
10.364462,-2.168638,2.3026817000000004
10.364462,-2.168638,2.3026817000000004
14.32833,-2.3888528,1.5271424
14.32833,-2.3888528,1.5271424
14.32833,-2.3888528,1.5271424
14.32833,-2.3888528,1.5271424
12.164479,-2.408002,1.6037389
12.164479,-2.408002,1.6037389
12.164479,-2.408002,1.6037389
11.867668,-1.6994845,2.0441686999999997
11.867668,-1.6994845,2.0441686999999997
11.867668,-1.6994845,2.0441686999999997
11.867668,-1.6994845,2.0441686999999997
9.426155,-1.2686293,1.4505458999999998
9.426155,-1.2686293,1.4505458999999998
9.426155,-1.2686293,1.4505458999999998
9.426155,-1.2686293,1.4505458999999998
6.6016593,-1.5367169,1.0867126
6.6016593,-1.5367169,1.0867126
6.6016593,-1.5367169,1.0867126
6.6016593,-1.5367169,1.0867126
6.611234,-1.2686293,1.0867126
6.611234,-1.2686293,1.0867126
6.611234,-1.2686293,1.0867126
6.611234,-1.2686293,1.0867126
9.617646,-1.2303311000000001,1.0675635
9.617646,-1.2303311000000001,1.0675635
9.617646,-1.2303311000000001,1.0675635
9.617646,-1.2303311000000001,1.0675635
11.226172,-1.4218222,1.2111819
11.226172,-1.4218222,1.2111819
11.226172,-1.4218222,1.2111819
11.226172,-1.4218222,1.2111819
12.911294999999999,-0.69415563,1.4888442
12.911294999999999,-0.69415563,1.4888442
12.911294999999999,-0.69415563,1.4888442
12.911294999999999,-0.69415563,1.4888442
11.838944,-1.2877783999999999,1.5175678999999997
11.838944,-1.2877783999999999,1.5175678999999997
11.838944,-1.2877783999999999,1.5175678999999997
11.838944,-1.2877783999999999,1.5175678999999997
9.158066999999999,-1.6133133999999998,2.1782124
9.158066999999999,-1.6133133999999998,2.1782124
9.158066999999999,-1.6133133999999998,2.1782124
9.158066999999999,-1.6133133999999998,2.1782124
9.96233,-0.36862057,2.9537517999999996
9.96233,-0.36862057,2.9537517999999996
9.96233,-0.36862057,2.9537517999999996
7.5495410000000005,-1.4026731000000001,2.168638
7.5495410000000005,-1.4026731000000001,2.168638
7.5495410000000005,-1.4026731000000001,2.168638
7.5495410000000005,-1.4026731000000001,2.168638
5.634629,-1.9005502,2.0058703
5.634629,-1.9005502,2.0058703
5.634629,-1.9005502,2.0058703
5.634629,-1.9005502,2.0058703
6.821874,-2.2165107999999996,2.3792782000000003
6.821874,-2.2165107999999996,2.3792782000000003
6.821874,-2.2165107999999996,2.3792782000000003
6.821874,-2.2165107999999996,2.3792782000000003
8.928278,-2.2356597999999996,2.8197080000000003
8.928278,-2.2356597999999996,2.8197080000000003
8.928278,-2.2356597999999996,2.8197080000000003
8.928278,-2.2356597999999996,2.8197080000000003
11.130426,-2.494173,2.5420458
11.130426,-2.494173,2.5420458
11.130426,-2.494173,2.5420458
11.130426,-2.494173,2.5420458
15.707067000000002,-3.2026904,2.034594
15.707067000000002,-3.2026904,2.034594
15.707067000000002,-3.2026904,2.034594
10.92936,-2.9346027,1.9867213
10.92936,-2.9346027,1.9867213
10.92936,-2.9346027,1.9867213
10.92936,-2.9346027,1.9867213
10.92936,-2.9346027,1.9867213
11.283619999999999,-2.4845984,2.168638
11.283619999999999,-2.4845984,2.168638
11.283619999999999,-2.4845984,2.168638
11.283619999999999,-2.4845984,2.168638
8.937852000000001,-1.8239537000000001,1.7569318999999999
8.937852000000001,-1.8239537000000001,1.7569318999999999
8.937852000000001,-1.8239537000000001,1.7569318999999999
8.937852000000001,-1.8239537000000001,1.7569318999999999
6.8601727,-1.7377827000000001,1.2877783999999999
6.8601727,-1.7377827000000001,1.2877783999999999
6.8601727,-1.7377827000000001,1.2877783999999999
6.8601727,-1.7377827000000001,1.2877783999999999
6.391019,-1.4026731000000001,1.1633091
6.391019,-1.4026731000000001,1.1633091
6.391019,-1.4026731000000001,1.1633091
6.391019,-1.4026731000000001,1.1633091
9.091045,-1.2494801000000002,1.1633091
9.091045,-1.2494801000000002,1.1633091
9.091045,-1.2494801000000002,1.1633091
9.091045,-1.2494801000000002,1.1633091
11.858092999999998,-1.2782038,0.99096704
11.858092999999998,-1.2782038,0.99096704
11.858092999999998,-1.2782038,0.99096704
11.858092999999998,-1.2782038,0.99096704
13.275128,-0.7228793,1.0101161
13.275128,-0.7228793,1.0101161
13.275128,-0.7228793,1.0101161
13.275128,-0.7228793,1.0101161
12.327247,-0.18670394,2.0920415
12.327247,-0.18670394,2.0920415
12.327247,-0.18670394,2.0920415
12.327247,-0.18670394,2.0920415
9.20594,-1.3930986,1.9867213
9.20594,-1.3930986,1.9867213
9.20594,-1.3930986,1.9867213
9.20594,-1.3930986,1.9867213
9.20594,-1.3930986,1.9867213
9.914457,-1.469695,2.254809
9.914457,-1.469695,2.254809
9.914457,-1.469695,2.254809
7.741032000000001,-1.8909756999999998,1.9867213
7.741032000000001,-1.8909756999999998,1.9867213
7.741032000000001,-1.8909756999999998,1.9867213
7.741032000000001,-1.8909756999999998,1.9867213
6.113357,-1.8814011999999998,2.1111906000000005
6.113357,-1.8814011999999998,2.1111906000000005
6.113357,-1.8814011999999998,2.1111906000000005
6.113357,-1.8814011999999998,2.1111906000000005
6.764427,-2.4845984,2.1782124
6.764427,-2.4845984,2.1782124
6.764427,-2.4845984,2.1782124
6.764427,-2.4845984,2.1782124
9.138917999999999,-2.3792782000000003,2.9441773999999996
9.138917999999999,-2.3792782000000003,2.9441773999999996
9.138917999999999,-2.3792782000000003,2.9441773999999996
9.138917999999999,-2.3792782000000003,2.9441773999999996
10.996383,-2.8484317999999997,2.7239625
10.996383,-2.8484317999999997,2.7239625
10.996383,-2.8484317999999997,2.7239625
10.996383,-2.8484317999999997,2.7239625
15.142167,-3.193116,2.4463003
15.142167,-3.193116,2.4463003
15.142167,-3.193116,2.4463003
10.460207,-2.8771553,2.101616
10.460207,-2.8771553,2.101616
10.460207,-2.8771553,2.101616
10.460207,-2.8771553,2.101616
10.651698,-1.8526775000000002,1.6516117
10.651698,-1.8526775000000002,1.6516117
10.651698,-1.8526775000000002,1.6516117
10.651698,-1.8526775000000002,1.6516117
8.353804,-0.5505372,1.3930986
8.353804,-0.5505372,1.3930986
8.353804,-0.5505372,1.3930986
8.353804,-0.5505372,1.3930986
8.353804,-0.5505372,1.3930986
6.4197426,-1.2016073,0.665432
6.4197426,-1.2016073,0.665432
6.4197426,-1.2016073,0.665432
7.5399666,-0.90479594,0.6558574
7.5399666,-0.90479594,0.6558574
7.5399666,-0.90479594,0.6558574
7.5399666,-0.90479594,0.6558574
10.345312,-1.0196906,0.8090504
10.345312,-1.0196906,0.8090504
10.345312,-1.0196906,0.8090504
10.345312,-1.0196906,0.8090504
10.345312,-1.0196906,0.8090504
11.982562,-1.4888442,1.1728836
11.982562,-1.4888442,1.1728836
11.982562,-1.4888442,1.1728836
13.418745999999999,-0.91437054,1.4026731000000001
13.418745999999999,-0.91437054,1.4026731000000001
13.418745999999999,-0.91437054,1.4026731000000001
13.418745999999999,-0.91437054,1.4026731000000001
10.249566999999999,-1.2303311000000001,1.5367169
10.249566999999999,-1.2303311000000001,1.5367169
10.249566999999999,-1.2303311000000001,1.5367169
10.249566999999999,-1.2303311000000001,1.5367169
10.249566999999999,-1.2303311000000001,1.5367169
9.64637,-1.0579889,2.0058703
9.64637,-1.0579889,2.0058703
9.64637,-1.0579889,2.0058703
9.454879,-1.0771381000000002,2.1303396
9.454879,-1.0771381000000002,2.1303396
9.454879,-1.0771381000000002,2.1303396
9.454879,-1.0771381000000002,2.1303396
7.5782647,-1.2016073,1.9579976000000003
7.5782647,-1.2016073,1.9579976000000003
7.5782647,-1.2016073,1.9579976000000003
7.5782647,-1.2016073,1.9579976000000003
6.726128599999999,-1.4984187,2.015445
6.726128599999999,-1.4984187,2.015445
6.726128599999999,-1.4984187,2.015445
6.726128599999999,-1.4984187,2.015445
7.300602400000001,-1.9579976000000003,2.2260852000000004
7.300602400000001,-1.9579976000000003,2.2260852000000004
7.300602400000001,-1.9579976000000003,2.2260852000000004
7.300602400000001,-1.9579976000000003,2.2260852000000004
9.809137,-2.3122563,2.3792782000000003
9.809137,-2.3122563,2.3792782000000003
9.809137,-2.3122563,2.3792782000000003
9.809137,-2.3122563,2.3792782000000003
12.528313,-2.2356597999999996,2.149489
12.528313,-2.2356597999999996,2.149489
12.528313,-2.2356597999999996,2.149489
12.528313,-2.2356597999999996,2.149489
14.577269,-3.0207740000000003,2.3314054
14.577269,-3.0207740000000003,2.3314054
14.577269,-3.0207740000000003,2.3314054
14.577269,-3.0207740000000003,2.3314054
10.833615,-2.3697037999999995,2.0824668
10.833615,-2.3697037999999995,2.0824668
10.833615,-2.3697037999999995,2.0824668
10.833615,-2.3697037999999995,2.0824668
10.364462,-1.0005416,1.709059
10.364462,-1.0005416,1.709059
10.364462,-1.0005416,1.709059
10.364462,-1.0005416,1.709059
6.8122997000000005,-1.0579889,1.0484143
6.8122997000000005,-1.0579889,1.0484143
6.8122997000000005,-1.0579889,1.0484143
5.979312999999999,-1.2782038,0.6558574
5.979312999999999,-1.2782038,0.6558574
5.979312999999999,-1.2782038,0.6558574
5.979312999999999,-1.2782038,0.6558574
5.979312999999999,-1.2782038,0.6558574
8.947427000000001,-0.59841,1.0675635
8.947427000000001,-0.59841,1.0675635
8.947427000000001,-0.59841,1.0675635
8.947427000000001,-0.59841,1.0675635
10.938935,-0.9430941999999999,0.93351966
10.938935,-0.9430941999999999,0.93351966
10.938935,-0.9430941999999999,0.93351966
10.938935,-0.9430941999999999,0.93351966
12.413418,-1.469695,1.1058618
12.413418,-1.469695,1.1058618
12.413418,-1.469695,1.1058618
12.413418,-1.469695,1.1058618
13.801729000000002,-0.85692316,1.8335283
13.801729000000002,-0.85692316,1.8335283
13.801729000000002,-0.85692316,1.8335283
13.801729000000002,-0.85692316,1.8335283
9.359133,-1.5462915000000002,1.9579976000000003
9.359133,-1.5462915000000002,1.9579976000000003
9.359133,-1.5462915000000002,1.9579976000000003
9.359133,-1.5462915000000002,1.9579976000000003
10.383611,-0.6750065,2.4558747000000003
10.383611,-0.6750065,2.4558747000000003
10.383611,-0.6750065,2.4558747000000003
10.383611,-0.6750065,2.4558747000000003
8.688913000000001,-0.8952214,1.9867213
8.688913000000001,-0.8952214,1.9867213
8.688913000000001,-0.8952214,1.9867213
8.688913000000001,-0.8952214,1.9867213
6.113357,-0.50266445,1.9771467
6.113357,-0.50266445,1.9771467
6.113357,-0.50266445,1.9771467
5.739949,-1.3643749,1.6516117
5.739949,-1.3643749,1.6516117
5.739949,-1.3643749,1.6516117
5.739949,-1.3643749,1.6516117
8.277207,-1.8143792,2.0537431
8.277207,-1.8143792,2.0537431
8.277207,-1.8143792,2.0537431
8.277207,-1.8143792,2.0537431
10.345312,-2.7239625,2.2835326
10.345312,-2.7239625,2.2835326
10.345312,-2.7239625,2.2835326
10.345312,-2.7239625,2.2835326
14.529395000000001,-2.7622607000000006,2.5899186000000003
14.529395000000001,-2.7622607000000006,2.5899186000000003
14.529395000000001,-2.7622607000000006,2.5899186000000003
14.529395000000001,-2.7622607000000006,2.5899186000000003
13.227255,-2.2739582,2.8101335
13.227255,-2.2739582,2.8101335
13.227255,-2.2739582,2.8101335
13.227255,-2.2739582,2.8101335
10.622974000000001,-2.2165107999999996,1.6994845
10.622974000000001,-2.2165107999999996,1.6994845
10.622974000000001,-2.2165107999999996,1.6994845
10.622974000000001,-2.2165107999999996,1.6994845
10.019777000000001,-1.7186337,1.0771381000000002
10.019777000000001,-1.7186337,1.0771381000000002
10.019777000000001,-1.7186337,1.0771381000000002
7.291027499999999,-1.8239537000000001,0.8186249
7.291027499999999,-1.8239537000000001,0.8186249
7.291027499999999,-1.8239537000000001,0.8186249
7.291027499999999,-1.8239537000000001,0.8186249
7.291027499999999,-1.8239537000000001,0.8186249
6.5633610000000004,-1.4505458999999998,0.665432
6.5633610000000004,-1.4505458999999998,0.665432
6.5633610000000004,-1.4505458999999998,0.665432
6.5633610000000004,-1.4505458999999998,0.665432
8.861256,-1.3930986,0.43564250000000004
8.861256,-1.3930986,0.43564250000000004
8.861256,-1.3930986,0.43564250000000004
11.848517999999999,-1.6324625,0.25372586
11.848517999999999,-1.6324625,0.25372586
11.848517999999999,-1.6324625,0.25372586
11.848517999999999,-1.6324625,0.25372586
11.848517999999999,-1.6324625,0.25372586
12.375119,-1.6994845,0.78032666
12.375119,-1.6994845,0.78032666
12.375119,-1.6994845,0.78032666
11.005958,-1.4218222,1.4313968000000001
11.005958,-1.4218222,1.4313968000000001
11.005958,-1.4218222,1.4313968000000001
11.005958,-1.4218222,1.4313968000000001
9.20594,-1.862252,1.9005502
9.20594,-1.862252,1.9005502
9.20594,-1.862252,1.9005502
9.20594,-1.862252,1.9005502
9.20594,-1.862252,1.9005502
9.579348,-1.6803354,2.2165107999999996
9.579348,-1.6803354,2.2165107999999996
9.579348,-1.6803354,2.2165107999999996
8.152739,-1.3069274,2.2260852000000004
8.152739,-1.3069274,2.2260852000000004
8.152739,-1.3069274,2.2260852000000004
8.152739,-1.3069274,2.2260852000000004
6.3622955999999995,-1.9867213,1.8814011999999998
6.3622955999999995,-1.9867213,1.8814011999999998
6.3622955999999995,-1.9867213,1.8814011999999998
6.3622955999999995,-1.9867213,1.8814011999999998
7.051664,-2.3697037999999995,1.9579976000000003
7.051664,-2.3697037999999995,1.9579976000000003
7.051664,-2.3697037999999995,1.9579976000000003
7.051664,-2.3697037999999995,1.9579976000000003
8.621891999999999,-2.2260852000000004,2.4845984
8.621891999999999,-2.2260852000000004,2.4845984
8.621891999999999,-2.2260852000000004,2.4845984
8.621891999999999,-2.2260852000000004,2.4845984
8.650616000000001,-2.4654493,2.5324712000000003
8.650616000000001,-2.4654493,2.5324712000000003
8.650616000000001,-2.4654493,2.5324712000000003
8.650616000000001,-2.4654493,2.5324712000000003
8.985725,-2.972901,2.1973617
8.985725,-2.972901,2.1973617
8.985725,-2.972901,2.1973617
8.985725,-2.972901,2.1973617
13.035764,-3.078221,1.8909756999999998
13.035764,-3.078221,1.8909756999999998
13.035764,-3.078221,1.8909756999999998
13.035764,-3.078221,1.8909756999999998
11.484685,-2.8580062,0.9718179
11.484685,-2.8580062,0.9718179
11.484685,-2.8580062,0.9718179
11.484685,-2.8580062,0.9718179
11.944264,-3.0303482999999996,0.26330042
11.944264,-3.0303482999999996,0.26330042
11.944264,-3.0303482999999996,0.26330042
11.944264,-3.0303482999999996,0.26330042
8.727212,-2.0728923999999997,0.59841
8.727212,-2.0728923999999997,0.59841
8.727212,-2.0728923999999997,0.59841
8.727212,-2.0728923999999997,0.59841
7.7793303,-1.9867213,0.5888355
7.7793303,-1.9867213,0.5888355
7.7793303,-1.9867213,0.5888355
7.7793303,-1.9867213,0.5888355
8.4686985,-1.469695,0.2920241
8.4686985,-1.469695,0.2920241
8.4686985,-1.469695,0.2920241
8.4686985,-1.469695,0.2920241
9.914457,-2.0824668,0.34947145
9.914457,-2.0824668,0.34947145
9.914457,-2.0824668,0.34947145
9.914457,-2.0824668,0.34947145
10.431483,-2.1877869999999997,0.91437054
10.431483,-2.1877869999999997,0.91437054
10.431483,-2.1877869999999997,0.91437054
10.431483,-2.1877869999999997,0.91437054
11.829369999999999,-2.0728923999999997,1.2877783999999999
11.829369999999999,-2.0728923999999997,1.2877783999999999
11.829369999999999,-2.0728923999999997,1.2877783999999999
11.829369999999999,-2.0728923999999997,1.2877783999999999
10.680422,-2.2452345,1.6516117
10.680422,-2.2452345,1.6516117
10.680422,-2.2452345,1.6516117
10.680422,-2.2452345,1.6516117
10.785743,-2.1973617,1.5750152
10.785743,-2.1973617,1.5750152
10.785743,-2.1973617,1.5750152
10.785743,-2.1973617,1.5750152
10.958084,-0.33032233,1.9101248
10.958084,-0.33032233,1.9101248
10.958084,-0.33032233,1.9101248
10.958084,-0.33032233,1.9101248
10.958084,-0.33032233,1.9101248
7.635712,-0.93351966,1.5750152
7.635712,-0.93351966,1.5750152
7.635712,-0.93351966,1.5750152
9.18679,-1.1920328000000002,1.7569318999999999
9.18679,-1.1920328000000002,1.7569318999999999
9.18679,-1.1920328000000002,1.7569318999999999
9.18679,-1.1920328000000002,1.7569318999999999
10.307014,-1.9579976000000003,2.1782124
10.307014,-1.9579976000000003,2.1782124
10.307014,-1.9579976000000003,2.1782124
10.307014,-1.9579976000000003,2.1782124
10.307014,-1.9579976000000003,2.1782124
9.158066999999999,-2.1399142999999996,2.3505547000000004
9.158066999999999,-2.1399142999999996,2.3505547000000004
9.158066999999999,-2.1399142999999996,2.3505547000000004
9.244238000000001,-1.8335283,2.2835326
9.244238000000001,-1.8335283,2.2835326
9.244238000000001,-1.8335283,2.2835326
9.244238000000001,-1.8335283,2.2835326
11.791071,-1.948423,1.3356511999999998
11.791071,-1.948423,1.3356511999999998
11.791071,-1.948423,1.3356511999999998
11.791071,-1.948423,1.3356511999999998
11.791071,-1.948423,1.3356511999999998
13.016615,-1.5845897,0.8090504
13.016615,-1.5845897,0.8090504
13.016615,-1.5845897,0.8090504
12.279374,-0.92394507,0.5505372
12.279374,-0.92394507,0.5505372
12.279374,-0.92394507,0.5505372
12.279374,-0.92394507,0.5505372
10.757019,-0.5505372,0.39734426
10.757019,-0.5505372,0.39734426
10.757019,-0.5505372,0.39734426
10.757019,-0.5505372,0.39734426
10.757019,-0.5505372,0.39734426
7.980396300000001,-0.9622433000000001,0.4164934
7.980396300000001,-0.9622433000000001,0.4164934
7.980396300000001,-0.9622433000000001,0.4164934
7.980396300000001,-0.9622433000000001,0.4164934
6.9080452999999995,-0.512239,0.50266445
6.9080452999999995,-0.512239,0.50266445
6.9080452999999995,-0.512239,0.50266445
8.497422,-0.48351530000000004,0.49308985
8.497422,-0.48351530000000004,0.49308985
8.497422,-0.48351530000000004,0.49308985
8.497422,-0.48351530000000004,0.49308985
11.590005999999999,-0.5888355,0.44521707
11.590005999999999,-0.5888355,0.44521707
11.590005999999999,-0.5888355,0.44521707
11.590005999999999,-0.5888355,0.44521707
11.590005999999999,-0.5888355,0.44521707
12.882571,-1.1633091,0.78990126
12.882571,-1.1633091,0.78990126
12.882571,-1.1633091,0.78990126
14.079391500000002,-0.6558574,1.8431028999999999
14.079391500000002,-0.6558574,1.8431028999999999
14.079391500000002,-0.6558574,1.8431028999999999
14.079391500000002,-0.6558574,1.8431028999999999
14.079391500000002,-0.6558574,1.8431028999999999
9.014449,-1.3930986,2.149489
9.014449,-1.3930986,2.149489
9.014449,-1.3930986,2.149489
9.014449,-1.3930986,2.149489
10.182545,-0.34947145,2.254809
10.182545,-0.34947145,2.254809
10.182545,-0.34947145,2.254809
7.8272033,-1.2016073,1.9292740000000002
7.8272033,-1.2016073,1.9292740000000002
7.8272033,-1.2016073,1.9292740000000002
7.8272033,-1.2016073,1.9292740000000002
7.8272033,-1.2016073,1.9292740000000002
6.304848000000001,-1.6803354,2.1207652
6.304848000000001,-1.6803354,2.1207652
6.304848000000001,-1.6803354,2.1207652
6.304848000000001,-1.6803354,2.1207652
6.323997,-1.9388485,1.9867213
6.323997,-1.9388485,1.9867213
6.323997,-1.9388485,1.9867213
6.323997,-1.9388485,1.9867213
8.104865,-2.2069361,1.9292740000000002
8.104865,-2.2069361,1.9292740000000002
8.104865,-2.2069361,1.9292740000000002
8.104865,-2.2069361,1.9292740000000002
10.335738000000001,-2.3026817000000004,2.2069361
10.335738000000001,-2.3026817000000004,2.2069361
10.335738000000001,-2.3026817000000004,2.2069361
10.335738000000001,-2.3026817000000004,2.2069361
16.023027,-2.2739582,2.360129
16.023027,-2.2739582,2.360129
16.023027,-2.2739582,2.360129
16.023027,-2.2739582,2.360129
11.609155,-2.8963046,1.9005502
11.609155,-2.8963046,1.9005502
11.609155,-2.8963046,1.9005502
11.609155,-2.8963046,1.9005502
10.670848,-2.3314054,1.6994845
10.670848,-2.3314054,1.6994845
10.670848,-2.3314054,1.6994845
10.670848,-2.3314054,1.6994845
8.372953,-1.4792696,1.5462915000000002
8.372953,-1.4792696,1.5462915000000002
8.372953,-1.4792696,1.5462915000000002
8.372953,-1.4792696,1.5462915000000002
6.2761245,-1.5079931999999998,1.2877783999999999
6.2761245,-1.5079931999999998,1.2877783999999999
6.2761245,-1.5079931999999998,1.2877783999999999
6.2761245,-1.5079931999999998,1.2877783999999999
7.0612383,-1.7377827000000001,0.9526688
7.0612383,-1.7377827000000001,0.9526688
7.0612383,-1.7377827000000001,0.9526688
7.0612383,-1.7377827000000001,0.9526688
10.632549000000001,-1.2016073,1.0388398
10.632549000000001,-1.2016073,1.0388398
10.632549000000001,-1.2016073,1.0388398
10.632549000000001,-1.2016073,1.0388398
13.045339,-0.8473485999999999,1.1537346000000002
13.045339,-0.8473485999999999,1.1537346000000002
13.045339,-0.8473485999999999,1.1537346000000002
13.045339,-0.8473485999999999,1.1537346000000002
14.108115,-0.5313880999999999,1.0867126
14.108115,-0.5313880999999999,1.0867126
14.108115,-0.5313880999999999,1.0867126
14.108115,-0.5313880999999999,1.0867126
9.5219,-0.5792609000000001,1.4792696
9.5219,-0.5792609000000001,1.4792696
9.5219,-0.5792609000000001,1.4792696
9.5219,-0.5792609000000001,1.4792696
9.483603,-0.27287498,1.9771467
9.483603,-0.27287498,1.9771467
9.483603,-0.27287498,1.9771467
9.483603,-0.27287498,1.9771467
8.708063000000001,-0.8952214,1.7377827000000001
8.708063000000001,-0.8952214,1.7377827000000001
8.708063000000001,-0.8952214,1.7377827000000001
8.708063000000001,-0.8952214,1.7377827000000001
6.7931504,-1.4026731000000001,1.9579976000000003
6.7931504,-1.4026731000000001,1.9579976000000003
6.7931504,-1.4026731000000001,1.9579976000000003
6.7931504,-1.4026731000000001,1.9579976000000003
6.256975,-1.4122477,2.3984275
6.256975,-1.4122477,2.3984275
6.256975,-1.4122477,2.3984275
6.256975,-1.4122477,2.3984275
8.181462,-2.2835326,2.3314054
8.181462,-2.2835326,2.3314054
8.181462,-2.2835326,2.3314054
8.181462,-2.2835326,2.3314054
8.181462,-2.2835326,2.3314054
10.163396,-2.3505547000000004,2.4654493
10.163396,-2.3505547000000004,2.4654493
10.163396,-2.3505547000000004,2.4654493
13.734707,-2.666515,2.149489
13.734707,-2.666515,2.149489
13.734707,-2.666515,2.149489
13.734707,-2.666515,2.149489
12.777251,-2.34098,2.1973617
12.777251,-2.34098,2.1973617
12.777251,-2.34098,2.1973617
12.777251,-2.34098,2.1973617
10.709146,-2.647366,1.5654407
10.709146,-2.647366,1.5654407
10.709146,-2.647366,1.5654407
10.709146,-2.647366,1.5654407
9.550624000000001,-1.4313968000000001,1.6133133999999998
9.550624000000001,-1.4313968000000001,1.6133133999999998
9.550624000000001,-1.4313968000000001,1.6133133999999998
9.550624000000001,-1.4313968000000001,1.6133133999999998
6.9080452999999995,-1.0005416,1.6133133999999998
6.9080452999999995,-1.0005416,1.6133133999999998
6.9080452999999995,-1.0005416,1.6133133999999998
6.9080452999999995,-1.0005416,1.6133133999999998
6.5537868,-0.8281995000000001,1.2590546999999999
6.5537868,-0.8281995000000001,1.2590546999999999
6.5537868,-0.8281995000000001,1.2590546999999999
6.5537868,-0.8281995000000001,1.2590546999999999
9.301685,-1.14416,0.70373017
9.301685,-1.14416,0.70373017
9.301685,-1.14416,0.70373017
9.301685,-1.14416,0.70373017
12.25065,-0.77075213,0.6079846
12.25065,-0.77075213,0.6079846
12.25065,-0.77075213,0.6079846
12.25065,-0.77075213,0.6079846
13.629387,-0.5218136,0.6750065
13.629387,-0.5218136,0.6750065
13.629387,-0.5218136,0.6750065
13.629387,-0.5218136,0.6750065
13.629387,-0.5218136,0.6750065
12.116607,-0.3877697,1.2016073
12.116607,-0.3877697,1.2016073
12.116607,-0.3877697,1.2016073
8.669764500000001,-1.0484143,1.6516117
8.669764500000001,-1.0484143,1.6516117
8.669764500000001,-1.0484143,1.6516117
8.669764500000001,-1.0484143,1.6516117
9.96233,-0.512239,2.3888528
9.96233,-0.512239,2.3888528
9.96233,-0.512239,2.3888528
9.96233,-0.512239,2.3888528
9.96233,-0.512239,2.3888528
7.3676243,-1.3739493999999999,1.8909756999999998
7.3676243,-1.3739493999999999,1.8909756999999998
7.3676243,-1.3739493999999999,1.8909756999999998
5.672927,-1.4026731000000001,2.015445
5.672927,-1.4026731000000001,2.015445
5.672927,-1.4026731000000001,2.015445
5.672927,-1.4026731000000001,2.015445
5.672927,-1.4026731000000001,2.015445
7.1474094,-1.9962958,2.1590632999999997
7.1474094,-1.9962958,2.1590632999999997
7.1474094,-1.9962958,2.1590632999999997
7.1474094,-1.9962958,2.1590632999999997
10.345312,-2.2260852000000004,2.5994933
10.345312,-2.2260852000000004,2.5994933
10.345312,-2.2260852000000004,2.5994933
10.900637,-2.5707695,2.4845984
10.900637,-2.5707695,2.4845984
10.900637,-2.5707695,2.4845984
10.900637,-2.5707695,2.4845984
10.900637,-2.5707695,2.4845984
14.692163,-3.231414,2.34098
14.692163,-3.231414,2.34098
14.692163,-3.231414,2.34098
14.692163,-3.231414,2.34098
10.632549000000001,-1.6994845,2.034594
10.632549000000001,-1.6994845,2.034594
10.632549000000001,-1.6994845,2.034594
10.632549000000001,-1.6994845,2.034594
10.891063,-1.7856555,1.3930986
10.891063,-1.7856555,1.3930986
10.891063,-1.7856555,1.3930986
10.891063,-1.7856555,1.3930986
8.966576,-0.8090504,1.1920328000000002
8.966576,-0.8090504,1.1920328000000002
8.966576,-0.8090504,1.1920328000000002
8.966576,-0.8090504,1.1920328000000002
7.396348,-0.9718179,0.91437054
7.396348,-0.9718179,0.91437054
7.396348,-0.9718179,0.91437054
7.396348,-0.9718179,0.91437054
6.975067,-0.8760723,0.7994758000000001
6.975067,-0.8760723,0.7994758000000001
6.975067,-0.8760723,0.7994758000000001
6.975067,-0.8760723,0.7994758000000001
9.722966,-0.91437054,0.665432
9.722966,-0.91437054,0.665432
9.722966,-0.91437054,0.665432
9.722966,-0.91437054,0.665432
12.872996,-0.8664976999999999,1.14416
12.872996,-0.8664976999999999,1.14416
12.872996,-0.8664976999999999,1.14416
12.872996,-0.8664976999999999,1.14416
14.548545,-0.63670826,1.2111819
14.548545,-0.63670826,1.2111819
14.548545,-0.63670826,1.2111819
9.407005,-1.1920328000000002,1.2590546999999999
9.407005,-1.1920328000000002,1.2590546999999999
9.407005,-1.1920328000000002,1.2590546999999999
9.407005,-1.1920328000000002,1.2590546999999999
9.407005,-1.1920328000000002,1.2590546999999999
10.058076,-0.33032233,2.2260852000000004
10.058076,-0.33032233,2.2260852000000004
10.058076,-0.33032233,2.2260852000000004
10.058076,-0.33032233,2.2260852000000004
8.822957,-1.0101161,1.9005502
8.822957,-1.0101161,1.9005502
8.822957,-1.0101161,1.9005502
8.822957,-1.0101161,1.9005502
6.7931504,-1.2782038,1.8431028999999999
6.7931504,-1.2782038,1.8431028999999999
6.7931504,-1.2782038,1.8431028999999999
6.7931504,-1.2782038,1.8431028999999999
6.304848000000001,-1.6899098999999997,2.1111906000000005
6.304848000000001,-1.6899098999999997,2.1111906000000005
6.304848000000001,-1.6899098999999997,2.1111906000000005
6.304848000000001,-1.6899098999999997,2.1111906000000005
8.056992999999999,-2.0728923999999997,2.3697037999999995
8.056992999999999,-2.0728923999999997,2.3697037999999995
8.056992999999999,-2.0728923999999997,2.3697037999999995
8.056992999999999,-2.0728923999999997,2.3697037999999995
9.885734,-2.1111906000000005,2.6282167000000003
9.885734,-2.1111906000000005,2.6282167000000003
9.885734,-2.1111906000000005,2.6282167000000003
9.885734,-2.1111906000000005,2.6282167000000003
12.183628,-2.4367256,1.9292740000000002
12.183628,-2.4367256,1.9292740000000002
12.183628,-2.4367256,1.9292740000000002
12.183628,-2.4367256,1.9292740000000002
13.7730055,-2.2643836,1.9005502
13.7730055,-2.2643836,1.9005502
13.7730055,-2.2643836,1.9005502
13.7730055,-2.2643836,1.9005502
11.360216000000001,-2.1207652,1.4026731000000001
11.360216000000001,-2.1207652,1.4026731000000001
11.360216000000001,-2.1207652,1.4026731000000001
11.360216000000001,-2.1207652,1.4026731000000001
10.412334,-1.5367169,0.90479594
10.412334,-1.5367169,0.90479594
10.412334,-1.5367169,0.90479594
10.412334,-1.5367169,0.90479594
7.5112429999999994,-0.99096704,0.90479594
7.5112429999999994,-0.99096704,0.90479594
7.5112429999999994,-0.99096704,0.90479594
7.5112429999999994,-0.99096704,0.90479594
6.5346375,-0.91437054,0.69415563
6.5346375,-0.91437054,0.69415563
6.5346375,-0.91437054,0.69415563
6.5346375,-0.91437054,0.69415563
8.066567,-1.0196906,0.7994758000000001
8.066567,-1.0196906,0.7994758000000001
8.066567,-1.0196906,0.7994758000000001
8.066567,-1.0196906,0.7994758000000001
11.044255,-1.4313968000000001,1.1345854
11.044255,-1.4313968000000001,1.1345854
11.044255,-1.4313968000000001,1.1345854
11.044255,-1.4313968000000001,1.1345854
12.767676,-1.5654407,1.4792696
12.767676,-1.5654407,1.4792696
12.767676,-1.5654407,1.4792696
12.767676,-1.5654407,1.4792696
13.390023000000001,-1.2686293,1.6420371999999999
13.390023000000001,-1.2686293,1.6420371999999999
13.390023000000001,-1.2686293,1.6420371999999999
13.390023000000001,-1.2686293,1.6420371999999999
9.85701,-1.383524,1.5558661
9.85701,-1.383524,1.5558661
9.85701,-1.383524,1.5558661
9.85701,-1.383524,1.5558661
9.904882,-0.50266445,1.7856555
9.904882,-0.50266445,1.7856555
9.904882,-0.50266445,1.7856555
9.904882,-0.50266445,1.7856555
8.430401,-1.1728836,1.5654407
8.430401,-1.1728836,1.5654407
8.430401,-1.1728836,1.5654407
8.430401,-1.1728836,1.5654407
6.3527207,-1.0867126,1.709059
6.3527207,-1.0867126,1.709059
6.3527207,-1.0867126,1.709059
6.2378263,-1.7282081999999999,1.8239537000000001
6.2378263,-1.7282081999999999,1.8239537000000001
6.2378263,-1.7282081999999999,1.8239537000000001
6.2378263,-1.7282081999999999,1.8239537000000001
8.602742,-2.0441686999999997,2.6090677
8.602742,-2.0441686999999997,2.6090677
8.602742,-2.0441686999999997,2.6090677
8.602742,-2.0441686999999997,2.6090677
10.230417999999998,-1.5845897,3.0686467
10.230417999999998,-1.5845897,3.0686467
10.230417999999998,-1.5845897,3.0686467
10.230417999999998,-1.5845897,3.0686467
10.517653999999999,-2.4558747000000003,2.3314054
10.517653999999999,-2.4558747000000003,2.3314054
10.517653999999999,-2.4558747000000003,2.3314054
10.517653999999999,-2.4558747000000003,2.3314054
14.261307999999998,-2.7622607000000006,2.2643836
14.261307999999998,-2.7622607000000006,2.2643836
14.261307999999998,-2.7622607000000006,2.2643836
14.261307999999998,-2.7622607000000006,2.2643836
9.914457,-2.3984275,1.4409714
9.914457,-2.3984275,1.4409714
9.914457,-2.3984275,1.4409714
9.914457,-2.3984275,1.4409714
10.326163000000001,-1.862252,1.1345854
10.326163000000001,-1.862252,1.1345854
10.326163000000001,-1.862252,1.1345854
10.326163000000001,-1.862252,1.1345854
8.506997,-1.948423,0.8186249
8.506997,-1.948423,0.8186249
8.506997,-1.948423,0.8186249
8.506997,-1.948423,0.8186249
7.5782647,-2.5420458,0.45479164
7.5782647,-2.5420458,0.45479164
7.5782647,-2.5420458,0.45479164
7.5782647,-2.5420458,0.45479164
7.482519,-2.1877869999999997,0.5218136
7.482519,-2.1877869999999997,0.5218136
7.482519,-2.1877869999999997,0.5218136
8.832532,-1.9771467,0.7994758000000001
8.832532,-1.9771467,0.7994758000000001
8.832532,-1.9771467,0.7994758000000001
8.832532,-1.9771467,0.7994758000000001
9.579348,-2.3792782000000003,0.665432
9.579348,-2.3792782000000003,0.665432
9.579348,-2.3792782000000003,0.665432
9.579348,-2.3792782000000003,0.665432
10.527229,-2.7239625,0.9526688
10.527229,-2.7239625,0.9526688
10.527229,-2.7239625,0.9526688
10.527229,-2.7239625,0.9526688
10.737869,-2.4845984,1.4122477
10.737869,-2.4845984,1.4122477
10.737869,-2.4845984,1.4122477
10.737869,-2.4845984,1.4122477
11.226172,-2.3792782000000003,1.4218222
11.226172,-2.3792782000000003,1.4218222
11.226172,-2.3792782000000003,1.4218222
11.226172,-2.3792782000000003,1.4218222
9.636795,-3.0686467,0.8281995000000001
9.636795,-3.0686467,0.8281995000000001
9.636795,-3.0686467,0.8281995000000001
9.636795,-3.0686467,0.8281995000000001
11.025106,-2.0824668,0.48351530000000004
11.025106,-2.0824668,0.48351530000000004
11.025106,-2.0824668,0.48351530000000004
11.025106,-2.0824668,0.48351530000000004
7.9325233,-1.469695,0.59841
7.9325233,-1.469695,0.59841
7.9325233,-1.469695,0.59841
7.9325233,-1.469695,0.59841
8.631466,-1.9771467,0.4164934
8.631466,-1.9771467,0.4164934
8.631466,-1.9771467,0.4164934
8.631466,-1.9771467,0.4164934
9.3878565,-2.0920415,0.8090504
9.3878565,-2.0920415,0.8090504
9.3878565,-2.0920415,0.8090504
9.3878565,-2.0920415,0.8090504
9.234664,-2.5803439999999997,1.0388398
9.234664,-2.5803439999999997,1.0388398
9.234664,-2.5803439999999997,1.0388398
9.234664,-2.5803439999999997,1.0388398
8.985725,-2.0728923999999997,2.2165107999999996
8.985725,-2.0728923999999997,2.2165107999999996
8.985725,-2.0728923999999997,2.2165107999999996
8.985725,-2.0728923999999997,2.2165107999999996
8.813383,-1.8431028999999999,2.7814097
8.813383,-1.8431028999999999,2.7814097
8.813383,-1.8431028999999999,2.7814097
8.813383,-1.8431028999999999,2.7814097
9.799562,-2.6090677,1.9101248
9.799562,-2.6090677,1.9101248
9.799562,-2.6090677,1.9101248
9.799562,-2.6090677,1.9101248
12.375119,-2.9441773999999996,1.3930986
12.375119,-2.9441773999999996,1.3930986
12.375119,-2.9441773999999996,1.3930986
12.375119,-2.9441773999999996,1.3930986
11.791071,-2.6282167000000003,1.0484143
11.791071,-2.6282167000000003,1.0484143
11.791071,-2.6282167000000003,1.0484143
11.791071,-2.6282167000000003,1.0484143
12.020861,-2.513322,0.5505372
12.020861,-2.513322,0.5505372
12.020861,-2.513322,0.5505372
12.020861,-2.513322,0.5505372
8.842107,-2.4750240000000003,0.48351530000000004
8.842107,-2.4750240000000003,0.48351530000000004
8.842107,-2.4750240000000003,0.48351530000000004
8.028269,-1.8335283,0.3877697
8.028269,-1.8335283,0.3877697
8.028269,-1.8335283,0.3877697
8.028269,-1.8335283,0.3877697
8.028269,-1.8335283,0.3877697
9.330409,-1.9196993000000002,-0.17712937
9.330409,-1.9196993000000002,-0.17712937
9.330409,-1.9196993000000002,-0.17712937
10.594251,-2.0537431,-0.3111732
10.594251,-2.0537431,-0.3111732
10.594251,-2.0537431,-0.3111732
10.594251,-2.0537431,-0.3111732
10.670848,-1.6133133999999998,0.42606795
10.670848,-1.6133133999999998,0.42606795
10.670848,-1.6133133999999998,0.42606795
10.670848,-1.6133133999999998,0.42606795
11.953838000000001,-0.751603,1.0484143
11.953838000000001,-0.751603,1.0484143
11.953838000000001,-0.751603,1.0484143
11.953838000000001,-0.751603,1.0484143
13.801729000000002,-0.69415563,1.2399056
13.801729000000002,-0.69415563,1.2399056
13.801729000000002,-0.69415563,1.2399056
13.801729000000002,-0.69415563,1.2399056
10.776167999999998,-1.1537346000000002,1.8526775000000002
10.776167999999998,-1.1537346000000002,1.8526775000000002
10.776167999999998,-1.1537346000000002,1.8526775000000002
10.776167999999998,-1.1537346000000002,1.8526775000000002
10.182545,0.03351096,1.9388485
10.182545,0.03351096,1.9388485
10.182545,0.03351096,1.9388485
10.182545,0.03351096,1.9388485
10.393186,-0.2441513,1.0005416
10.393186,-0.2441513,1.0005416
10.393186,-0.2441513,1.0005416
10.393186,-0.2441513,1.0005416
8.133589,-0.42606795,1.1058618
8.133589,-0.42606795,1.1058618
8.133589,-0.42606795,1.1058618
8.133589,-0.42606795,1.1058618
6.8601727,-0.46436617,1.4792696
6.8601727,-0.46436617,1.4792696
6.8601727,-0.46436617,1.4792696
6.8601727,-0.46436617,1.4792696
7.271878699999999,-1.0675635,1.5079931999999998
7.271878699999999,-1.0675635,1.5079931999999998
7.271878699999999,-1.0675635,1.5079931999999998
7.271878699999999,-1.0675635,1.5079931999999998
8.641041,-1.3452256999999999,1.6899098999999997
8.641041,-1.3452256999999999,1.6899098999999997
8.641041,-1.3452256999999999,1.6899098999999997
8.641041,-1.3452256999999999,1.6899098999999997
9.75169,-1.6228879999999999,2.1111906000000005
9.75169,-1.6228879999999999,2.1111906000000005
9.75169,-1.6228879999999999,2.1111906000000005
9.75169,-1.6228879999999999,2.1111906000000005
12.135756,-1.4505458999999998,2.0537431
12.135756,-1.4505458999999998,2.0537431
12.135756,-1.4505458999999998,2.0537431
15.190041,-2.034594,1.9196993000000002
15.190041,-2.034594,1.9196993000000002
15.190041,-2.034594,1.9196993000000002
15.190041,-2.034594,1.9196993000000002
8.535721,-2.1590632999999997,1.6037389
8.535721,-2.1590632999999997,1.6037389
8.535721,-2.1590632999999997,1.6037389
8.535721,-2.1590632999999997,1.6037389
10.642124,-0.78990126,1.4505458999999998
10.642124,-0.78990126,1.4505458999999998
10.642124,-0.78990126,1.4505458999999998
10.642124,-0.78990126,1.4505458999999998
10.642124,-0.78990126,1.4505458999999998
10.2016945,-1.1154363,0.6271336999999999
10.2016945,-1.1154363,0.6271336999999999
10.2016945,-1.1154363,0.6271336999999999
7.5303917,-2.3984275,0.32074776
7.5303917,-2.3984275,0.32074776
7.5303917,-2.3984275,0.32074776
7.5303917,-2.3984275,0.32074776
6.304848000000001,-1.3356511999999998,1.4218222
6.304848000000001,-1.3356511999999998,1.4218222
6.304848000000001,-1.3356511999999998,1.4218222
6.304848000000001,-1.3356511999999998,1.4218222
8.037844,-1.5654407,1.6611862000000002
8.037844,-1.5654407,1.6611862000000002
8.037844,-1.5654407,1.6611862000000002
8.037844,-1.5654407,1.6611862000000002
11.111278,-1.6324625,1.5079931999999998
11.111278,-1.6324625,1.5079931999999998
11.111278,-1.6324625,1.5079931999999998
11.111278,-1.6324625,1.5079931999999998
14.567694,-1.3739493999999999,1.1633091
14.567694,-1.3739493999999999,1.1633091
14.567694,-1.3739493999999999,1.1633091
14.567694,-1.3739493999999999,1.1633091
14.146413,-0.8952214,1.1633091
14.146413,-0.8952214,1.1633091
14.146413,-0.8952214,1.1633091
14.146413,-0.8952214,1.1633091
14.146413,-0.8952214,1.1633091
14.146413,-0.8952214,1.1633091
14.146413,-0.8952214,1.1633091
14.146413,-0.8952214,1.1633091
10.048501,-0.023936402000000002,2.321831
10.048501,-0.023936402000000002,2.321831
10.048501,-0.023936402000000002,2.321831
10.048501,-0.023936402000000002,2.321831
8.334655,-1.0005416,1.7473572
8.334655,-1.0005416,1.7473572
8.334655,-1.0005416,1.7473572
8.334655,-1.0005416,1.7473572
5.8165455,-1.1058618,1.7186337
5.8165455,-1.1058618,1.7186337
5.8165455,-1.1058618,1.7186337
5.8165455,-1.1058618,1.7186337
6.6016593,-1.3165021000000001,1.8335283
6.6016593,-1.3165021000000001,1.8335283
6.6016593,-1.3165021000000001,1.8335283
6.6016593,-1.3165021000000001,1.8335283
8.794233,-1.7186337,2.0728923999999997
8.794233,-1.7186337,2.0728923999999997
8.794233,-1.7186337,2.0728923999999997
10.115523,-2.494173,2.494173
10.115523,-2.494173,2.494173
10.115523,-2.494173,2.494173
10.115523,-2.494173,2.494173
13.188957,-1.0867126,2.8484317999999997
13.188957,-1.0867126,2.8484317999999997
13.188957,-1.0867126,2.8484317999999997
13.188957,-1.0867126,2.8484317999999997
12.6527815,-1.7473572,2.149489
12.6527815,-1.7473572,2.149489
12.6527815,-1.7473572,2.149489
12.6527815,-1.7473572,2.149489
9.809137,-2.168638,1.3930986
9.809137,-2.168638,1.3930986
9.809137,-2.168638,1.3930986
9.809137,-2.168638,1.3930986
10.230417999999998,-0.6079846,1.5175678999999997
10.230417999999998,-0.6079846,1.5175678999999997
10.230417999999998,-0.6079846,1.5175678999999997
10.230417999999998,-0.6079846,1.5175678999999997
7.6069884000000005,-1.7856555,1.0771381000000002
7.6069884000000005,-1.7856555,1.0771381000000002
7.6069884000000005,-1.7856555,1.0771381000000002
6.7548523000000005,-1.1633091,1.0101161
6.7548523000000005,-1.1633091,1.0101161
6.7548523000000005,-1.1633091,1.0101161
6.7548523000000005,-1.1633091,1.0101161
6.7548523000000005,-1.1633091,1.0101161
8.928278,-1.0771381000000002,0.78032666
8.928278,-1.0771381000000002,0.78032666
8.928278,-1.0771381000000002,0.78032666
11.858092999999998,-1.1920328000000002,0.8664976999999999
11.858092999999998,-1.1920328000000002,0.8664976999999999
11.858092999999998,-1.1920328000000002,0.8664976999999999
11.858092999999998,-1.1920328000000002,0.8664976999999999
11.858092999999998,-1.1920328000000002,0.8664976999999999
11.963413000000001,-1.0101161,1.2207563999999997
11.963413000000001,-1.0101161,1.2207563999999997
11.963413000000001,-1.0101161,1.2207563999999997
13.208105999999999,-0.6558574,1.5558661
13.208105999999999,-0.6558574,1.5558661
13.208105999999999,-0.6558574,1.5558661
13.208105999999999,-0.6558574,1.5558661
9.636795,-1.2686293,1.6611862000000002
9.636795,-1.2686293,1.6611862000000002
9.636795,-1.2686293,1.6611862000000002
9.636795,-1.2686293,1.6611862000000002
9.608071,-0.5792609000000001,2.254809
9.608071,-0.5792609000000001,2.254809
9.608071,-0.5792609000000001,2.254809
9.608071,-0.5792609000000001,2.254809
8.851681,-0.8473485999999999,1.8048046999999998
8.851681,-0.8473485999999999,1.8048046999999998
8.851681,-0.8473485999999999,1.8048046999999998
8.851681,-0.8473485999999999,1.8048046999999998
6.649532300000001,-1.1633091,1.4601203999999999
6.649532300000001,-1.1633091,1.4601203999999999
6.649532300000001,-1.1633091,1.4601203999999999
6.649532300000001,-1.1633091,1.4601203999999999
6.831449,-1.3260766000000002,1.8718264999999998
6.831449,-1.3260766000000002,1.8718264999999998
6.831449,-1.3260766000000002,1.8718264999999998
6.831449,-1.3260766000000002,1.8718264999999998
8.822957,-1.5654407,2.4367256
8.822957,-1.5654407,2.4367256
8.822957,-1.5654407,2.4367256
8.822957,-1.5654407,2.4367256
10.431483,-1.776081,2.360129
10.431483,-1.776081,2.360129
10.431483,-1.776081,2.360129
10.431483,-1.776081,2.360129
12.805975,-2.3314054,1.7569318999999999
12.805975,-2.3314054,1.7569318999999999
12.805975,-2.3314054,1.7569318999999999
12.805975,-2.3314054,1.7569318999999999
12.56661,-2.2069361,2.321831
12.56661,-2.2069361,2.321831
12.56661,-2.2069361,2.321831
12.56661,-2.2069361,2.321831
10.689997,-1.9771467,1.948423
10.689997,-1.9771467,1.948423
10.689997,-1.9771467,1.948423
10.058076,-1.1537346000000002,1.5750152
10.058076,-1.1537346000000002,1.5750152
10.058076,-1.1537346000000002,1.5750152
10.058076,-1.1537346000000002,1.5750152
7.0612383,-1.3739493999999999,1.2207563999999997
7.0612383,-1.3739493999999999,1.2207563999999997
7.0612383,-1.3739493999999999,1.2207563999999997
7.0612383,-1.3739493999999999,1.2207563999999997
6.5729356,-0.99096704,1.2303311000000001
6.5729356,-0.99096704,1.2303311000000001
6.5729356,-0.99096704,1.2303311000000001
6.5729356,-0.99096704,1.2303311000000001
6.5729356,-0.99096704,1.2303311000000001
8.784659,-0.7324539000000001,1.1154363
8.784659,-0.7324539000000001,1.1154363
8.784659,-0.7324539000000001,1.1154363
11.379365,-1.2494801000000002,0.69415563
11.379365,-1.2494801000000002,0.69415563
11.379365,-1.2494801000000002,0.69415563
11.379365,-1.2494801000000002,0.69415563
12.308098,-0.93351966,1.0196906
12.308098,-0.93351966,1.0196906
12.308098,-0.93351966,1.0196906
12.308098,-0.93351966,1.0196906
14.146413,-0.44521707,1.0675635
14.146413,-0.44521707,1.0675635
14.146413,-0.44521707,1.0675635
14.146413,-0.44521707,1.0675635
9.617646,-1.6611862000000002,1.3930986
9.617646,-1.6611862000000002,1.3930986
9.617646,-1.6611862000000002,1.3930986
9.617646,-1.6611862000000002,1.3930986
9.617646,-1.6611862000000002,1.3930986
10.19212,-0.2441513,2.5707695
10.19212,-0.2441513,2.5707695
10.19212,-0.2441513,2.5707695
8.669764500000001,0.25372586,2.2452345
8.669764500000001,0.25372586,2.2452345
8.669764500000001,0.25372586,2.2452345
8.669764500000001,0.25372586,2.2452345
8.669764500000001,0.25372586,2.2452345
6.525062999999999,-1.1250108,1.2877783999999999
6.525062999999999,-1.1250108,1.2877783999999999
6.525062999999999,-1.1250108,1.2877783999999999
6.525062999999999,-1.1250108,1.2877783999999999
6.5729356,-1.6994845,1.5941644
6.5729356,-1.6994845,1.5941644
6.5729356,-1.6994845,1.5941644
8.277207,-2.2165107999999996,2.149489
8.277207,-2.2165107999999996,2.149489
8.277207,-2.2165107999999996,2.149489
8.277207,-2.2165107999999996,2.149489
8.277207,-2.2165107999999996,2.149489
10.182545,-2.0633178,2.5994933
10.182545,-2.0633178,2.5994933
10.182545,-2.0633178,2.5994933
10.182545,-2.0633178,2.5994933
11.609155,-2.1111906000000005,2.2069361
11.609155,-2.1111906000000005,2.2069361
11.609155,-2.1111906000000005,2.2069361
11.609155,-2.1111906000000005,2.2069361
14.079391500000002,-2.1877869999999997,1.9675721999999998
14.079391500000002,-2.1877869999999997,1.9675721999999998
14.079391500000002,-2.1877869999999997,1.9675721999999998
14.079391500000002,-2.1877869999999997,1.9675721999999998
10.642124,-1.9388485,1.4218222
10.642124,-1.9388485,1.4218222
10.642124,-1.9388485,1.4218222
10.642124,-1.9388485,1.4218222
10.0868,-1.4218222,1.0867126
10.0868,-1.4218222,1.0867126
10.0868,-1.4218222,1.0867126
10.0868,-1.4218222,1.0867126
7.5112429999999994,-1.0771381000000002,1.1824582000000001
7.5112429999999994,-1.0771381000000002,1.1824582000000001
7.5112429999999994,-1.0771381000000002,1.1824582000000001
6.7931504,-1.1058618,0.9430941999999999
6.7931504,-1.1058618,0.9430941999999999
6.7931504,-1.1058618,0.9430941999999999
6.7931504,-1.1058618,0.9430941999999999
6.7931504,-1.1058618,0.9430941999999999
8.593167999999999,-1.1824582000000001,0.8760723
8.593167999999999,-1.1824582000000001,0.8760723
8.593167999999999,-1.1824582000000001,0.8760723
10.996383,-1.4601203999999999,0.91437054
10.996383,-1.4601203999999999,0.91437054
10.996383,-1.4601203999999999,0.91437054
10.996383,-1.4601203999999999,0.91437054
11.972988,-1.4792696,1.0771381000000002
11.972988,-1.4792696,1.0771381000000002
11.972988,-1.4792696,1.0771381000000002
11.972988,-1.4792696,1.0771381000000002
13.064487,-0.5792609000000001,1.3260766000000002
13.064487,-0.5792609000000001,1.3260766000000002
13.064487,-0.5792609000000001,1.3260766000000002
13.064487,-0.5792609000000001,1.3260766000000002
10.565528,-1.14416,1.2399056
10.565528,-1.14416,1.2399056
10.565528,-1.14416,1.2399056
10.565528,-1.14416,1.2399056
10.134672,-0.56968635,1.6899098999999997
10.134672,-0.56968635,1.6899098999999997
10.134672,-0.56968635,1.6899098999999997
10.134672,-0.56968635,1.6899098999999997
9.96233,-0.30159867,1.6803354
9.96233,-0.30159867,1.6803354
9.96233,-0.30159867,1.6803354
9.96233,-0.30159867,1.6803354
6.3431463,-1.0771381000000002,1.2973529
6.3431463,-1.0771381000000002,1.2973529
6.3431463,-1.0771381000000002,1.2973529
6.3431463,-1.0771381000000002,1.2973529
6.314422599999999,-1.2111819,2.0058703
6.314422599999999,-1.2111819,2.0058703
6.314422599999999,-1.2111819,2.0058703
6.314422599999999,-1.2111819,2.0058703
8.00912,-1.6037389,2.3122563
8.00912,-1.6037389,2.3122563
8.00912,-1.6037389,2.3122563
8.00912,-1.6037389,2.3122563
10.06765,-2.5037475,2.1782124
10.06765,-2.5037475,2.1782124
10.06765,-2.5037475,2.1782124
10.06765,-2.5037475,2.1782124
10.661273,-2.3026817000000004,2.3122563
10.661273,-2.3026817000000004,2.3122563
10.661273,-2.3026817000000004,2.3122563
14.20386,-2.1111906000000005,2.015445
14.20386,-2.1111906000000005,2.015445
14.20386,-2.1111906000000005,2.015445
14.20386,-2.1111906000000005,2.015445
14.20386,-2.1111906000000005,2.015445
10.891063,-2.0058703,1.7282081999999999
10.891063,-2.0058703,1.7282081999999999
10.891063,-2.0058703,1.7282081999999999
10.479357,-1.4122477,1.4984187
10.479357,-1.4122477,1.4984187
10.479357,-1.4122477,1.4984187
10.479357,-1.4122477,1.4984187
10.479357,-1.4122477,1.4984187
9.225089,-0.8281995000000001,0.99096704
9.225089,-0.8281995000000001,0.99096704
9.225089,-0.8281995000000001,0.99096704
9.225089,-0.8281995000000001,0.99096704
7.1091112999999995,-1.9675721999999998,0.6750065
7.1091112999999995,-1.9675721999999998,0.6750065
7.1091112999999995,-1.9675721999999998,0.6750065
7.559115400000001,-1.5845897,1.2590546999999999
7.559115400000001,-1.5845897,1.2590546999999999
7.559115400000001,-1.5845897,1.2590546999999999
7.559115400000001,-1.5845897,1.2590546999999999
9.320834,-1.5079931999999998,1.3452256999999999
9.320834,-1.5079931999999998,1.3452256999999999
9.320834,-1.5079931999999998,1.3452256999999999
9.320834,-1.5079931999999998,1.3452256999999999
10.766592999999999,-1.6324625,0.9622433000000001
10.766592999999999,-1.6324625,0.9622433000000001
10.766592999999999,-1.6324625,0.9622433000000001
10.766592999999999,-1.6324625,0.9622433000000001
12.135756,-1.2686293,0.98139244
12.135756,-1.2686293,0.98139244
12.135756,-1.2686293,0.98139244
12.135756,-1.2686293,0.98139244
13.399597,-0.37819514,0.78990126
13.399597,-0.37819514,0.78990126
13.399597,-0.37819514,0.78990126
13.399597,-0.37819514,0.78990126
9.933606,-1.1154363,0.59841
9.933606,-1.1154363,0.59841
9.933606,-1.1154363,0.59841
9.933606,-1.1154363,0.59841
8.947427000000001,-0.59841,1.5941644
8.947427000000001,-0.59841,1.5941644
8.947427000000001,-0.59841,1.5941644
8.947427000000001,-0.59841,1.5941644
8.870830999999999,0.20585304,2.0058703
8.870830999999999,0.20585304,2.0058703
8.870830999999999,0.20585304,2.0058703
8.870830999999999,0.20585304,2.0058703
8.018694,-0.76117754,1.5462915000000002
8.018694,-0.76117754,1.5462915000000002
8.018694,-0.76117754,1.5462915000000002
8.018694,-0.76117754,1.5462915000000002
7.961247,-1.3165021000000001,1.5845897
7.961247,-1.3165021000000001,1.5845897
7.961247,-1.3165021000000001,1.5845897
7.961247,-1.3165021000000001,1.5845897
8.5740185,-1.5750152,1.709059
8.5740185,-1.5750152,1.709059
8.5740185,-1.5750152,1.709059
8.5740185,-1.5750152,1.709059
8.497422,-1.6037389,2.1303396
8.497422,-1.6037389,2.1303396
8.497422,-1.6037389,2.1303396
8.497422,-1.6037389,2.1303396
8.669764500000001,-2.3314054,2.1207652
8.669764500000001,-2.3314054,2.1207652
8.669764500000001,-2.3314054,2.1207652
8.669764500000001,-2.3314054,2.1207652
11.178299,-1.8718264999999998,2.5707695
11.178299,-1.8718264999999998,2.5707695
11.178299,-1.8718264999999998,2.5707695
11.178299,-1.8718264999999998,2.5707695
8.420826,-2.1303396,1.9867213
8.420826,-2.1303396,1.9867213
8.420826,-2.1303396,1.9867213
8.420826,-2.1303396,1.9867213
9.502751,-2.101616,2.0058703
9.502751,-2.101616,2.0058703
9.502751,-2.101616,2.0058703
9.502751,-2.101616,2.0058703
10.125097,-1.8239537000000001,1.9005502
10.125097,-1.8239537000000001,1.9005502
10.125097,-1.8239537000000001,1.9005502
10.527229,-2.2452345,1.3739493999999999
10.527229,-2.2452345,1.3739493999999999
10.527229,-2.2452345,1.3739493999999999
10.527229,-2.2452345,1.3739493999999999
10.527229,-2.2452345,1.3739493999999999
9.0814705,-1.7473572,1.4792696
9.0814705,-1.7473572,1.4792696
9.0814705,-1.7473572,1.4792696
9.617646,-1.4313968000000001,1.9388485
9.617646,-1.4313968000000001,1.9388485
9.617646,-1.4313968000000001,1.9388485
9.617646,-1.4313968000000001,1.9388485
10.058076,-2.0824668,1.776081
10.058076,-2.0824668,1.776081
10.058076,-2.0824668,1.776081
10.058076,-2.0824668,1.776081
9.876159,-2.168638,1.6803354
9.876159,-2.168638,1.6803354
9.876159,-2.168638,1.6803354
9.876159,-2.168638,1.6803354
9.493176,-1.7952299999999999,1.6803354
9.493176,-1.7952299999999999,1.6803354
9.493176,-1.7952299999999999,1.6803354
9.493176,-1.7952299999999999,1.6803354
9.598496,-1.8431028999999999,1.7473572
9.598496,-1.8431028999999999,1.7473572
9.598496,-1.8431028999999999,1.7473572
9.598496,-1.8431028999999999,1.7473572
9.7899885,-2.1111906000000005,1.7377827000000001
9.7899885,-2.1111906000000005,1.7377827000000001
9.7899885,-2.1111906000000005,1.7377827000000001
9.7899885,-2.1111906000000005,1.7377827000000001
9.684667999999999,-1.9388485,1.8048046999999998
9.684667999999999,-1.9388485,1.8048046999999998
9.684667999999999,-1.9388485,1.8048046999999998
9.684667999999999,-1.9388485,1.8048046999999998
9.742115,-1.9005502,1.9101248
9.742115,-1.9005502,1.9101248
9.742115,-1.9005502,1.9101248
9.742115,-1.9005502,1.9101248
9.512326,-2.0441686999999997,1.9292740000000002
9.512326,-2.0441686999999997,1.9292740000000002
9.512326,-2.0441686999999997,1.9292740000000002
9.512326,-2.0441686999999997,1.9292740000000002
9.6942425,-2.1782124,1.9292740000000002
9.6942425,-2.1782124,1.9292740000000002
9.6942425,-2.1782124,1.9292740000000002
9.54105,-2.2452345,1.9196993000000002
9.54105,-2.2452345,1.9196993000000002
9.54105,-2.2452345,1.9196993000000002
9.54105,-2.2452345,1.9196993000000002
9.54105,-2.2452345,1.9196993000000002
9.569773,-2.1303396,1.9005502
9.569773,-2.1303396,1.9005502
9.569773,-2.1303396,1.9005502
9.464453,-2.1399142999999996,1.9292740000000002
9.464453,-2.1399142999999996,1.9292740000000002
9.464453,-2.1399142999999996,1.9292740000000002
9.464453,-2.1399142999999996,1.9292740000000002
9.569773,-2.0441686999999997,1.9771467
